seconds_elapsed,ax,ay,az,gx,gy,gz
0.05719775390625,0.0244674652477726,0.251164087562263,0.0571504587203264,0.0209753457456827,0.0292850546538829,-0.0158056523650884
0.067225341796875,0.0634823286229744,0.203814837089274,0.0252928466886281,-0.0199417788535356,-0.0199687723070383,0.0368246994912624
0.077252685546875,0.1175819484053179,0.0904441131708212,0.009539397239685,-0.0536233074963092,-0.076335109770298,0.0885968133807182
0.087280517578125,0.1357861154746264,0.0110286676830612,0.0371083721667528,-0.0908349081873893,-0.1299207508563995,0.1479901820421219
0.097308837890625,0.201888928794302,0.0461586341826245,0.13823416621387,-0.1318931430578231,-0.1684295386075973,0.2118184268474578
0.10733642578125,0.2686525075776502,0.0864367589592933,0.2146183177143335,-0.1663403511047363,-0.1929903328418731,0.2663289606571197
0.117364501953125,0.2640175412533804,0.1212348814222961,0.2852554499953985,-0.1803570985794067,-0.2011387944221496,0.3014243841171264
0.127392578125,0.2245264021359383,0.2091824102707207,0.3347410731762647,-0.175119549036026,-0.1859050244092941,0.3172999620437622
0.137420654296875,0.1505286343153566,0.3507913866799325,0.3587994096338748,-0.1597006469964981,-0.1496988087892532,0.3163308501243591
0.14744873046875,0.0841097042512148,0.4584043507892638,0.3654313949942588,-0.1391482949256897,-0.1037449240684509,0.291826844215393
0.1574765625,0.0745446611136198,0.4792480725819245,0.3522667929947376,-0.117965243756771,-0.0660233795642852,0.2559316754341125
0.16750439453125,0.1317188660357147,0.4338060257034376,0.3071557316362858,-0.0981934070587158,-0.0445729494094848,0.2192418277263641
0.17753271484375,0.211387080708146,0.3905078224532306,0.2752396674156189,-0.0789861530065536,-0.0315679349005222,0.1893230825662613
0.187560546875,0.208692142535746,0.374335563070327,0.2469523150861263,-0.0571959018707275,-0.0090557020157575,0.15654356777668
0.197588623046875,0.1402739284131675,0.3492951202401891,0.1738444087773561,-0.0323888920247554,0.0140789709985256,0.1245298683643341
0.207616455078125,0.0854612284580245,0.3485731991738081,0.0980874492645263,-0.0172499790787696,0.0245077610015869,0.1003082916140556
0.217644287109375,0.0613316899277269,0.3524999441634863,0.0797983438581228,-0.0106317587196826,0.0240225344896316,0.0789819657802581
0.227672607421875,0.0305920856079086,0.335754889861308,0.0037228199154138,-0.0037708741147071,0.0140354065224528,0.0510495007038116
0.237700439453125,-0.0514907889908179,0.3092066728167236,-0.0798953744918107,0.0067427530884742,-0.0006660409271717,0.0330076515674591
0.247728515625,-0.1024117787370458,0.3528551873419434,-0.1152566107302904,0.0166017971932888,-0.0156101575121283,0.0298888310790061
0.257756591796875,-0.119852377555333,0.4003622039262205,-0.1157978780001401,0.0256075412034988,-0.0193122178316116,0.0361496582627296
0.267784423828125,-0.1458168398952111,0.3917809841942042,-0.1090571715682744,0.0359934568405151,-0.0347684733569622,0.0485386326909065
0.2778125,-0.1873466817660257,0.4252717138530686,-0.0151888013035058,0.0365545861423015,-0.0668571665883064,0.0590754263103008
0.287840576171875,-0.2204697106236592,0.4671067126829177,0.1141378358334302,0.0259709171950817,-0.1074791625142097,0.0741537064313888
0.297868408203125,-0.225583656103909,0.450438815270178,0.2682692438811063,0.0136684440076351,-0.15203757584095,0.0908011272549629
0.307896728515625,-0.2132544454826042,0.431374962631613,0.4350748400628566,0.0008059083484113,-0.1875718683004379,0.1141179054975509
0.31792431640625,-0.2522154232461005,0.4992245465533808,0.6069967563450336,-0.0043644714169204,-0.1941660493612289,0.1471592634916305
0.32795263671875,-0.3269249925978482,0.6191192288804799,0.7771358808636665,-0.0049930629320442,-0.1689333766698837,0.1840203255414962
0.3379794921875,-0.4352966661199927,0.7510594825819135,0.8819272116810083,0.0019489992409944,-0.1045887321233749,0.215348944067955
0.348007568359375,-0.5404756080154329,0.8867786703001708,0.9287158508628606,0.0057686101645231,-0.025358447805047,0.242417886853218
0.358035400390625,-0.626690833178535,1.0378067055050284,0.9858037657409906,-0.000727105885744,0.0545971021056175,0.2576623558998108
0.3680634765625,-0.735895085067302,1.1755983886484056,0.9988783513695,-0.0201334189623594,0.1355352401733398,0.2517066597938537
0.378091552734375,-0.8635029355876147,1.223463571020588,0.8752917191892862,-0.042582269757986,0.2114529013633728,0.2251685559749603
0.388119384765625,-0.9674132457867264,1.2411530300334097,0.688396105659008,-0.0594469830393791,0.2595591247081756,0.1722083985805511
0.398147705078125,-1.0068749030813575,1.2310172743357717,0.3935585883259773,-0.0546271950006485,0.2805520296096802,0.1208107247948646
0.408175537109375,-0.9983578346267342,1.1988112141925842,0.0555605591803789,-0.0270048584789037,0.270238995552063,0.0683926120400428
0.418203369140625,-1.0003554381847382,1.135333379081637,-0.2631763046562671,0.016478968784213,0.2355931252241134,0.0164226256310939
0.4282314453125,-0.917721651704982,1.021596306068823,-0.5277139607936143,0.0667440965771675,0.1848161220550537,-0.0250629112124443
0.438259521484375,-0.8038764421425759,0.8540019706621765,-0.6704419312953949,0.1176245883107185,0.1260135173797607,-0.0540439635515213
0.44828759765625,-0.73868705387339,0.7138247806217521,-0.7236737552672624,0.1540469825267791,0.067653514444828,-0.0676250383257865
0.458315673828125,-0.6357505571424961,0.6134333652637899,-0.6804869399696588,0.1644777804613113,0.0148739218711853,-0.0635501369833946
0.46834326171875,-0.5650158827710896,0.525831946439296,-0.5667074160546064,0.1605729907751083,-0.0253561157733201,-0.0481207780539989
0.47837158203125,-0.5566102388016879,0.4451709213372319,-0.4725193123161793,0.1470891386270523,-0.0578948855400085,-0.0352281481027603
0.4883994140625,-0.5519892644701525,0.4292666652407497,-0.3667582596838474,0.1300885081291198,-0.0821637213230133,-0.0143023543059825
0.498427734375,-0.4696207047978415,0.4433450210843235,-0.2502934422075748,0.1000496447086334,-0.1093969345092773,0.0204524304717779
0.50845556640625,-0.355211760405451,0.4534792058793828,-0.0466477694064378,0.0667905583977699,-0.1328286975622177,0.0473457612097263
0.5184833984375,-0.3079587916474789,0.3823653594646602,0.0525122775256633,0.0444205403327941,-0.1501123458147049,0.0626879632472992
0.528511474609375,-0.2561347521143034,0.3551377818537876,0.131111766988039,0.0402125269174575,-0.1629826575517654,0.0731239914894104
0.53853955078125,-0.2209466439530253,0.4133202505029738,0.2048883663386106,0.0479082614183425,-0.1528855562210083,0.0889136046171188
0.548567626953125,-0.2084329070776701,0.4817332404611631,0.2864718400478362,0.0634569972753524,-0.1284631788730621,0.1026365607976913
0.558595703125,-0.1929288658125326,0.525269124924764,0.369603127720952,0.0802985578775405,-0.1021338403224945,0.1192725300788879
0.56862353515625,-0.131205363555625,0.5507253089489414,0.5000988086372614,0.0884751379489898,-0.0731929317116737,0.1306701600551605
0.578651611328125,-0.1065113230103626,0.5936629717910662,0.6202332545369863,0.0905015394091606,-0.0418421998620033,0.1313428729772567
0.588678466796875,-0.1451599103564396,0.6573251870255917,0.6838041016936302,0.0875701606273651,-0.0062538813799619,0.126493439078331
0.59870654296875,-0.2119738676201552,0.7722617720212787,0.7170365092098713,0.0834278836846351,0.0389383658766746,0.1106982231140136
0.608734619140625,-0.3022888197196647,0.8381666881486773,0.6874947729051113,0.0869201868772506,0.0930008590221405,0.0826774388551712
0.618762451171875,-0.4205154592366888,0.8985587591387331,0.584832270810008,0.0907104015350341,0.1386077553033828,0.0454560332000255
0.62879052734375,-0.4776289104148745,0.9681387835823,0.4897901805907487,0.1018317341804504,0.1760222017765045,0.0072366427630186
0.638818359375,-0.519756535515748,0.97922358363308,0.354850964269042,0.1223942637443542,0.1999837309122085,-0.0283437203615903
0.6488466796875,-0.5182530721502379,0.9538450314223764,0.2235878061115741,0.1385131925344467,0.1981613487005233,-0.0523600950837135
0.65887451171875,-0.4893219420244917,0.9421184994019568,0.1161462530463934,0.143845647573471,0.1854727268218994,-0.0637155473232269
0.66890283203125,-0.4729473650025204,0.9247220319863408,0.0506453146100044,0.1354696005582809,0.1677494496107101,-0.0689711049199104
0.678930419921875,-0.4479101370427757,0.8663431274496018,0.0244172328978776,0.1180706471204757,0.140658438205719,-0.0723131075501442
0.68895849609375,-0.417439339726977,0.8134848860304802,0.0164046068340539,0.0907837003469467,0.1187199354171752,-0.0693659335374832
0.698986572265625,-0.3744723411925136,0.7898186906956136,-0.0051987376868724,0.0603027567267417,0.1080177575349807,-0.0638199001550674
0.7090146484375,-0.3819795750174671,0.8311972144622355,-0.0167027129977941,0.0256219469010829,0.1019560024142265,-0.0578815378248691
0.719042724609375,-0.4001702980833128,0.882010652180761,-0.0080669865995645,-0.0024224703665822,0.0965686962008476,-0.0648502334952354
0.729070556640625,-0.4234839171208441,0.9166387518391012,-0.0505243185788393,-0.0291740000247955,0.096971645951271,-0.0815913900732994
0.739098388671875,-0.4637820252396166,0.9156159846626222,-0.086006550848484,-0.0477604679763317,0.1103021055459976,-0.1107697859406471
0.749126708984375,-0.5136870428763329,0.9232194454036652,-0.1339730016380548,-0.0640958026051521,0.1248530969023704,-0.1379745155572891
0.759154541015625,-0.4884511505393311,0.9483030332557856,-0.1652858392685651,-0.070165678858757,0.1206658035516738,-0.159370869398117
0.7691826171875,-0.3715992699742317,0.909811536167562,-0.2237362746715545,-0.0684273391962051,0.096801072359085,-0.1697828024625778
0.77921044921875,-0.3094908235203474,0.8725437356553971,-0.2949883239805698,-0.067712016403675,0.0663185343146324,-0.1767158210277557
0.78923828125,-0.3141577193528413,0.8748932213909923,-0.2949491610139608,-0.0659695640206337,0.0355698093771934,-0.1924819499254226
0.7992666015625,-0.3687039503915235,0.8533639650195837,-0.2503881347537041,-0.0695608407258987,0.0060374843887984,-0.2131736427545547
0.80929443359375,-0.4099898639712482,0.8674860138744115,-0.21725451143682,-0.0748762935400009,-0.0200901627540588,-0.2322030663490295
0.81932275390625,-0.4099699171617627,0.8390119798664003,-0.1763596064686775,-0.0834013372659683,-0.0285366475582122,-0.2407936155796051
0.8293505859375,-0.3785228952249512,0.7540683090090751,-0.1233370413333177,-0.0932694599032402,-0.0357135459780693,-0.2393447607755661
0.839377685546875,-0.3482590917233377,0.6962113825198263,-0.078083941155672,-0.1010216549038887,-0.0316133424639701,-0.2269288301467895
0.849405517578125,-0.3388548286380246,0.6709974462863058,-0.0447480732649564,-0.1141167134046554,-0.0071059451438486,-0.1915313750505447
0.85943359375,-0.2702800174479373,0.6274720466841012,0.0121761754840612,-0.141308918595314,0.0186870358884334,-0.1445191204547882
0.869461669921875,-0.2407801840561441,0.5672632598390802,0.0578641599476337,-0.1806171536445617,0.0475648306310176,-0.095032051205635
0.879489501953125,-0.2231077127107419,0.5458539400529117,0.0573094486743211,-0.2256354838609695,0.082307368516922,-0.0529684871435165
0.889517578125,-0.2438536001521162,0.5607958539232611,0.0535831216275691,-0.2712438702583313,0.1116899102926254,-0.0292705632746219
0.899545654296875,-0.3720564391572028,0.5709693843480199,-0.0310462956488132,-0.3015522360801697,0.128756508231163,-0.0350576117634773
0.909573486328125,-0.5466737685358152,0.5994841887578368,-0.1923369278013706,-0.309069961309433,0.1334631145000457,-0.0621468387544155
0.9196015625,-0.65518137992993,0.6496186312362552,-0.3357973042309284,-0.2920489013195038,0.115681454539299,-0.1092573627829551
0.92962939453125,-0.6882689721480012,0.6594143413245678,-0.5038303963810206,-0.2501146197319031,0.0783643275499343,-0.1691613942384719
0.939657470703125,-0.7253965604718774,0.631414939090982,-0.6337193435758351,-0.1963448822498321,0.0504109896719455,-0.2365846335887909
0.949685546875,-0.743255238571763,0.5904639930866659,-0.67097326169312,-0.1412046402692794,0.0032369738910347,-0.3009043633937835
0.95971337890625,-0.6569247164659202,0.5264134726542979,-0.6118377666354179,-0.09353619068861,-0.0451137796044349,-0.3450992405414581
0.96974169921875,-0.5285149749781937,0.4254833107771352,-0.4983393977493047,-0.0614058710634708,-0.0943726599216461,-0.3627630174160003
0.979769287109375,-0.3685642131272703,0.3270991070557385,-0.3126595897495746,-0.0399911254644393,-0.1288307756185531,-0.3583610653877258
0.989797607421875,-0.2895781720327213,0.2658834264568053,-0.1415524969816207,-0.0343832559883594,-0.1330046206712722,-0.3380321562290191
0.999825439453125,-0.3042480092297308,0.2732552156001329,0.034357027631998,-0.039372157305479,-0.1017345860600471,-0.3119795024394989
1.009853515625,-0.3735224565891549,0.312250424426794,0.187750184533,-0.0536828450858593,-0.0413912758231163,-0.2996049523353576
1.019881591796875,-0.5292033225685358,0.3639833150777966,0.2672095056951046,-0.0663411170244216,0.0289968717843294,-0.2990123927593231
1.02990966796875,-0.6195660227999091,0.3804557629836723,0.2865028197079897,-0.0727164521813392,0.0982371494174003,-0.3070496320724487
1.0399375,-0.6494548189766705,0.3854680381877348,0.22600129699409,-0.0698431655764579,0.1533254384994506,-0.3166484534740448
1.049965576171875,-0.6586256751649081,0.3466644429430365,0.1086871692121028,-0.0544235482811927,0.1788865178823471,-0.3257776796817779
1.059993408203125,-0.5775093805760145,0.2830277640085667,-0.028547464570403,-0.0387199521064758,0.1705167442560196,-0.3184169828891754
1.070021728515625,-0.4364080979606136,0.1841165772709995,-0.1023936220258474,-0.0277348663657903,0.1400259137153625,-0.2992893755435943
1.080049560546875,-0.375627575642243,0.0706115137826185,-0.1424929927021264,-0.025298872962594,0.0963721871376037,-0.2708872854709625
1.090076416015625,-0.2846339936288073,-0.000222035548868,-0.1234048458725213,-0.0279802866280078,0.0459749847650527,-0.2342769056558609
1.1001044921875,-0.1315282479675952,-0.0683228320232825,-0.079842767521739,-0.0384805984795093,-0.007776659913361,-0.1962957084178924
1.110132568359375,0.0503398197242524,-0.1370728216837625,-0.0043196167647838,-0.0513061173260211,-0.0540094040334224,-0.1516709774732589
1.12016064453125,0.1970873919977806,-0.1605858814166858,0.1084065987050533,-0.0737520307302475,-0.090098962187767,-0.1104548424482345
1.130188232421875,0.3019953166658058,-0.142337062354898,0.2789846991628408,-0.0977335646748542,-0.1142962127923965,-0.0781188383698463
1.140216552734375,0.3538632318733259,-0.1105851939863059,0.438587816619873,-0.1184457689523696,-0.1203514412045478,-0.0632789060473442
1.150244384765625,0.3646559171097353,-0.0735696877347771,0.5350152237176895,-0.1271720826625824,-0.1100585684180259,-0.0599437318742275
1.160272705078125,0.4136253709293901,-0.0132159166282275,0.5941758532166481,-0.1233456581830978,-0.0935019627213478,-0.0631198212504386
1.170300537109375,0.4521828093932941,0.0909598441406153,0.6606845073908567,-0.1211952567100524,-0.066219225525856,-0.0661085098981857
1.18032861328125,0.4545847559684887,0.1231396555976942,0.6700690063297748,-0.1184351593255996,-0.0364757068455219,-0.0702736899256706
1.1903564453125,0.4792751067193225,0.14214574103388,0.6667611969560384,-0.1162492781877517,-0.0211805887520313,-0.0805003941059112
1.200384521484375,0.5068549318339676,0.1519989169304724,0.5949444995015859,-0.107482686638832,-0.0034319511614739,-0.0915815383195877
1.21041259765625,0.5526013684865086,0.2039096940321847,0.4787164133906364,-0.0916059762239456,0.0128513248637318,-0.1090699210762977
1.220440673828125,0.5668523774832487,0.2481147647279314,0.3267681946009397,-0.0653152465820312,0.0225273892283439,-0.1324522197246551
1.230468505859375,0.5522789315991103,0.2988878887023776,0.2095861687660217,-0.0333101004362106,0.0316846556961536,-0.165714830160141
1.24049658203125,0.4975429866746068,0.3425304484108463,0.122689391079545,-0.0115965474396944,0.0514410473406314,-0.2044568955898285
1.2505244140625,0.4273927611276507,0.3841966665450483,0.0520306314885616,0.0088390372693538,0.0840812176465988,-0.2565487027168274
1.260552490234375,0.3234891729302704,0.4019725251996889,-0.0335264220267534,0.0200549401342868,0.1118246987462043,-0.3108114004135132
1.27058056640625,0.2727019656315446,0.384120313373208,-0.1358124920248985,0.0282097551971673,0.1197026968002319,-0.355675607919693
1.280608642578125,0.3888215133341029,0.2784730963788926,-0.1887351039171218,0.0370445251464843,0.0884433090686798,-0.3742634057998657
1.29063671875,0.549824378053844,0.1356552465034183,-0.1664525449603796,0.0483176484704017,0.0286771450191736,-0.360905647277832
1.30066455078125,0.6739629450283944,0.0124548736944328,-0.1550333253234624,0.0552463978528976,-0.0503055527806282,-0.3211467862129211
1.310691650390625,0.8499609516430646,-0.1062538137184921,-0.0527449172377586,0.0645515322685241,-0.1355752348899841,-0.2569337785243988
1.320719482421875,0.9848766409587114,-0.1445616430691909,0.1373947927802801,0.0671286731958389,-0.2072896361351013,-0.1805857717990875
1.330747802734375,1.0140981323331597,-0.0608883026749361,0.4022217872530221,0.0574434623122215,-0.2348117083311081,-0.1125202104449272
1.340775390625,0.8690469795808196,0.109848577674292,0.7346008074730634,0.0363562852144241,-0.2259244620800018,-0.0631199106574058
1.350803466796875,0.6871803001284599,0.2827416405435651,1.010391094508767,0.0128449285402894,-0.1950130462646484,-0.0300871729850769
1.36083154296875,0.6052431906759739,0.4543175198670476,1.2266466580361126,-0.0128670930862426,-0.1543668061494827,-0.0107939029112458
1.370859619140625,0.5916877261953428,0.6077163393238559,1.3741302986323831,-0.0266415886580944,-0.1098045110702514,0.0003229777212254
1.3808876953125,0.4956914405237883,0.7090807278998196,1.4344792611330748,-0.026910301297903,-0.0611123405396938,-0.0082247043028473
1.39091552734375,0.3873979468043893,0.7692015807330608,1.4425953475713729,-0.0115427244454622,-0.010079494677484,-0.0194612834602594
1.400943359375,0.3547742823036387,0.8120448432900012,1.3983382726937532,0.0136750135570764,0.0350666791200637,-0.0297434814274311
1.4109716796875,0.3886941971600055,0.8373943155366926,1.3078233045101164,0.0382861904799938,0.066092848777771,-0.0372862368822097
1.42099951171875,0.4190281067557632,0.8409548575624823,1.228005671429634,0.0572534874081611,0.0820619612932205,-0.0441358871757984
1.431027587890625,0.4233597062192857,0.8257438444271683,1.129361757326126,0.0691448524594307,0.0828608497977256,-0.0486463271081447
1.4410556640625,0.408857535473071,0.8023397340945899,1.0248632719755173,0.0693624317646026,0.0712052583694458,-0.0489949323236942
1.45108349609375,0.4188804784459993,0.783095008463785,0.9405161787718532,0.0642246156930923,0.0553001128137111,-0.0447201877832412
1.461111572265625,0.4134374471418559,0.7681256951298564,0.8220067037254571,0.0582639276981353,0.0413715168833732,-0.0370843708515167
1.4711396484375,0.4140667580213397,0.7479857742249966,0.6801297970950603,0.0569777637720108,0.0430405847728252,-0.0261546466499567
1.48116748046875,0.4040972257360816,0.7486817936651409,0.5261357516914605,0.0574994757771492,0.0468835271894931,-0.0168900415301322
1.491195556640625,0.4338486592687666,0.7907360978014767,0.4248071285486221,0.0546017587184906,0.040628895163536,-0.0121483523398637
1.501223388671875,0.4358915998058393,0.8193006596371532,0.3370692238628864,0.0486128404736518,0.0294388234615325,-0.0157311018556356
1.51125146484375,0.4200583265863358,0.8226097111199051,0.2374631867289543,0.0434112139046192,0.0011252933181822,-0.0237094461917877
1.521279541015625,0.4195416823010891,0.8239496544867754,0.1721972260922193,0.0368901975452899,-0.037711851298809,-0.0340544953942298
1.531307373046875,0.3988886242423206,0.822575735785067,0.0993611224621534,0.0372563861310482,-0.0736352801322937,-0.0455743670463562
1.541335693359375,0.4274680183209479,0.8199949255116283,0.0333346988469362,0.0430769920349121,-0.0995049551129341,-0.0428944267332553
1.551362548828125,0.5054750217828899,0.799677748343721,-0.0430699109196662,0.0501542426645755,-0.1086159721016883,-0.0234729088842868
1.561390625,0.6170960524898023,0.805245100147277,-0.1093102695465087,0.0484831072390079,-0.098954826593399,0.0064634177833795
1.57141845703125,0.6719678256884217,0.834513718599081,-0.1146177283048629,0.0286284629255533,-0.0790736973285675,0.0364800281822681
1.58144677734375,0.6696919166456907,0.8575220345471054,-0.1315676940619945,-0.0070155505090951,-0.069001093506813,0.0538795255124568
1.591474609375,0.646653351689875,0.8733608241919427,-0.1690209341436624,-0.0505235381424427,-0.0750275328755378,0.0676148757338523
1.60150244140625,0.6426671315979212,0.8917724599994719,-0.221939454382658,-0.0878189802169799,-0.09364515542984,0.0654345452785492
1.611530517578125,0.5920015048522502,0.9324262496881186,-0.3168237236917018,-0.0966456159949302,-0.107734590768814,0.0639836639165878
1.62155859375,0.5372253009825945,0.972374667586386,-0.4422977770537137,-0.0900012925267219,-0.1236123517155647,0.0607596412301063
1.631586669921875,0.470613770955801,1.003580245450139,-0.4921148241460323,-0.0759637802839279,-0.1342198550701141,0.0520583353936672
1.64161474609375,0.4231692251484841,1.0470640709329395,-0.5237392119437456,-0.0702845901250839,-0.155723825097084,0.0424603037536144
1.651642333984375,0.3953470061127096,1.0224518999848513,-0.5346960747659206,-0.0770143866539001,-0.1929008364677429,0.028985571116209
1.66167041015625,0.3499927471155301,0.9531789687290788,-0.534747512692213,-0.0848997384309768,-0.2204496413469314,0.0230693574994802
1.671698486328125,0.337279469080083,0.8995025427948683,-0.5524105951547622,-0.0894149541854858,-0.2159200310707092,0.0310603827238082
1.6817265625,0.2581510238401591,0.8575696000158787,-0.6094967564672231,-0.0841405689716339,-0.1535432040691375,0.0357094630599021
1.691754638671875,0.0622909634139388,0.7955167562067508,-0.7521814723491669,-0.0777833387255668,-0.0666673853993415,0.0277318004518747
1.7017822265625,-0.1382314993327483,0.7030330452334136,-0.8601362356334924,-0.0876767188310623,5.9148296713e-06,-0.0034519510809332
1.711810546875,-0.2212136243261396,0.5451355261178686,-0.935007644483447,-0.1251144111156463,0.0256186947226524,-0.0603533759713172
1.72183837890625,-0.3205620699698105,0.254396932003647,-1.0714099190950392,-0.1430750340223312,0.0082567483186721,-0.1384716033935547
1.73186669921875,-0.4017265876146033,-0.1176949346599634,-1.332626906377077,-0.1211942136287689,-0.0482973121106624,-0.2031852602958679
1.74189453125,-0.3281327244197949,-0.3700681514168158,-1.5411784713983534,-0.0744914263486862,-0.1496945023536682,-0.2304232716560363
1.751922607421875,-0.0949185734374448,-0.5726431993117556,-1.6264444330126049,-0.0074828043580055,-0.2865130305290222,-0.214984118938446
1.761950439453125,0.0960096200771629,-0.8040130010690539,-1.5682336515843869,0.0504153817892074,-0.4271937012672424,-0.1654727607965469
1.771978515625,0.2558741284167394,-0.931866716109216,-1.3242197280377148,0.0857603251934051,-0.5602465867996216,-0.1016691923141479
1.782005615234375,0.3430755516055971,-0.9255004690129308,-0.954032662948966,0.0948973670601844,-0.6406711339950562,-0.0374433286488056
1.79203369140625,0.3568338086493313,-0.8367365092150867,-0.5761398457884788,0.0800561308860778,-0.6508786678314209,0.0176288299262523
1.8020615234375,0.2758412865705787,-0.6552985765688121,-0.1870277154773473,0.044074960052967,-0.6015483736991882,0.0669894590973854
1.81208935546875,0.1559931102663278,-0.4029541201155632,0.2067202579408883,-0.0205314978957176,-0.4982092082500458,0.100885272026062
1.822117431640625,0.0364063613772392,-0.2491880199826322,0.4387017983883619,-0.0861115753650665,-0.3720446527004242,0.1247218996286392
1.8321455078125,0.0185834852430969,-0.2684689311716705,0.5061211376667022,-0.1379968374967575,-0.2548778355121612,0.143923282623291
1.84217333984375,0.0813509070623666,-0.2722553361088968,0.4353180011689663,-0.1725068688392639,-0.1519719511270523,0.157241478562355
1.852201416015625,0.1154405889950692,-0.2827435402397066,0.2973176437109708,-0.1852967441082,-0.0687926784157753,0.1681853681802749
1.862229248046875,0.130747536785528,-0.2842978387433104,0.1641594655871391,-0.1832333207130432,-0.0264220517128705,0.1710559874773025
1.87225732421875,0.1462413123849779,-0.3189128049254417,0.0780330877512693,-0.1763467937707901,-0.0177003107964992,0.1712254285812378
1.882285400390625,0.2244553827263414,-0.3980662019435316,-0.0188163441509008,-0.166976198554039,-0.0459593795239925,0.1741194874048233
1.8923134765625,0.3001720102287828,-0.4729561693634838,0.1270282970666885,-0.1636563837528228,-0.1140385046601295,0.1739677935838699
1.902341552734375,0.2391255669832229,-0.4820565906640142,0.2837894690960645,-0.1575910300016403,-0.1714376211166381,0.1579217165708542
1.912369384765625,0.1086434031356126,-0.457339424971491,0.4131079229265451,-0.1370135098695755,-0.2199833691120147,0.1352189630270004
1.922397216796875,-0.0798346572805196,-0.3776632827209308,0.5503162532240152,-0.1130596995353698,-0.2438122630119323,0.1098131984472274
1.932425537109375,-0.1985180275890976,-0.268362365524657,0.6949491805642842,-0.0886266157031059,-0.2311592698097229,0.0808303952217102
1.942453369140625,-0.2971224133998155,-0.2215158221431076,0.8628840730369091,-0.0732878744602203,-0.1946641057729721,0.0566773898899555
1.952481689453125,-0.3776304398972541,-0.2656514991307631,1.017392497703433,-0.0671494454145431,-0.1311039924621582,0.0373685993254184
1.96250927734375,-0.4019030766926705,-0.3329871421810239,1.118263440206647,-0.0743913799524307,-0.0558656863868236,0.030720017850399
1.972537353515625,-0.3704174397785216,-0.4086037799077108,1.2058949619084596,-0.0903761982917785,0.00955162756145,0.0291840694844722
1.9825654296875,-0.3609510347098112,-0.5195511491367593,1.1975357143640517,-0.1083482727408409,0.0591548681259155,0.0255320779979228
1.992593505859375,-0.3419316422674804,-0.6277654766727239,1.1199310811579226,-0.1239763051271438,0.0886505916714668,0.0219037551432847
2.00262158203125,-0.3339103945057839,-0.6697744072973728,1.0242395871192216,-0.1334385126829147,0.1092245727777481,0.0196336768567562
2.012648193359375,-0.3593956219613551,-0.6726075118314474,0.908173998093605,-0.131822794675827,0.1251915097236633,0.0124455159530043
2.022676513671875,-0.4542120867311954,-0.6421800056681036,0.7221101592123508,-0.1159508824348449,0.142547070980072,-0.0129309464246034
2.032704345703125,-0.5599844644751399,-0.617344108966738,0.5850222404241562,-0.0935374945402145,0.154502272605896,-0.0559279471635818
2.042732421875,-0.6650991820279508,-0.623770269556716,0.4673492162019014,-0.0680933892726898,0.1520915776491165,-0.1077914088964462
2.052760498046875,-0.6689091687701643,-0.6512225593015551,0.3555009526103734,-0.0397098548710346,0.1320452839136123,-0.1516758352518081
2.062788330078125,-0.5484515553306788,-0.7027098776936531,0.2761082669436931,-0.0076403366401791,0.095843069255352,-0.1854825317859649
2.07281640625,-0.4354959880843758,-0.7726949027415364,0.1932265701174736,0.0287028029561042,0.0633836165070533,-0.2122103869915008
2.082844482421875,-0.3837205004006624,-0.8046319366849959,0.1052706387668847,0.067064568400383,0.0298416353762149,-0.2327718585729599
2.092872314453125,-0.2980744534276425,-0.7992830499377102,0.1103495494663715,0.0938869193196296,-0.0054663848131895,-0.2387465834617614
2.102900634765625,-0.19726152472198,-0.7723032000102102,0.1822404812008142,0.0984443798661232,-0.0294726509600877,-0.2259149402379989
2.11292822265625,-0.1573482512023299,-0.7631662460915744,0.2994260141670704,0.0896737799048423,-0.043059479445219,-0.2089962214231491
2.12295654296875,-0.113944724414125,-0.7329867233399301,0.4110679415315389,0.0740213170647621,-0.0520061030983924,-0.1893002837896347
2.132984375,-0.0340470848999917,-0.6479314088016748,0.4632078786134719,0.0609747730195522,-0.0506482422351837,-0.1598515063524246
2.143012451171875,0.070556760521233,-0.4860682739907875,0.5431453386813402,0.0521554462611675,-0.0470812022686004,-0.1314230561256408
2.15304052734375,0.1062016360066831,-0.3019111455136909,0.6467939292043448,0.0440934710204601,-0.0277361329644918,-0.1264607459306717
2.163068359375,0.0100465430442243,-0.1567619757469743,0.6752537154912949,0.0458628758788108,0.0026984731666743,-0.1435281485319137
2.173096435546875,-0.0945480961572378,-0.0096049367565661,0.718672585979104,0.0585195571184158,0.0294733196496963,-0.1763623654842376
2.18312451171875,-0.1134021419700235,0.1539782267799601,0.7116478019088506,0.0741547048091888,0.0557278282940387,-0.2156842052936554
2.19315234375,-0.1506654855027794,0.2766237787177786,0.6856523599088191,0.1007844060659408,0.0869172662496566,-0.2730810046195984
2.203180419921875,-0.2574504012901336,0.3441972491119057,0.5904226381629705,0.1328549832105636,0.1155526414513588,-0.3354237377643585
2.21320849609375,-0.2467765931930393,0.3631383886862546,0.4936918642044067,0.1595122665166854,0.1359458267688751,-0.380595713853836
2.2232353515625,-0.0888932122007012,0.3262961931750178,0.4240151013880968,0.1759655326604843,0.1389067322015762,-0.4077785909175873
2.233263427734375,0.0449426459889858,0.2520949386715889,0.382553794708848,0.1752190887928009,0.1275002211332321,-0.4201937615871429
2.24329150390625,0.1208577186729758,0.1911421102599241,0.3850286603897809,0.1630902588367462,0.1097398698329925,-0.4212625026702881
2.253319580078125,0.1637722929004579,0.1431141202751547,0.3693517833083868,0.1483108699321746,0.1020072400569915,-0.417262464761734
2.26334716796875,0.1875904639266431,0.1019526185263879,0.312298939743638,0.1382411867380142,0.104403018951416,-0.4068963825702667
2.27337548828125,0.1536687589719891,0.1714286894051358,0.2686006677925586,0.1357357054948806,0.1207822114229202,-0.3976036608219147
2.2834033203125,0.1183809532959014,0.2609201414936222,0.2106809782654047,0.1250492334365844,0.1483850628137588,-0.3970036506652832
2.293431640625,0.1103475036397576,0.3601756664231419,0.222077401548624,0.1031671315431594,0.1796871125698089,-0.405445247888565
2.30345947265625,0.0660533116221427,0.4660378048097714,0.1925958709985017,0.0734209567308425,0.1977393478155136,-0.4223182201385498
2.3134873046875,-0.0102903617374598,0.5521378060953691,0.1091337439358234,0.0444109290838241,0.2077069282531738,-0.4481604397296905
2.323515380859375,-0.0563863424800336,0.6412482777759433,0.0073562079817056,0.028137419372797,0.2004791051149368,-0.482309877872467
2.33354345703125,-0.0926730960655957,0.6797680511105805,-0.1231529169380664,0.0220041088759899,0.1857372820377349,-0.5170860290527344
2.343571533203125,-0.111953988988325,0.7245332947060465,-0.2639659937292337,0.0332785993814468,0.17159403860569,-0.5520011186599731
2.353599609375,-0.12088270698376,0.7669508791968226,-0.3425274892687797,0.038210779428482,0.1520780771970749,-0.5778940916061401
2.36362744140625,-0.1469210382774472,0.8050099031519145,-0.3703320265173911,0.0354072712361812,0.146929383277893,-0.6020662784576416
2.3736552734375,-0.1883428897291421,0.8664737680919468,-0.4102607168018817,0.0177681390196084,0.1607822030782699,-0.6212650537490845
2.383683349609375,-0.2201644805993884,0.9504285009771584,-0.4454653011739253,-0.020158203318715,0.1845317333936691,-0.6377289891242981
2.39371142578125,-0.2262199081808328,0.9815225082252174,-0.4972001645863056,-0.0652422830462455,0.2015043795108795,-0.6598227620124817
2.403739501953125,-0.2441701370216906,0.9574828764680772,-0.5739186626076698,-0.1093399673700332,0.2049515694379806,-0.6880019307136536
2.413767333984375,-0.292262625343725,0.8565328043140471,-0.6987614323288202,-0.1299572885036468,0.1979903280735016,-0.7158218622207642
2.42379541015625,-0.3319832989007234,0.7033784246049821,-0.888354614380002,-0.1310606300830841,0.1880479454994201,-0.734077513217926
2.4338232421875,-0.3221771770162507,0.6336041196983307,-1.0264233608990907,-0.1273043304681778,0.1732457876205444,-0.7389205694198608
2.4438505859375,-0.3375435999089852,0.5325091226482763,-1.0862713881403208,-0.1290668100118637,0.1361546218395233,-0.7411085963249207
2.45387841796875,-0.3752942520346492,0.3651925082044676,-1.0797007775783538,-0.1342882513999939,0.0758833363652229,-0.7522133588790894
2.46390673828125,-0.4049361607782542,0.1778281811838969,-1.1010106921106575,-0.13800148665905,0.0161014981567859,-0.761195957660675
2.473934326171875,-0.3315868469290435,0.1063403503576293,-1.0349901137143374,-0.1433950215578079,-0.0440756753087043,-0.7499419450759888
2.48396240234375,-0.2141764922309667,0.1711620743582025,-0.930891441336274,-0.1436054110527038,-0.0557578951120376,-0.7287993431091309
2.493990478515625,-0.1705450384384021,0.2359081210403703,-0.9388076212882996,-0.1402715742588043,-0.019936129450798,-0.7328891754150391
2.5040185546875,-0.2087051846804097,0.1769969179915264,-0.9120733436197042,-0.1467686146497726,0.0298026632517576,-0.7611956596374512
2.514046630859375,-0.1860834203645587,0.0839023085782304,-0.7802069588720798,-0.1735122054815292,0.0788781717419624,-0.8020533919334412
2.52407421875,-0.1784154064873233,-0.0113375509691424,-0.6863087779909371,-0.2054357826709747,0.1287637054920196,-0.8526806235313416
2.534102294921875,-0.2227243211500346,-0.1304376488524489,-0.7807371202260255,-0.2103783637285232,0.1889861226081848,-0.9139360189437866
2.54413037109375,-0.2503981446910649,-0.2652903194018639,-1.0521961000591515,-0.1813054233789444,0.2485157698392868,-0.976143479347229
2.554158447265625,-0.1522513664547354,-0.3796916467433795,-1.3234481591433287,-0.1402597278356552,0.2637130916118622,-1.0164331197738647
2.5641865234375,0.1160518892938271,-0.5871306108802556,-1.4687491950035094,-0.1071044281125068,0.2216665744781494,-1.0222188234329224
2.57421435546875,0.4771187689356506,-0.90759349479191,-1.3845593381881711,-0.0939449518918991,0.1108503118157386,-0.987882435321808
2.5842421875,0.7971819129399955,-1.2011584349058568,-1.0581418567210434,-0.1055219769477844,-0.0465387776494026,-0.922267198562622
2.5942705078125,1.0519731780234725,-1.3991171481117606,-0.6527443620413541,-0.1210457533597946,-0.2015722841024398,-0.8433561325073242
2.60429833984375,1.2148835203323514,-1.4862740380391477,-0.2443003392726182,-0.1208910197019577,-0.3062872290611267,-0.7676917314529419
2.614326416015625,1.1732881389446557,-1.4576779120214285,0.1966506993472576,-0.1141835749149322,-0.3313403725624084,-0.7108626961708069
2.624354248046875,0.9642043667428196,-1.2389414914637804,0.6408873355090617,-0.1095291674137115,-0.2752417027950287,-0.6819831132888794
2.63438232421875,0.6579010141521692,-1.0068144050657748,1.003804117333889,-0.1049185469746589,-0.1718522757291793,-0.684856116771698
2.644410400390625,0.4209338307792321,-0.8158728771455586,1.2172756031006573,-0.1177664324641227,-0.0411403216421604,-0.7062522172927856
2.6544375,0.3016478914676234,-0.6351707844931632,1.3762743249237537,-0.1439612358808517,0.0982417985796928,-0.7329407930374146
2.664465576171875,0.2786796152690425,-0.522717979137227,1.44330963332057,-0.1758003979921341,0.2158563137054443,-0.7599740028381348
2.6744931640625,0.2710205153506249,-0.5125086467467248,1.3521715648025274,-0.1949999332427978,0.2983001470565796,-0.7817395925521851
2.684521484375,0.3064341758960858,-0.5329518614470958,1.1332891599029302,-0.201333999633789,0.3360176980495453,-0.8129880428314209
2.69454931640625,0.2301505621606484,-0.5083902151098475,0.8684463833391666,-0.1881147623062133,0.3324604034423828,-0.8625648617744446
2.704577392578125,0.0432120593367144,-0.4768009716907516,0.5377694908618926,-0.1454946100711822,0.2892961502075195,-0.938829243183136
2.71460546875,-0.1449352347550913,-0.5042908169670031,0.2123310835599899,-0.0690357461571693,0.2178892940282821,-1.0162005424499512
2.72463330078125,-0.1728514156846329,-0.5528686411205679,-0.0446282462775707,0.0254023466259241,0.1432171911001205,-1.0713165998458862
2.734661376953125,-0.0603091784795746,-0.5960245132906362,-0.1761521011978387,0.1155175417661666,0.0873479023575782,-1.0888030529022217
2.744689453125,0.0790593620590865,-0.653021571547538,-0.2009369983643293,0.1788280606269836,0.041780948638916,-1.0844646692276
2.75471728515625,0.1833698505569249,-0.7608370724916458,-0.1254150166511535,0.1995233595371246,-0.0058219237253069,-1.0543029308319092
2.76474560546875,0.3869404122952372,-0.8873113889373838,0.0281213481128215,0.1780817210674286,-0.0476833544671535,-1.0048052072525024
2.774773193359375,0.5332428072176874,-0.9977286698777228,0.1912263362109661,0.1317265182733535,-0.0826560333371162,-0.9395679235458374
2.78480126953125,0.6429685256972909,-1.0058583464499562,0.3095563630372285,0.0804143399000167,-0.1234335601329803,-0.8623753786087036
2.794829345703125,0.7974183520443737,-0.9574391103915868,0.3941723363101482,0.0382765159010887,-0.165635660290718,-0.7618741989135742
2.804857421875,0.9725937902297824,-0.8325194760419428,0.5525163936167955,0.003335575107485,-0.2081399857997894,-0.6611718535423279
2.814885498046875,0.9534897882439196,-0.6436548274610191,0.7110533431470394,-0.0238330252468585,-0.2225257009267807,-0.5791107416152954
2.82491357421875,0.8177008232250809,-0.3742873400144278,0.9535568621307612,-0.046486672013998,-0.2118935585021972,-0.5302326679229736
2.834941162109375,0.6141838913701474,-0.0656092759153805,1.1785761623501776,-0.0685558840632438,-0.1797248125076294,-0.5113270878791809
2.844969482421875,0.4806215528922155,0.2015211001289077,1.4067121332854031,-0.0799510180950164,-0.142968401312828,-0.5088250637054443
2.854997314453125,0.3819403389856219,0.3745127462681382,1.5137030199736357,-0.0700250118970871,-0.0978509187698364,-0.5215631127357483
2.865024658203125,0.2815931646281853,0.5404546748252586,1.4948299771994351,-0.0454578846693038,-0.0599203146994113,-0.5415376424789429
2.87505224609375,0.2577448541920632,0.6874557560689747,1.508535846468806,-0.0176275931298732,-0.0301850102841854,-0.5624821782112122
2.88508056640625,0.2642896727256477,0.7958740452118217,1.52622757050395,-0.0016385065391659,-1.59228220582e-05,-0.5861590504646301
2.8951083984375,0.2363080984096974,0.8308679825078695,1.5483271741092204,0.0079306866973638,0.0335587859153747,-0.6100192070007324
2.905136474609375,0.2065207898460328,0.8446801616959273,1.4985107115387917,-0.0003157912287861,0.0652559921145439,-0.6359184384346008
2.91516455078125,0.2121779753575101,0.8568417971979826,1.424575706756115,-0.0122794657945632,0.0820825919508934,-0.6551252603530884
2.925192138671875,0.2459205243529751,0.7881314682610332,1.297094989746809,-0.0146062690764665,0.080935038626194,-0.668757438659668
2.935220458984375,0.281246835408546,0.6981839977670461,1.102378473332524,-0.0073493840172886,0.0660421475768089,-0.6722477078437805
2.945248291015625,0.3653267290433868,0.6205459737479686,0.9301619580179452,0.0054750684648752,0.0415277481079101,-0.662873387336731
2.9552763671875,0.4068051695205271,0.5761329411236569,0.7702449523061513,0.016262512654066,0.0178804248571395,-0.6521097421646118
2.965304443359375,0.4338754742104559,0.5559755210947245,0.6328209334313869,0.0207624565809965,-0.0009475918486714,-0.6423636674880981
2.97533251953125,0.4540228112367913,0.5357517943639308,0.5403016396880149,0.0149942208081483,-0.0279265977442264,-0.6314281821250916
2.9853603515625,0.5003426273304968,0.5274224670337513,0.4413379921108484,0.0022736319806426,-0.0481413230299949,-0.6177208423614502
2.995388427734375,0.5282770015038549,0.5141275897180662,0.3426262734681368,-0.0171818137168884,-0.0818439796566963,-0.6009751558303833
3.005416259765625,0.5504491954213008,0.4739188038505613,0.3265519215017557,-0.0219270344823598,-0.1194874942302703,-0.5879003405570984
3.015444580078125,0.5460686787821352,0.4565209116628393,0.1669318529099226,-0.0101408148184418,-0.1444409489631652,-0.5754468441009521
3.025472412109375,0.5649838801976294,0.4725635167840868,0.0777957718640565,0.0060482746921479,-0.1695074141025543,-0.5574835538864136
3.03550048828125,0.6074532679408788,0.4773011397652327,0.0935065512150526,0.0139086190611124,-0.2019288837909698,-0.5257070064544678
3.0455283203125,0.7074712468765676,0.4176728927545249,0.1564174731582403,0.0071748164482414,-0.2294411957263946,-0.4875905215740204
3.055556396484375,0.7790770049940794,0.3756496778761968,0.2270236257791519,-0.013113435357809,-0.2464368194341659,-0.4453906416893005
3.06558447265625,0.7967809309236705,0.3740908675942569,0.2472936758697032,-0.0378177165985107,-0.2578135728836059,-0.4017038643360138
3.075611572265625,0.81722012703605,0.3903109847068786,0.2677250540018081,-0.0543159171938896,-0.2541221678256988,-0.3585625290870666
3.085639404296875,0.8374667231857776,0.4492917275942861,0.2677086873888969,-0.059585515409708,-0.2212979197502136,-0.3184025883674621
3.095667236328125,0.8140786141399293,0.5314388265356421,0.2114420257657766,-0.0638989359140396,-0.1607578545808792,-0.2878388166427612
3.105695556640625,0.672538757444173,0.612852898494713,0.1437140589296817,-0.0688572078943252,-0.0865150392055511,-0.2747203409671783
3.115723388671875,0.5899898727688938,0.7033147117190063,0.0370452438026666,-0.0827446207404136,-0.0192016772925853,-0.2750375866889953
3.12575146484375,0.5812427218854427,0.7135732170134782,-0.1044669211685657,-0.102448284626007,-0.0003558178432285,-0.2799018621444702
3.135779296875,0.6592340163215994,0.6648772098403424,-0.3036486002981662,-0.128263458609581,0.019311198964715,-0.3045297563076019
3.145807373046875,0.4625706036232411,0.6828852332830428,-0.5379495236039161,-0.140588566660881,0.0256793498992919,-0.3357486724853515
3.15583544921875,0.4215778643038123,0.6288211232054979,-0.7702016976863145,-0.1372374296188354,0.0133979469537734,-0.3614941537380218
3.165863525390625,0.5331150891847908,0.5708822905864567,-1.0150263530939816,-0.1241203024983406,-0.0129811959341168,-0.3679999709129333
3.175891357421875,0.6535208993718028,0.4999871284237131,-1.1686404592692852,-0.1125977337360382,-0.0452556237578392,-0.3633545637130737
3.18591943359375,0.7148859801124781,0.4543519335933029,-1.2088456284075977,-0.1209422200918197,-0.0866107866168022,-0.3557427227497101
3.195947265625,0.7550652110919356,0.4042181487020105,-1.1068722776204347,-0.1462650895118713,-0.1278654336929321,-0.3515685200691223
3.2059755859375,0.7636834018334746,0.3594104907369241,-0.9522171379595994,-0.1794970780611038,-0.1628002375364303,-0.3551025390625
3.21600341796875,0.7132349980350583,0.411361846444197,-0.8217150273025036,-0.2137190997600555,-0.1745376884937286,-0.3799894750118255
3.226031494140625,0.6283658537186682,0.4442924214696511,-0.7432809575349092,-0.2286328077316284,-0.1638951748609542,-0.4234474599361419
3.2360595703125,0.5414516865059733,0.417418881460838,-0.6920119580686092,-0.2231640368700027,-0.1387706995010376,-0.4903187453746795
3.24608740234375,0.4309204237971454,0.3389297205051407,-0.6815338186740875,-0.2002147883176803,-0.085404135286808,-0.5649112462997437
3.256115478515625,0.3440986110430211,0.2662505975350737,-0.6084913788169622,-0.1764517724514007,-0.0155537072569131,-0.6328474283218384
3.2661435546875,0.2569448629207909,0.1797775616860017,-0.5488964495539664,-0.1623181104660034,0.0654905438423156,-0.6887609958648682
3.276170654296875,0.2480266663193702,0.0087732351727783,-0.5164303502351045,-0.1687183380126953,0.1308376193046569,-0.7306197285652161
3.2861982421875,0.3618452070705592,-0.3017920126460492,-0.4751292025536298,-0.1856587082147598,0.1487372517585754,-0.7596763968467712
3.296226318359375,0.5064266964845359,-0.6565064179886132,-0.5399246230691671,-0.187405526638031,0.115757867693901,-0.7639890909194946
3.30625439453125,0.6317454131543636,-0.9243743145272136,-0.6007037936806678,-0.1668373942375183,0.0417632758617401,-0.7463645935058594
3.316282470703125,0.632814722886309,-1.026654612371698,-0.6253408068090677,-0.1190051585435867,-0.0586942285299301,-0.707456648349762
3.326310546875,0.6304639950416981,-1.0465068023763595,-0.5384720861732959,-0.0620619766414165,-0.1648741960525512,-0.660680890083313
3.33633837890625,0.6644006783697753,-1.061558533296734,-0.3135270202338695,-0.0061247237026691,-0.2395738959312439,-0.6201079487800598
3.3463662109375,0.6058204791072755,-0.9801025584246964,0.0067553194791078,0.029225543141365,-0.2528526782989502,-0.5916110873222351
3.35639453125,0.4107142327230423,-0.8076419321559369,0.3666214815616607,0.038376547396183,-0.1993356347084045,-0.5868468284606934
3.36642236328125,0.1674565343711525,-0.631560119715333,0.69411799043715,0.0284738503396511,-0.1046568006277084,-0.6024808883666992
3.37645068359375,-0.0222477799043059,-0.5093563932608812,0.9003308833777904,0.0033986419439315,0.0042429524473845,-0.6208716034889221
3.386478515625,-0.1802157704401761,-0.4555163742627948,0.9262100055217742,-0.017338328063488,0.1475479155778885,-0.6372620463371277
3.39650634765625,-0.3522789218239486,-0.4322061162261292,0.7841074734419584,-0.0387166254222393,0.2339467257261276,-0.6470709443092346
3.406534423828125,-0.4564603040494024,-0.4809993001634254,0.6656172876179218,-0.0503676906228065,0.2598768770694732,-0.656667947769165
3.4165625,-0.4537692383345216,-0.6398946712099015,0.4119856408983469,-0.0414341948926448,0.2419263124465942,-0.6624391078948975
3.426590576171875,-0.5226591616220772,-0.7526620954729616,0.1236766485512256,-0.0067230882123112,0.1973330229520797,-0.6658596992492676
3.43661865234375,-0.552044538321346,-0.8245579956434667,-0.1249298634827136,0.0444042347371578,0.1301750391721725,-0.6603186726570129
3.446646240234375,-0.5039969851195812,-0.8562742995083331,-0.2831669532835483,0.0933352932333946,0.0621283389627933,-0.6477243304252625
3.456674560546875,-0.4289901863869279,-0.9103590870477258,-0.3014648265182972,0.1373998969793319,0.0085579771548509,-0.6384641528129578
3.466702392578125,-0.4677651765916496,-1.0044700338967143,-0.2580167299360036,0.170141339302063,-0.0074862362816929,-0.6346012353897095
3.476730712890625,-0.5001701933730394,-1.0520026233136652,-0.1554530120402574,0.1777107864618301,-0.001730827614665,-0.6168074011802673
3.48675732421875,-0.3525912757087499,-1.0559615170072765,0.06342880833745,0.1596082150936126,0.0155717302113771,-0.5879704356193542
3.496785400390625,-0.2259958901666104,-1.0786040683828293,0.1689274106413126,0.1211202219128608,0.030843848362565,-0.5679662227630615
3.5068134765625,-0.1788757540080696,-1.0871391108855604,0.2150876887917518,0.0719273760914802,0.0280438009649515,-0.5532410740852356
3.51684130859375,-0.132446084331721,-1.0699369239330292,0.2405523849159479,0.0296849869191646,0.0124673023819923,-0.5405454039573669
3.52686962890625,-0.0363504664715379,-1.0556677947577089,0.2013537624716758,0.0132871055975556,-0.0231796409934759,-0.5248522162437439
3.5368974609375,0.0837366331551223,-1.032921709942445,0.1580102953076362,0.0323190689086914,-0.0725435838103294,-0.4992040693759918
3.546925537109375,0.2651635329507291,-0.97279881128259,0.1363227796345949,0.074370376765728,-0.1129179000854492,-0.4697939753532409
3.556953369140625,0.3241015326749533,-0.796657742935419,0.2120814927130937,0.1095381826162338,-0.1418862640857696,-0.4519855976104736
3.5669814453125,0.2346173688437789,-0.5675363411594182,0.44314416474998,0.1215069591999054,-0.1491660177707672,-0.4528013467788696
3.577009521484375,0.1668219627946615,-0.3798295939093455,0.6467834078103304,0.1166111677885055,-0.1446314305067062,-0.4795750677585602
3.58703759765625,0.2302824083793908,-0.2364945608925074,0.7816010435789823,0.1019930839538574,-0.1329691857099533,-0.514442503452301
3.5970654296875,0.2644767927955836,-0.0884581087190657,0.8663187236607074,0.085608571767807,-0.0971940532326698,-0.5539778470993042
3.607093505859375,0.194442156452313,0.0528779233671259,0.9080985947698356,0.0785517245531082,-0.0347615703940391,-0.5911582112312317
3.617121337890625,0.1629834806103259,0.1320082409037277,0.8942448414623737,0.0798940956592559,0.0270795822143554,-0.6190688610076904
3.627149658203125,0.1481579596612602,0.1580324340742081,0.8305068210452795,0.0899659022688865,0.0744084790349006,-0.6468632221221924
3.637177490234375,0.0946182387840002,0.1738797723516821,0.7192968553572893,0.1017703637480735,0.1097517758607864,-0.6774758696556091
3.647205810546875,0.0099263507306575,0.180778226628527,0.5883896710306405,0.1133295446634292,0.11627759039402,-0.6950825452804565
3.6572333984375,0.0478068763136863,0.1332033963718917,0.5127326647609471,0.1174401268362999,0.0944224894046783,-0.7034967541694641
3.66726123046875,0.0580168662913143,0.061336393502308,0.3893301569759845,0.125375285744667,0.0601244419813156,-0.7019677758216858
3.67728857421875,0.0963352718349546,0.0042930997922609,0.2547457454413175,0.1303017735481262,0.0157487783581018,-0.6883459687232971
3.68731640625,0.1482956876315176,0.0178718789331091,0.2503548170059919,0.132646694779396,-0.0248186215758323,-0.6694273948669434
3.697344482421875,0.139478686382249,0.0790533524434082,0.2367880639463662,0.1315070688724517,-0.0498796291649341,-0.6513617634773254
3.707372314453125,0.1000581648156046,0.1596587383680976,0.2875374234527349,0.1220824122428894,-0.0521909855306148,-0.6349407434463501
3.717400634765625,0.0485951771471649,0.2739334253889508,0.3702700671970844,0.1104939952492713,-0.0284400768578052,-0.6311797499656677
3.727428466796875,-0.0492761451486498,0.3796284818466752,0.4402800074905156,0.0979393199086189,0.0102604459971189,-0.6342807412147522
3.73745654296875,-0.0993343805857002,0.4615675275279208,0.4312275169849395,0.0843420922756195,0.0530223213136196,-0.6381262540817261
3.747484375,-0.0944107335131615,0.5202623296134173,0.3926163390398025,0.0720545351505279,0.0850905030965805,-0.6450797319412231
3.757512451171875,-0.1346715783614665,0.5351052035560832,0.3186410022467374,0.0660440027713775,0.1052624508738517,-0.651120126247406
3.76754052734375,-0.1319440530937164,0.4816133769411593,0.2138870808303356,0.0652666240930557,0.0975379571318626,-0.6530733108520508
3.777568603515625,-0.0714562666442245,0.4378286688156426,0.110169516724348,0.0711766257882118,0.078304573893547,-0.6514188051223755
3.787596435546875,-0.042382586242631,0.4282498528810218,0.0131622639119625,0.0722309723496437,0.0666002482175827,-0.644435703754425
3.797624755859375,-0.0160858962737023,0.4012831912286579,-0.0462754289627075,0.0704828798770904,0.0470630750060081,-0.6246927976608276
3.80765234375,0.0255853998944163,0.3922290202226489,-0.0319914675444364,0.0585615001618862,0.0280550308525562,-0.6028740406036377
3.817680419921875,0.0397530414566397,0.3817057995773851,-0.0221036952584981,0.0431302227079868,0.0293885432183742,-0.5812679529190063
3.82770849609375,0.0584855797816067,0.4035231521751731,-0.0094622403502464,0.0256002284586429,0.0344269759953022,-0.5582609176635742
3.837736328125,0.1383669257480651,0.4390926243368536,0.0367675959050655,0.0076910024508833,0.0383005440235137,-0.5349524021148682
3.8477646484375,0.1685168570790439,0.4537834129903465,0.0212958860069513,0.0010679871775209,0.0530965365469455,-0.5239050984382629
3.857792236328125,0.1256427609924227,0.5404325725913047,-0.0433633409082889,-2.48427968472e-05,0.0795549303293228,-0.5158055424690247
3.867820556640625,0.074014134433493,0.6626466012440622,-0.0124193365901708,-0.0090660080313682,0.1171622276306152,-0.5207300186157227
3.877847412109375,0.0231665021844208,0.7595278895892202,-0.0436158543646335,-0.0241226740181446,0.1663022339344024,-0.5355690717697144
3.88787548828125,-0.0162874101951718,0.7975131176557392,-0.0683960753560066,-0.0435088872909545,0.2129786610603332,-0.5582195520401001
3.8979033203125,0.0011914748068898,0.789499980135262,-0.1751554913759231,-0.0611559264361858,0.2400836795568466,-0.5849267244338989
3.90793115234375,0.0751410195715725,0.7321400433827191,-0.3056570175111293,-0.0680942609906196,0.2322481274604797,-0.6041967868804932
3.91795947265625,0.1462486919738352,0.7199814766205846,-0.4540221171170472,-0.0699827075004577,0.2008899897336959,-0.621922492980957
3.9279873046875,0.1964354491613805,0.6802547386489808,-0.5639771143078803,-0.0672108903527259,0.1555171757936477,-0.6325964331626892
3.938015625,0.2274623825225979,0.64777724115327,-0.570012887340784,-0.0662157535552978,0.112256534397602,-0.6343733072280884
3.948043212890625,0.2362263384103775,0.613560937166214,-0.552530422142148,-0.0707716196775436,0.0855596736073494,-0.6332153677940369
3.9580712890625,0.301111629166454,0.5789279421370476,-0.4555734382122754,-0.0786739811301231,0.0754650011658668,-0.6207609176635742
3.968099365234375,0.356939753241837,0.5887419550670311,-0.306800926849246,-0.0938255041837692,0.0896279588341713,-0.6017670035362244
3.97812744140625,0.3516464691393077,0.657222018912062,-0.1746101324528455,-0.1195737943053245,0.1213137730956077,-0.5931739807128906
3.991288330078125,0.237523757809773,0.7784809387970715,-0.1072778869360685,-0.1649649739265442,0.193369060754776,-0.6013879776000977
4.00131640625,0.1064582411162555,0.8995582915700971,-0.1011252095252275,-0.1952652633190155,0.2453336119651794,-0.6364172697067261
4.011344482421875,-0.052878845815733,0.96779844571203,-0.1913783119022846,-0.2185937613248825,0.2836506366729736,-0.6997799873352051
4.021372314453125,-0.195584093029052,0.979100541775301,-0.3816378489077091,-0.2176776379346847,0.309786856174469,-0.7859013676643372
4.031400390625,-0.4002114338112995,0.9576650281019508,-0.6640934390515089,-0.1904771625995636,0.3285136520862579,-0.8894525170326233
4.04142822265625,-0.5683048778465017,0.8928530217777937,-1.0265502021491526,-0.1423230916261673,0.3396394848823547,-0.984929382801056
4.051456298828125,-0.6131639006726444,0.7625375197339802,-1.3131938916325567,-0.0937861800193786,0.3181866705417633,-1.0562773942947388
4.061484375,-0.4540456441231071,0.5345444644007832,-1.4728993004202842,-0.0634204596281051,0.2394986301660537,-1.077479600906372
4.07151171875,-0.1153958730705082,0.1967882446544245,-1.444023919069767,-0.0607218742370605,0.1148837357759475,-1.046787142753601
4.081539306640625,0.2520438295388594,-0.1349429152492899,-1.2251169642508029,-0.0886806696653366,-0.0239494033157825,-0.9794955849647522
4.0915673828125,0.4833434521367773,-0.3607230711728334,-0.8457564126253128,-0.1259774416685104,-0.1435804665088653,-0.8943263292312622
4.101595458984375,0.5980548135418444,-0.4638365319058298,-0.3644897302299738,-0.1700798720121383,-0.225962221622467,-0.818841814994812
4.11162353515625,0.6528649927463382,-0.5101429405286908,0.1102408283948898,-0.2090344727039337,-0.2355269491672516,-0.7603462338447571
4.121651611328125,0.59678899485711,-0.4952253939146175,0.4657604857057332,-0.2387762516736984,-0.1852337568998336,-0.7400650978088379
4.131679443359375,0.4556229033771902,-0.4512403774440288,0.7227782677322626,-0.2502936422824859,-0.1134839281439781,-0.739838719367981
4.141707275390625,0.4006274672662839,-0.3765322328643873,0.8789981724917888,-0.2544741332530975,-0.0282469559460878,-0.7452617287635803
4.151735595703125,0.4177021553816273,-0.3393400183390825,0.9582347908139228,-0.2506463825702667,0.0459175556898117,-0.7491142749786377
4.161763427734375,0.5039177093382925,-0.4438226485334337,0.990157869297266,-0.2345463931560516,0.0909679234027862,-0.7371808290481567
4.17179150390625,0.6108948597621172,-0.5109053032033145,1.0141215132087469,-0.2155122458934784,0.1130655035376548,-0.717591404914856
4.1818193359375,0.6030635816145687,-0.5353108091307803,1.006571828481555,-0.196754053235054,0.1335611939430236,-0.7036526799201965
4.19184716796875,0.543612481269054,-0.5553408764529973,0.9962456647783516,-0.1802762746810913,0.15167336165905,-0.696074366569519
4.20187548828125,0.506146710499376,-0.549717300950177,0.9658861823499202,-0.1743808388710022,0.1617550700902938,-0.6975725293159485
4.2119033203125,0.4747350521368905,-0.5385446399528533,0.9150649266511202,-0.1599486321210861,0.1873208731412887,-0.7062345147132874
4.221931396484375,0.4142905933724716,-0.5667299932125955,0.7314917355418205,-0.1298175007104873,0.2262789011001587,-0.7145201563835144
4.23195947265625,0.3592813479319214,-0.5655369109705091,0.6149380707383155,-0.0953577980399131,0.2577326893806457,-0.7157095074653625
4.2419873046875,0.3377108462346717,-0.5221442343698814,0.5114613296508789,-0.072564423084259,0.271011620759964,-0.7162057161331177
4.252015380859375,0.2462797495868056,-0.5711484672419727,0.4140788137853145,-0.058282159268856,0.261599451303482,-0.7331721782684326
4.26204345703125,0.1008253863284364,-0.6533741843774914,0.2363859128862619,-0.0386792495846748,0.2367338389158249,-0.7576180100440979
4.272070556640625,0.0646738399624824,-0.7289748573500663,0.0842939017117023,-0.0094920694828033,0.1950878649950027,-0.763364851474762
4.282098388671875,0.1686043892320245,-0.782657274633646,-0.0502811574727296,0.0220754854381084,0.1515630185604095,-0.741909384727478
4.29212646484375,0.2499340525769628,-0.8762898633811622,-0.1505389365136623,0.056827075779438,0.1170862689614296,-0.7005568742752075
4.302154541015625,0.3132016607370227,-0.9724578888904304,-0.1464461142420768,0.0759478211402893,0.0716476514935493,-0.6333637833595276
4.312182373046875,0.4166362431831658,-0.9908005511149764,-0.0015413842231035,0.0745829567313194,0.0179940164089202,-0.5514593124389648
4.322210693359375,0.4298855277914553,-0.9677642511814832,0.1536836642801761,0.0580563060939312,-0.0249523967504501,-0.4801002442836761
4.33223828125,0.3173042737502604,-0.8527464176431298,0.3026467297792434,0.0335427112877368,-0.0563771650195121,-0.4298008680343628
4.342266357421875,0.2306474788321182,-0.6767386933520436,0.4389432059288025,0.0138743668794631,-0.0737700313329696,-0.3939070403575897
4.35229443359375,0.2701995908891782,-0.5086581818636506,0.5769920787036419,0.0040433080866932,-0.0723737403750419,-0.3651542067527771
4.362322265625,0.3240569628808647,-0.3549897516852244,0.6380021354615688,0.0048719611950218,-0.0538054034113884,-0.340693712234497
4.381751708984375,0.483702750435844,0.0062249389294534,0.9072785105586052,0.0084044635295867,-0.0245617739856243,-0.3012256622314453
4.391779296875,0.5612818838745355,0.1165373164569027,0.9875696063697338,0.013885248452425,-0.0226395055651664,-0.2974247932434082
4.401807373046875,0.5644248580753803,0.1910057887954637,1.0240291592389346,0.0247999057173728,-0.017980033531785,-0.3060837984085083
4.41183544921875,0.5541988668110222,0.3182551812669262,1.0154834492117166,0.0429024770855903,-0.0053822160698473,-0.3284391760826111
4.42186328125,0.5511889078726991,0.4416146536277607,0.9767612121075392,0.0569006279110908,0.0081490334123373,-0.3477255403995514
4.4318916015625,0.5851448804231361,0.5154009341221303,0.9805804781347512,0.0706776902079582,0.0184093937277793,-0.3626442849636078
4.441919189453125,0.6388292339354753,0.5474180475644767,0.9247288270533084,0.0813420042395591,0.0278344191610813,-0.368699848651886
4.451947265625,0.6867098330724984,0.5749290817592293,0.8874503590166568,0.0893730297684669,0.0308922603726387,-0.3609926700592041
4.461975341796875,0.6951335972204804,0.5957806945974007,0.8687164324522018,0.0894446298480033,0.0279942136257886,-0.3507094085216522
4.47200341796875,0.6567230564139783,0.6063197703989223,0.8228764722973108,0.0796447321772575,0.02424474991858,-0.3479375839233398
4.482031494140625,0.5808842638365924,0.6048060048351064,0.7436439456284045,0.0686842277646064,0.0204756222665309,-0.3493212461471557
4.4920595703125,0.5370646670607849,0.6373342461373657,0.6531523583203553,0.0659110769629478,-0.0011116941459476,-0.3454447388648987
4.502087158203125,0.4939393726920709,0.670605889685452,0.4966203188717365,0.0636578649282455,-0.0054608318023383,-0.3490974307060241
4.512115478515625,0.3878344019928947,0.7332708740435541,0.4458382261395454,0.0599254481494426,-0.027713406831026,-0.3464023172855377
4.522143310546875,0.442395611405,0.7172626461159437,0.3918348332732915,0.055088959634304,-0.0524613298475742,-0.3383091390132904
4.532171630859375,0.4631380282476544,0.6825253139294684,0.3268056040018797,0.0512854345142841,-0.0898593068122863,-0.318656325340271
4.542199462890625,0.4598754462551325,0.6495500229794532,0.3219412128359079,0.0401281751692295,-0.1306862831115722,-0.2874615490436554
4.5522265625,0.4497471797442063,0.6382253497581929,0.3245879279524087,0.0288137346506118,-0.1523721367120742,-0.250539481639862
4.56225439453125,0.4239033846419304,0.6099176487604155,0.2846609912335872,0.0176665410399436,-0.1684616208076477,-0.2112373411655426
4.5722822265625,0.4703143130851909,0.5693230784457176,0.2753425432682037,0.0081792958080768,-0.1661840826272964,-0.1694502234458923
4.582310546875,0.4373447212236002,0.6116217857971787,0.2614209854215383,-0.0152638033032417,-0.1561238467693328,-0.1173965632915496
4.592338134765625,0.5981899111635982,0.680052055683732,0.277913855060935,-0.050401285290718,-0.1221874505281448,-0.0631093531847
4.602366455078125,0.3150014401679858,0.6638835956931114,0.142930215075612,-0.0905618891119957,-0.0431167110800743,-0.0385650806128978
4.612394287109375,0.2687893587650731,0.7041637297637761,0.1683107400476932,-0.1408482193946838,-0.0011839112266898,-0.0121324071660637
4.62242236328125,0.3789309280365705,0.7687018875826149,0.0733516519367694,-0.1887224614620208,0.0176157727837562,0.0129381138831377
4.632450439453125,0.3423864368302747,0.7448864930354059,-0.1677817477375268,-0.2113047391176223,0.0246710181236267,0.0132632860913872
4.642478515625,0.189255364931561,0.7022206328719854,-0.4128501487731933,-0.2121113985776901,0.018360435962677,-0.008748703636229
4.65250634765625,0.0693248075734823,0.7298430915519595,-0.6410878265172243,-0.2013168185949325,0.0071993949823081,-0.0390437580645084
4.662534423828125,-0.0039610125854611,0.7548883932203054,-0.7728893293350935,-0.1908243000507354,-0.0059369471855461,-0.0786746144294738
4.672562255859375,-0.0961843555895611,0.7231398675862699,-0.8804360963404179,-0.1844135522842407,-0.0467235259711742,-0.1218801438808441
4.682590576171875,-0.1105869384188204,0.6524390954844653,-0.97207860724926,-0.177575871348381,-0.1123032867908477,-0.1568809002637863
4.692618408203125,-0.1330525257922709,0.5652420562097803,-1.1058996331959965,-0.1532798558473587,-0.1643188297748565,-0.1826006472110748
4.702646484375,-0.2493943744760006,0.5213153823303058,-1.2594827597111462,-0.1145674809813499,-0.1822185665369033,-0.2121859341859817
4.71267431640625,-0.3314630013536662,0.472332776768133,-1.3629764519333838,-0.0803461298346519,-0.1813996434211731,-0.2464741319417953
4.722702392578125,-0.497463710893318,0.3577610795620828,-1.4285305818617342,-0.066478744149208,-0.1529515534639358,-0.2891500294208526
4.7327294921875,-0.5417747444478794,0.1627681025602854,-1.3639730617552994,-0.0805516839027404,-0.1403537392616272,-0.3163680732250213
4.742757080078125,-0.4548654360733926,-0.0274418596823699,-1.3863807083964348,-0.1042551025748252,-0.1371551901102066,-0.3339618742465973
4.752785400390625,-0.381840568405576,-0.253407811368443,-1.5226929666370153,-0.112129807472229,-0.1325378119945526,-0.3404434621334076
4.762813232421875,-0.2863224581724032,-0.4764932574484497,-1.6406407161474228,-0.1075565814971923,-0.1416495144367218,-0.3239874243736267
4.772841552734375,-0.090241302341409,-0.6768138044148683,-1.6384072580069302,-0.0991561710834503,-0.1736543178558349,-0.2787405848503113
4.782869384765625,0.1516388971121981,-0.846511687972024,-1.4990736061185597,-0.0986212715506553,-0.2264000177383422,-0.2177077531814575
4.7928974609375,0.3145313019055873,-0.9658186700716614,-1.2703700644284486,-0.1053366959095001,-0.2898343801498413,-0.1586843729019165
4.80292529296875,0.3705285720027983,-0.9776422327257692,-1.0099795910984275,-0.1057554855942726,-0.3477895855903625,-0.1149028316140174
4.812952880859375,0.3648666007183492,-0.8556085290759802,-0.7168827799528836,-0.0960205644369125,-0.3680921792984009,-0.0794423073530197
4.82298095703125,0.3864508021473884,-0.7257751114606857,-0.3872960207998752,-0.0846315547823906,-0.3659582138061523,-0.0417372696101665
4.833009033203125,0.5279754612740128,-0.6072426939301192,0.0094523034781217,-0.085794024169445,-0.3425836265087127,0.0033351315651088
4.843037109375,0.6398555813085287,-0.5348866289019585,0.4348679193139076,-0.1072051301598548,-0.3016593158245086,0.0386383719742298
4.85306494140625,0.5662212399728596,-0.4718813797388225,0.7810708822250366,-0.1414557844400406,-0.2374805957078933,0.0569175109267234
4.8630927734375,0.458023900104314,-0.4238604953482747,1.042909800797701,-0.1728557348251342,-0.1805944591760635,0.057264681905508
4.87312109375,0.3826655845202505,-0.3373443144772201,1.1364198591440915,-0.190318614244461,-0.1267541199922561,0.0525897704064846
4.88314892578125,0.3029713586237281,-0.2242200761331245,1.1373872428715228,-0.183159053325653,-0.0710992813110351,0.0404073484241962
4.893177001953125,0.1404714968118816,-0.1345516783088445,1.0736591593265532,-0.1476958692073822,-0.0078156497329473,0.0164902992546558
4.903204833984375,-0.0840703951541334,-0.077217862378247,0.963318377688527,-0.0986871048808097,0.0580310598015785,-0.0176718272268772
4.91323291015625,-0.2313639200057834,-0.0287395896090194,0.917056977251172,-0.0590467453002929,0.1056289374828338,-0.0512026250362396
4.923260009765625,-0.3163957075379788,0.0499398697543889,0.8841074783295393,-0.0347405187785625,0.1390562951564788,-0.0892186611890792
4.933287841796875,-0.4342478877194226,0.0125675128892064,0.7672983774602413,-0.0176739171147346,0.1495219767093658,-0.1394216418266296
4.94331591796875,-0.5219149921912699,-0.0938702334282919,0.6647428428709506,0.0004009124822914,0.1414017975330352,-0.1887653917074203
4.95334375,-0.5112148075439036,-0.230059997800365,0.5408966829717159,0.0205133706331253,0.1284854561090469,-0.2288259863853454
4.9633720703125,-0.5354230738662183,-0.3782128063624724,0.4806196166634559,0.0413543805480003,0.1225267499685287,-0.2562219798564911
4.97339990234375,-0.6123679279893637,-0.4958842962147667,0.4123755169987678,0.0674938410520553,0.1367933005094528,-0.2761938273906708
4.983427978515625,-0.693436657109484,-0.5638999574184418,0.3672223700642585,0.0821524932980537,0.158769205212593,-0.2811280190944671
4.9934560546875,-0.7088529835585504,-0.6505041088338941,0.3507897061794996,0.0802800208330154,0.1765143871307373,-0.2742218971252441
5.00348388671875,-0.6881042100403457,-0.7878392803814261,0.3237608294785022,0.0594925470650196,0.185842752456665,-0.2639967501163482
5.013511962890625,-0.6285195099104195,-0.9091478115618228,0.2874766331762075,0.02913224324584,0.1723668873310089,-0.2513222396373749
5.0235400390625,-0.5997603022854775,-1.0176426730722188,0.2004576904147863,0.0009015868417918,0.1333276182413101,-0.2402557432651519
5.03356787109375,-0.5278762386832386,-1.0865070235271006,0.0875800837755203,-0.0147801702842116,0.0746912136673927,-0.2193685621023178
5.04359619140625,-0.390237627209723,-1.123429809993878,0.0336065015256404,-0.0135649284347891,-0.0063493200577795,-0.1872362047433853
5.053623779296875,-0.247922986749187,-1.0904545190438628,0.0730365946382284,-0.0024571495596319,-0.0941231101751327,-0.1426753997802734
5.06365185546875,-0.1829050825893879,-0.9933778542570768,0.2421457915872335,0.0110337613150477,-0.1620813310146331,-0.1053060665726661
5.073679931640625,-0.1823261867228895,-0.8186040556751191,0.4947182846426963,0.0163403768092393,-0.1861142218112945,-0.0885393321514129
5.0837080078125,-0.2823048565614968,-0.6092287531808018,0.7477122179806232,0.0148922391235828,-0.1676533371210098,-0.0985310301184654
5.093736083984375,-0.3211128722529858,-0.4136108309473842,0.9756015206784008,0.0026169307529926,-0.1255804598331451,-0.1173518598079681
5.1037626953125,-0.2485672029368579,-0.2620739877038635,1.2034551675409078,-0.0192832257598638,-0.0778200477361679,-0.1413310319185257
5.113791015625,-0.248166951572895,-0.1426674359535798,1.2831804461628198,-0.0410383231937885,-0.0248007718473672,-0.1778126209974289
5.12381884765625,-0.2663249779455363,-0.0912158099293708,1.256980421501398,-0.052992358803749,0.0178058315068483,-0.2284193038940429
5.13384716796875,-0.2423191753927618,-0.0080632785388268,1.1953946106821298,-0.0530946217477321,0.0420725531876087,-0.2771982848644256
5.143875,-0.2353464137706905,0.1035325994605198,1.0972206521779295,-0.0412741005420684,0.0725762173533439,-0.3219903409481048
5.15390283203125,-0.2806470063518733,0.1558680225819349,0.9537906708866356,-0.0210410021245479,0.0916215479373931,-0.3752903044223785
5.163930908203125,-0.3245012725822627,0.1885221552861854,0.8446563424289226,0.0015501467278227,0.1066835299134254,-0.4347758591175079
5.173958984375,-0.3691325145345181,0.1983120749545283,0.7032131510406732,0.0286182500422,0.1127880290150642,-0.4866619706153869
5.183987060546875,-0.415172746501863,0.2023719813372008,0.5817424881011247,0.0537688881158828,0.1089851185679435,-0.534816324710846
5.19401513671875,-0.4565240169353783,0.2055967703362926,0.4721247600406408,0.0735764130949974,0.1082934960722923,-0.5744244456291199
5.204042724609375,-0.4787035539090633,0.152826225466933,0.3809410988152027,0.0855735018849372,0.1112776026129722,-0.60865718126297
5.214071044921875,-0.4722787815585732,0.1087636319817975,0.2904156092375516,0.0854770988225936,0.1257516145706176,-0.6294207572937012
5.224098876953125,-0.44013665349707,0.1010294757994823,0.2071416982233524,0.0703144371509552,0.1425483375787735,-0.6355448961257935
5.234126953125,-0.3506456945989281,0.0686197097777388,0.1403419521480798,0.0476882234215736,0.1518265157938003,-0.6435138583183289
5.244155029296875,-0.296127557143569,0.0044713732603937,0.0272878198981285,0.0225666221231222,0.1605044305324554,-0.6459112763404846
5.254182861328125,-0.2347615265548229,-0.0073174468738958,-0.0895692117661237,-0.0028601728845387,0.1582178324460983,-0.6450888514518738
5.2642109375,-0.1941394471786916,0.0125611014147289,-0.1535597456395626,-0.0280226487666368,0.1546506136655807,-0.6444413661956787
5.274239013671875,-0.1566626070257276,0.0703228604338131,-0.2254296345859766,-0.046572096645832,0.1463207751512527,-0.6446088552474976
5.284266845703125,-0.1683168409949168,0.1242692624158225,-0.2981815670639276,-0.058969248086214,0.129000037908554,-0.6560163497924805
5.2942939453125,-0.2059615850606933,0.2175610749016515,-0.3441717493444681,-0.0661677718162536,0.1014048978686332,-0.6770750284194946
5.304322021484375,-0.1911862599289044,0.2772154975332319,-0.3438280504733323,-0.0634732767939567,0.0660906359553337,-0.706221878528595
5.314349853515625,-0.1952728351227939,0.3171480968078598,-0.3325812647938728,-0.0597531013190746,0.0433618947863578,-0.7398067712783813
5.3243779296875,-0.1803274141211062,0.3888119417881593,-0.299876096022129,-0.0570537224411964,0.0333420149981975,-0.7788558602333069
5.334406005859375,-0.1843475364826619,0.4174378418896347,-0.2684206350505352,-0.0551232881844043,0.0256823357194662,-0.8151060938835144
5.34443408203125,-0.1629130457226187,0.4091656150415539,-0.2710965762615204,-0.0550362467765808,0.0272365622222423,-0.8461268544197083
5.3544619140625,-0.1191741860328242,0.3831270645521581,-0.2990302928477525,-0.0552040264010429,0.035002339631319,-0.8702979683876038
5.364489990234375,-0.1075752989800646,0.3694885614305734,-0.3239040373414755,-0.0569963790476322,0.0516818165779113,-0.8875271081924438
5.374517822265625,-0.1360414419425651,0.3778432058651,-0.3326923239529132,-0.0683262646198272,0.0677183046936988,-0.9062155485153198
5.384546142578125,-0.1522034721923992,0.3128442986667156,-0.3418430141359567,-0.0764626190066337,0.092051088809967,-0.922720730304718
5.394573974609375,-0.1386766127517446,0.2558581453963183,-0.3338333106815814,-0.0910868346691131,0.1122447699308395,-0.933780312538147
5.404601806640625,-0.1185626665383577,0.2046678554557263,-0.2904658781200647,-0.1093019321560859,0.1265270262956619,-0.9334639310836792
5.4146298828125,-0.0741152932530269,0.1262015091200359,-0.3006833207517862,-0.1263056695461273,0.1286666095256805,-0.930117666721344
5.424657958984375,-0.0376755775954574,0.0641078401101753,-0.308874810513854,-0.1331243962049484,0.1213080734014511,-0.9210780262947084
5.43468603515625,-0.0091348350267857,0.0677168974528089,-0.3222229523867368,-0.1324535459280014,0.1146539002656936,-0.9142443537712096
5.444714111328125,-0.0245785609394311,0.1768214518267661,-0.3273573926657438,-0.1385118663311004,0.129039466381073,-0.9160162210464478
5.454741943359375,-0.1429568108215928,0.2868850604912266,-0.3479623737990856,-0.1455998718738556,0.170466810464859,-0.9441088438034058
5.464768798828125,-0.3056692194055765,0.3195634508538991,-0.4445528625041246,-0.1592230200767517,0.2228211909532547,-1.0015828609466553
5.474797119140625,-0.4022506480213254,0.3013318112557753,-0.5667834039002657,-0.1785389184951782,0.2530701458454132,-1.0845779180526731
5.484824951171875,-0.4581382106663659,0.2165756257945671,-0.8168518051803112,-0.1953360438346862,0.2611853778362274,-1.1865029335021973
5.49485302734375,-0.5524836603909731,0.0967261343160644,-1.164610180839896,-0.1966343373060226,0.246145412325859,-1.294950246810913
5.504880859375,-0.574017519872263,-0.08739767641332,-1.4805027611613273,-0.174611210823059,0.2006868869066238,-1.3825998306274414
5.514908935546875,-0.408018856159225,-0.3351417263990268,-1.7143197003424169,-0.1375139057636261,0.1090746819972992,-1.4285547733306885
5.52493701171875,-0.1101691148655489,-0.6493995816580951,-1.761563682076335,-0.1027542725205421,-0.0276085250079631,-1.4252077341079712
5.534965087890625,0.2793651498477906,-0.9568770925946534,-1.560181862553954,-0.0710171163082122,-0.2062435150146484,-1.3827502727508545
5.544992919921875,0.6885917743615806,-1.2927534534111618,-1.2808861977458,-0.0375170409679412,-0.3696722388267517,-1.2866660356521606
5.555021240234375,1.0211601796738805,-1.426082311926782,-0.7814052287459373,-0.0185641255229711,-0.4888436496257782,-1.164549469947815
5.565048828125,1.1849797457821667,-1.3395743874274193,-0.1614782636791467,-0.0233341995626688,-0.5304722189903259,-1.0512166023254397
5.575076904296875,1.173218288578838,-1.1408804918147624,0.4682224919050932,-0.0625031739473342,-0.5058190822601318,-0.9748803377151488
5.58510498046875,1.0417064163573089,-0.9021825756590812,1.0350824681729078,-0.1269948482513427,-0.4297099709510803,-0.9347376823425292
5.595133056640625,0.938712490350753,-0.7368428873114288,1.5072148269981145,-0.1978671699762344,-0.3252818286418915,-0.923250377178192
5.6051611328125,0.8395474749825894,-0.5432260757673532,1.8145324711978437,-0.2590039372444153,-0.2031926214694976,-0.9246559143066406
5.61518896484375,0.7400916599743068,-0.3446245346132666,1.8694792823940516,-0.2879812717437744,-0.0608711540699005,-0.9383869171142578
5.625216796875,0.5868816045552492,-0.2320097436286509,1.7891642211854455,-0.2910813987255096,0.0748575031757354,-0.9665698409080504
5.6352451171875,0.4501956176314503,-0.197175892265141,1.6278694973796606,-0.2652031779289245,0.178300529718399,-1.0039499998092651
5.64527294921875,0.3969241923015564,-0.2099975991111248,1.3296236329078674,-0.2156760394573211,0.2420257776975631,-1.045970797538757
5.6552998046875,0.3324664062425494,-0.2433484819078817,1.007058150693774,-0.1432511061429977,0.2681884169578552,-1.088721752166748
5.665327880859375,0.2775084891304373,-0.2964393265064806,0.6852309196263552,-0.0505636483430862,0.2753427922725677,-1.1259019374847412
5.67535595703125,0.2768224796276539,-0.302266023365967,0.4218219752579927,0.0342441797256469,0.2635015845298767,-1.1496515274047852
5.685384033203125,0.2816215504724532,-0.2968389568159356,0.3306581877768039,0.0909478068351745,0.2415105998516082,-1.1716389656066897
5.695412109375,0.2105126359611749,-0.3701987920591607,0.2511959440052509,0.1194244548678398,0.2305916398763656,-1.1950089931488037
5.705440185546875,0.1228476138485595,-0.494060039929673,0.1564279945522546,0.1303812861442566,0.2188142985105514,-1.2066730260849
5.7154677734375,0.1653986885258928,-0.5671325461314991,0.0553764347851276,0.1260089129209518,0.1989788115024566,-1.201535701751709
5.72549609375,0.2847129406165331,-0.6318316301330924,-0.0818482621252536,0.1155835688114166,0.1542036682367324,-1.1731622219085691
5.73552392578125,0.3926691286729648,-0.7240276832714676,-0.2176794588506221,0.108240433037281,0.0834653228521347,-1.1237916946411133
5.745552001953125,0.5589721090948209,-0.7957779644262045,-0.2854495112627744,0.1015623286366462,0.0011416347697377,-1.044480562210083
5.755580078125,0.730327441002801,-0.7725469456382096,-0.2451163318306207,0.0937843024730682,-0.0906045287847518,-0.9489593505859376
5.76560791015625,0.834536588018015,-0.6812513484708964,-0.0666419251650571,0.0712078884243965,-0.1752291768789291,-0.8545410633087158
5.775635986328125,0.8887633413113654,-0.5383099544141441,0.1983212629079818,0.0435094125568866,-0.250904768705368,-0.7787249088287354
5.7856640625,0.8512852590493858,-0.3362576517516747,0.4742687863320112,0.0200684890151023,-0.2996502816677093,-0.7353530526161194
5.79569189453125,0.79072754916884,-0.06637847018959,0.7157809561908245,0.0094739012420177,-0.304417610168457,-0.7188329100608826
5.80572021484375,0.7595866340391337,0.2087380640367045,0.8863017735034227,0.015750702470541,-0.2887696027755737,-0.7171523571014404
5.815748779296875,0.7963871823657304,0.4572166753746569,1.0463678322970866,0.039391852915287,-0.248190239071846,-0.7195718288421631
5.8257763671875,0.8413475101418793,0.6563594837985932,1.2390946361988782,0.0616935230791568,-0.1917375922203064,-0.7354443073272705
5.835803466796875,0.8280399194750935,0.8010215641681104,1.3117162202954291,0.0765110850334167,-0.1178119629621505,-0.7509505748748779
5.845831787109375,0.904543021180108,0.9003108635030687,1.3929723617464302,0.072841115295887,-0.0473086647689342,-0.7559927105903625
5.855859619140625,0.9619634559482336,0.9403218983087688,1.4495429747521875,0.0495033003389835,0.0107333315536379,-0.7581447958946228
5.865887451171875,1.005691173189506,0.898908084033057,1.356662446480989,0.0204597041010856,0.0533933155238628,-0.7550600171089172
5.87591552734375,1.038208929630369,0.8613462690103798,1.2307570159643888,-0.0015443973243236,0.0785170421004295,-0.7491313219070435
5.885943603515625,0.9927325420908628,0.9167385589517651,1.0271657036989927,-0.0113683491945266,0.0952919945120811,-0.7471454739570618
5.8959716796875,0.8916629352103919,0.9860356748007236,0.793241212490201,-0.0128629151731729,0.0950429886579513,-0.758934497833252
5.905999755859375,0.7949495507780462,1.040523782444,0.6200321790069341,-0.0062925857491791,0.0884917825460434,-0.7780188918113708
5.91602734375,0.7697103339727968,1.03321798947528,0.4195546148478984,-0.002621151972562,0.0808130800724029,-0.8046614527702332
5.9260556640625,0.7684086767897009,0.9847997032649816,0.2686281403213739,-0.0040559307672083,0.0554376281797885,-0.825856626033783
5.93608349609375,0.8390377718947827,0.8740770827025175,0.1919803694486618,-0.0060341265052556,0.0174771938472986,-0.8344224095344543
5.946111572265625,0.924090967541188,0.7584959161929786,0.114874917936325,-0.0115766562521457,-0.0247549060732126,-0.8325202465057373
5.9561396484375,0.9456240233048796,0.622891367830336,0.0423930345714092,-0.0166718177497386,-0.0656120553612709,-0.8156827092170715
5.966167724609375,0.9400338751476256,0.5507652391005307,0.0117553197234868,-0.0171830970793962,-0.1148201823234558,-0.7891208529472351
5.976195556640625,0.9670008655935526,0.5637376795288175,0.0409358215004205,-0.0268138870596885,-0.1482654958963394,-0.750939130783081
5.9862236328125,0.9601499037202448,0.5452473889945074,0.1225198797315359,-0.047867327928543,-0.1708306223154068,-0.7154003381729126
5.99625146484375,0.8836302892718464,0.5615129161514342,0.1753033754140138,-0.0697539895772934,-0.1876157224178314,-0.6886478066444397
6.006278564453125,0.9114606916140764,0.5738964873084799,0.1898106241941451,-0.0975693762302398,-0.1823620200157165,-0.6594449281692505
6.016306396484375,0.8940714576568454,0.6495109330780804,0.217177939069271,-0.1263293921947479,-0.1688358187675476,-0.6382094621658325
6.02633447265625,0.8403682167809456,0.6818479261245578,0.1688970155030489,-0.1468121111392974,-0.1464714705944061,-0.6234967708587646
6.036362548828125,0.809351950944215,0.7024092873118818,0.0890209302335977,-0.158634677529335,-0.1274112313985824,-0.6167933344841003
6.046390625,0.765210538335517,0.7619102546811103,0.0165764562696218,-0.1620272845029831,-0.1109182238578796,-0.6130130887031555
6.056418701171875,0.6706860422495752,0.7909054630190133,-0.0974567501455545,-0.1479071974754333,-0.0872528403997421,-0.6196100115776062
6.0664462890625,0.5690304521746933,0.758195910333097,-0.219339501017332,-0.1200181767344474,-0.0642791911959648,-0.6270079612731934
6.076474609375,0.4983179165698587,0.7254719637956469,-0.3245271376758813,-0.0950608924031257,-0.0439155958592891,-0.6326658725738525
6.08650244140625,0.4481541018664837,0.6464435813967138,-0.4224345541983842,-0.0788602232933044,-0.0217723213136196,-0.6316900253295898
6.09653076171875,0.38080154421404,0.5317308682847768,-0.4983224466145038,-0.077614925801754,-0.0115252770483493,-0.6257908344268799
6.10655859375,0.3233253606706857,0.4729817056635394,-0.5573153183311224,-0.1024667024612426,-0.0175678245723247,-0.6105729341506958
6.116586669921875,0.3349453635767102,0.416381610834971,-0.6100707569628954,-0.1344424784183502,-0.0413951240479946,-0.5949777364730835
6.126614501953125,0.3221295019496232,0.3668701956257224,-0.6647434273928403,-0.1610559821128845,-0.0896921306848526,-0.578544020652771
6.136642578125,0.2883238976553082,0.3748149075524881,-0.7472387552499771,-0.1806946694850921,-0.1092969924211502,-0.559866726398468
6.146670654296875,0.1410343183264136,0.4831433995200321,-0.8361497953683137,-0.1759767383337021,-0.1083961054682731,-0.5497138500213623
6.15669873046875,0.0014520985044538,0.5944853575572371,-0.8727771060198545,-0.1530008614063263,-0.0987221747636795,-0.5509964227676392
6.1667265625,-0.0611202391341328,0.6567149461727589,-0.9255220232576132,-0.1297619193792343,-0.0790516957640647,-0.5717304944992065
6.176754638671875,-0.1384405755061656,0.6430998969919979,-0.9408873501718044,-0.1140628606081008,-0.0950572937726974,-0.612113356590271
6.186781494140625,-0.1658370434105396,0.5828801868941634,-0.9276157806664704,-0.105221077799797,-0.0839584991335868,-0.6657708287239075
6.1968095703125,-0.2729616394810378,0.5928079258643091,-0.9932786316663026,-0.0942773520946502,-0.0904100090265274,-0.7211571335792542
6.206837646484375,-0.1664608743973076,0.488869777810201,-1.0216086540937424,-0.0804291814565658,-0.0984450280666351,-0.7685528993606567
6.216865478515625,-0.0471918131552636,0.3344036944480613,-1.1850982575953006,-0.0677575916051864,-0.1073423847556114,-0.8107299208641052
6.2268935546875,0.0796552090603858,0.1550415999614633,-1.2198895849913358,-0.0561205521225929,-0.1300225108861923,-0.8293498754501343
6.23692138671875,0.2716177505914122,-0.101760657884553,-1.182121287611127,-0.0587674677371978,-0.1690202355384826,-0.8108550310134888
6.24694970703125,0.5159718658778816,-0.315489114087075,-0.9872311681956052,-0.0821460336446762,-0.2261087298393249,-0.7546560168266296
6.2569775390625,0.7180307078789919,-0.4621742977820336,-0.7171154196649789,-0.1166097298264503,-0.2850077152252197,-0.689041018486023
6.267005859375,0.7590398868765682,-0.5372239127431064,-0.3929389951229095,-0.1551099866628646,-0.312510997056961,-0.6340014934539795
6.277033447265625,0.6064511782262474,-0.5037830135753378,-0.0477419943839311,-0.1848295331001281,-0.2883912622928619,-0.5987985134124756
6.2870615234375,0.4699640748754143,-0.4100845199847593,0.2521919693052769,-0.2010940313339233,-0.2267855256795883,-0.5744238495826721
6.297089599609375,0.4128321016598492,-0.3259738293528557,0.5482803634822369,-0.2136479020118713,-0.1243047043681144,-0.5544424057006836
6.30711767578125,0.3598946575246751,-0.313175430317223,0.7002081240057945,-0.2167924791574478,0.0041991607286036,-0.5305406451225281
6.317145751953125,0.4287627343066036,-0.3292811272699386,0.9149386699229478,-0.2311088293790817,0.0928824245929718,-0.4965507388114929
6.327173583984375,0.5305764375526457,-0.4417964034028351,0.9766524910360574,-0.2480323761701584,0.1588384807109832,-0.4692387878894806
6.337201416015625,0.5371393031995744,-0.5899470200078561,0.8530150054514407,-0.2562178671360016,0.1878416389226913,-0.4556697309017181
6.3472294921875,0.5016006645675748,-0.648217751462385,0.7482891410857438,-0.2491877377033233,0.1857291013002395,-0.4369383156299591
6.357257568359375,0.4537259837146848,-0.5969573371613398,0.6410381421566009,-0.2275508940219879,0.1688518524169922,-0.4253530502319336
6.367284423828125,0.3808936064116656,-0.5790126247458159,0.5565191995173693,-0.1938691884279251,0.1528297513723373,-0.4279589354991913
6.3773125,0.2647714648932218,-0.5914633428549394,0.5345119503706693,-0.1562464386224746,0.1448091119527816,-0.453684538602829
6.387340576171875,0.1449670546654611,-0.5784398663591593,0.5604349116563797,-0.1166687160730362,0.159980222582817,-0.4908116161823272
6.39736865234375,0.0563989097006618,-0.5568681590855121,0.6197112764894962,-0.0866639465093612,0.1929403096437454,-0.5351862907409668
6.407396484375,-0.0880229321721941,-0.5619109390256926,0.6258820740789175,-0.0558977797627449,0.2264298200607299,-0.6063475608825684
6.4174248046875,-0.3108092857077718,-0.6206400817722082,0.4717418982028961,-0.0099007254466414,0.2656789422035217,-0.6969669461250305
6.427452392578125,-0.4246303106769919,-0.6797939162041992,0.2364531329035759,0.0537154898047447,0.2906664907932281,-0.7811504006385803
6.437480712890625,-0.4442075561977923,-0.720010337388888,0.0083668463289737,0.1196508258581161,0.3118727207183838,-0.8462170362472534
6.447508544921875,-0.4686448089703917,-0.7801226415894925,-0.2102647986799478,0.1633540093898773,0.3265955746173858,-0.8809767365455627
6.45753662109375,-0.4619811132974922,-0.91841065688245,-0.3418558736175298,0.1813814789056778,0.3296222686767578,-0.8926088809967041
6.467564697265625,-0.3353197498470545,-1.120592467676103,-0.4134124588310718,0.1622145324945449,0.2510292828083038,-0.8711773753166199
6.477592529296875,0.0093953125938773,-1.287610391434282,-0.5433487522989511,0.1235622093081474,0.213866725564003,-0.819303035736084
6.48762060546875,-0.024453400189802,-1.3545778952918943,-0.740664637556672,0.1035690680146217,0.1558432728052139,-0.718891441822052
6.497648681640625,0.2919409191086888,-1.3579406497232616,-0.5661404298216104,0.0878236591815948,0.0512582771480083,-0.580744206905365
6.507676513671875,0.6854157016087323,-1.2686246820658444,-0.5389864654362201,0.0650532767176628,-0.0226899739354848,-0.4389611780643463
6.51770458984375,0.6775385384928435,-1.066060813152045,-0.2558031455397606,0.0275397226214408,-0.0866705551743507,-0.3486627340316772
6.527732666015625,0.4648422018170356,-0.7615427365429699,0.1312146428406238,-0.0160073097795248,-0.0914272889494896,-0.317858874797821
6.537759521484375,0.2766936656162143,-0.399648794959858,0.3357534650892019,-0.0532550811767578,-0.0483599826693534,-0.3280127048492431
6.54778759765625,0.2589453890882432,-0.062802913257759,0.5349556024849415,-0.0743259638547897,0.0015324256382882,-0.3494837284088135
6.557815673828125,0.3795112852077931,0.1991118835627101,0.6723959879726171,-0.0784165784716606,0.0639233663678169,-0.372531533241272
6.56784375,0.4289952278882264,0.3665967124465852,0.6959294237732887,-0.0726451128721237,0.1232860386371612,-0.4136970639228821
6.577871337890625,0.3314301219973713,0.4578989950830117,0.7098311078757047,-0.0544304251670837,0.1756842583417892,-0.4779213070869446
6.587899658203125,0.2408601356908679,0.5638530495367944,0.682028908714652,-0.0305001866072416,0.2239084541797638,-0.5524219870567322
6.597927490234375,0.2856752828426659,0.6316104616630822,0.6253992589980364,-0.0098867882043123,0.2448427677154541,-0.6204468607902527
6.607955810546875,0.2549126264408231,0.6108619073405861,0.5554004246205091,0.0160920806229114,0.2436674684286117,-0.6924053430557251
6.617983642578125,0.2157875076241791,0.5126246012765914,0.4309130442082882,0.0489797256886959,0.2344249635934829,-0.7527046203613281
6.628011474609375,0.2313444846529513,0.4240186815846711,0.3552005083590746,0.0851581022143364,0.2340461462736129,-0.784260630607605
6.63803955078125,0.2850575893357396,0.3405976537173614,0.3338759807795286,0.1112429648637771,0.2431206107139587,-0.7821530103683472
6.648067626953125,0.3651100540854036,0.2607213675185106,0.378154098445177,0.1107137948274612,0.2577115893363952,-0.7578350901603699
6.658095703125,0.3519836652044206,0.1743470976024866,0.4540232861608266,0.0821625739336013,0.2772469520568847,-0.7289350032806396
6.66812353515625,0.2103951470613479,0.1216837211683392,0.4803337854593992,0.033792071044445,0.2946624457836151,-0.7092818021774292
6.6781513671875,0.0674256228886544,0.0767947963942773,0.4479840059965849,-0.0150409815832972,0.2870897650718689,-0.701606273651123
6.688179443359375,-0.0252957692980766,0.0851836718919687,0.3314046222299337,-0.0420905761420726,0.2589861154556274,-0.6939099431037903
6.69820654296875,-0.0503705893218517,0.0853596129807643,0.1850397565305233,-0.0310669522732496,0.2163073569536209,-0.6837835907936096
6.708234619140625,-0.0848395528957247,0.0705734376613982,0.0477986930072307,0.0074216271750628,0.1651227325201034,-0.6674954295158386
6.7182626953125,-0.0207392750374972,0.0928449637674726,0.0186783969849348,0.0512447394430637,0.1276496648788452,-0.6367782950401306
6.72829052734375,-0.0101858784496784,0.1584550616667605,0.1253045420140028,0.0761703699827194,0.107843168079853,-0.6037391424179077
6.738318603515625,-0.0705033498335629,0.218746868886426,0.2960457240790128,0.0755040496587753,0.0955273807048797,-0.579587459564209
6.748346435546875,-0.1394895731024444,0.2395598850135691,0.453946129271388,0.0621224232017993,0.0791952610015869,-0.5677146315574646
6.758374755859375,-0.1782911225205287,0.2591315227774903,0.4870820906758308,0.058715708553791,0.0680179744958877,-0.5608412623405457
6.768402587890625,-0.1997166993217542,0.3427570602409541,0.4608025710374117,0.0678816884756088,0.0757657513022422,-0.5485225915908813
6.7784306640625,-0.2010743610084056,0.4773511894520372,0.4802466916978359,0.0776837170124054,0.0974015370011329,-0.5317643880844116
6.78845849609375,-0.240400628420338,0.5535677658332512,0.4883054949909448,0.0758182555437088,0.1288931667804718,-0.5105136632919312
6.798486572265625,-0.1570629679875448,0.61108088385351,0.5176929175168276,0.0558695867657661,0.1388043761253357,-0.4785352349281311
6.8085146484375,-0.2717824031012132,0.6508446658998728,0.4490039966940879,0.0252881087362766,0.1819259077310562,-0.4689123630523681
6.818542724609375,-0.485173955499567,0.6707748895768075,0.4206850801825523,-0.0058977743610739,0.2001523226499557,-0.464959442615509
6.828571044921875,-0.3228823296109214,0.7219017771586775,0.3986971202582121,-0.0346683003008365,0.1785507798194885,-0.4493226408958435
6.8385986328125,-0.1852902241602539,0.7533630833491682,0.2119458836346864,-0.0424383394420146,0.1423616260290146,-0.4367836713790893
6.848626708984375,-0.2304885254107415,0.8090678733058273,0.133715227484703,-0.0492626018822193,0.0977773144841194,-0.4380349516868591
6.85865478515625,-0.3595772256059572,0.8990732114668935,-0.0356038128226995,-0.0443187095224857,0.0894863605499267,-0.4448241591453552
6.868681884765625,-0.531241915724054,0.9969973599284888,-0.1380436120778322,-0.036264069378376,0.0930812060832977,-0.4634325206279754
6.878709716796875,-0.5885203847382218,1.021737029713765,-0.121790396413207,-0.0336882583796978,0.1015476584434509,-0.4892603754997253
6.88873779296875,-0.5137701180499047,1.0355094614133238,-0.1852367404073476,-0.0315109454095363,0.1239895895123481,-0.5075852870941162
6.898765869140625,-0.4322149205870926,1.006082875920832,-0.2427946108847856,-0.0255819521844387,0.1306932866573333,-0.5238265991210938
6.9087939453125,-0.3723317489672452,0.927081162333116,-0.2838888378173113,-0.019161470234394,0.130201444029808,-0.5298188924789429
6.91882177734375,-0.278239981742762,0.8886031823135911,-0.3215630271732807,-0.0207284744828939,0.1269433349370956,-0.5194578766822815
6.928849609375,-0.1956230733325704,0.8979772329237311,-0.3250046920597553,-0.0272506009787321,0.1265948563814163,-0.5153294801712036
6.938877685546875,-0.258070907808654,0.9043959408596156,-0.4015647846490144,-0.03019898571074,0.1694802641868591,-0.5278229117393494
6.94890576171875,-0.4577489190878346,0.9437022614620626,-0.5442267041772604,-0.0351564213633537,0.248736172914505,-0.5738458037376404
6.958933837890625,-0.7217037703685462,1.0341397804953156,-0.7442711376160382,-0.0482653006911277,0.3379606008529663,-0.6454576253890991
6.968961669921875,-0.9459237369038164,1.0262621789880095,-1.0529700070410966,-0.0544002391397953,0.4113993644714355,-0.7432649731636047
6.978989990234375,-1.1430002604477107,0.8844837642960249,-1.4350216974467038,-0.0414191931486129,0.4223329722881317,-0.8448070883750916
6.989017578125,-1.0772109335239977,0.672653762125969,-1.8655787678241729,-0.011935781687498,0.3774559795856476,-0.9186508059501648
6.9990458984375,-0.7757859275594353,0.3531498229069635,-2.173226082369685,0.0314260758459568,0.2599852979183197,-0.9547467231750488
7.00907373046875,-0.3606041940335184,-0.0430899033949244,-2.297830951681733,0.0714363455772399,0.0774318799376487,-0.944429874420166
7.019101806640625,0.1124576459278352,-0.4530775297433138,-2.1233026522934435,0.095303326845169,-0.1418938189744949,-0.8833345770835876
7.0291298828125,0.5562205088317393,-0.817007726394385,-1.6947592598259449,0.0981151387095451,-0.352635383605957,-0.7740347981452942
7.03915673828125,0.9084380558572708,-1.043858772085607,-1.1032751299113035,0.0770769640803337,-0.4859447181224823,-0.6378375291824341
7.049184814453125,1.0686532407980411,-1.055647409556806,-0.3672650401622057,0.0252979174256324,-0.5393521785736084,-0.5104234218597412
7.059212890625,1.0315404116518796,-0.8970690320376307,0.3784387606054544,-0.0475874729454517,-0.4929548501968384,-0.4182120561599731
7.069240966796875,0.90617120690383,-0.7013365435138345,0.947668973135948,-0.1313271075487136,-0.3954860866069793,-0.3638215065002441
7.0792685546875,0.8991400661580264,-0.5069252936564386,1.37396838606894,-0.205364316701889,-0.293636679649353,-0.3279540538787842
7.089296630859375,1.0114008560732006,-0.3834741974893957,1.5763468154132363,-0.2494110465049743,-0.1861253380775451,-0.3064504861831665
7.09932470703125,0.9932011825159192,-0.2637229056883603,1.577679525321722,-0.2541360259056091,-0.0685286819934845,-0.2980215847492218
7.109352783203125,1.016114732852578,-0.1265868734421208,1.5391899279296395,-0.2342908233404159,0.0307543408125638,-0.2920598983764648
7.119380859375,1.0237738693036138,0.0104558727637864,1.4961398907542227,-0.2105527371168136,0.1059308499097824,-0.3007609844207763
7.129408935546875,0.9045313307423144,0.0942591962132602,1.3955886817246674,-0.1962021589279174,0.1539237350225448,-0.3415673971176147
7.1394365234375,0.6945008522748947,0.1048637384664267,1.225586919850111,-0.1793970763683319,0.1794522553682327,-0.4173814654350281
7.14946484375,0.4606456269100308,0.0934066345045343,0.9488146360397338,-0.1426793783903122,0.1891399323940277,-0.5156851410865784
7.15949267578125,0.3096486444305628,0.1025218332490883,0.6443062040418386,-0.0781586989760398,0.191356211900711,-0.6017286777496338
7.16952099609375,0.2710436770305037,0.0671366498794406,0.3197574390560388,0.0043561486527323,0.1916983872652053,-0.668783962726593
7.179548828125,0.2668938273420557,-0.0377644614553079,0.117182025834918,0.081077829003334,0.1898847669363021,-0.7149064540863037
7.18957666015625,0.2170467504376545,-0.1599596392771229,0.0137801035493612,0.1280794739723205,0.1906166076660156,-0.7491975426673889
7.199603759765625,0.1427720653718337,-0.3530857812274247,-0.0509913515686988,0.1485282778739929,0.1862207949161529,-0.7646087408065796
7.2096318359375,0.1156106483323499,-0.5457909578192979,-0.1267448039501905,0.1455415487289428,0.1755490601062774,-0.758642315864563
7.219659912109375,0.1614674317578785,-0.7423824012599886,-0.2174514953136443,0.1252107173204422,0.1406784355640411,-0.7171584963798523
7.2296875,0.3023770459923893,-0.9056101389549672,-0.2830827821314334,0.1005816161632537,0.0774906277656555,-0.640872061252594
7.2397158203125,0.5101313231561333,-1.042397978818044,-0.3111328185737133,0.0818614587187767,-0.0211099851876497,-0.5337184071540833
7.24974365234375,0.6894168270088732,-1.1096109088040889,-0.2622749719023704,0.0650608241558075,-0.119088739156723,-0.4064712822437286
7.259771728515625,0.7655596440341323,-1.024747098249942,-0.0645265404462814,0.0424292795360088,-0.2002752125263214,-0.2868708372116089
7.2697998046875,0.6930256651557981,-0.841461784171313,0.247111305040121,0.017766810953617,-0.2616085410118103,-0.2057633697986602
7.279827880859375,0.5491029684441164,-0.6105018783891574,0.5007341839313507,0.0010916939936578,-0.2961284220218658,-0.1675949394702911
7.289855712890625,0.4571924907814711,-0.3392352427903563,0.7482090615868568,0.0016624538693577,-0.30192431807518,-0.1575876921415329
7.2998837890625,0.4128904807835817,-0.0701097108734771,0.9321551776617764,0.0278168264776468,-0.3050482273101806,-0.1603054404258728
7.30991162109375,0.4785937368590384,0.1566884903856553,1.1256149720132351,0.0521037019789218,-0.3004621565341949,-0.167815089225769
7.31993994140625,0.517727733101882,0.3555988234942778,1.2676748339951038,0.0803603678941726,-0.2486524730920791,-0.1821136027574539
7.3299677734375,0.4735958920391276,0.4934176138402893,1.3670301112383605,0.1016810610890388,-0.1836018413305282,-0.1859778314828872
7.339995849609375,0.6205830908879637,0.5698861191559582,1.5287538741111757,0.1064140349626541,-0.1238096207380294,-0.1764868646860122
7.350023681640625,0.7536926806297153,0.6297049933679402,1.5747814657926558,0.0890227481722831,-0.0586722791194915,-0.1682240962982177
7.360051025390625,0.7160457446068524,0.6522397735200822,1.57156601087749,0.0584459267556667,0.0033490152563899,-0.1704550236463546
7.370078857421875,0.6527747571796179,0.7153978020921349,1.4740519775867462,0.0317162238061428,0.0579937919974327,-0.182662084698677
7.38010693359375,0.6949056336835027,0.7754189939431846,1.3176280746877194,0.0112042911350727,0.090256929397583,-0.1922643780708313
7.390134765625,0.7529033568829298,0.8222467230264097,1.1222428652316332,0.0054621612653136,0.1025808081030845,-0.2000720202922821
7.40016259765625,0.7665087614525109,0.8561441703226417,0.9175824624300004,0.0075436881743371,0.0970435664057731,-0.2099139988422393
7.41019091796875,0.7098004204764962,0.9046964581761509,0.7520704131901264,0.0143046109005808,0.0835666880011558,-0.2330841869115829
7.42021875,0.64110989221856,0.9499241316515952,0.6220774210989475,0.0168636422604322,0.0555542297661304,-0.2632277011871338
7.430246826171875,0.5644152499968186,0.9644745619863272,0.5335369678586721,0.0185829810798168,0.023927379399538,-0.2988993227481842
7.440274658203125,0.4430980605859309,0.926405381963402,0.3932634047716856,0.0291773006319999,0.0084610702469944,-0.3386030495166778
7.450302734375,0.3465572562415152,0.8955057282436638,0.2498018592983484,0.0433884598314762,-0.0028333473019301,-0.3688253164291382
7.460330810546875,0.3652805152814835,0.8753281056769192,0.1331885732620954,0.0583255998790264,-0.0286830533295869,-0.380001813173294
7.47035888671875,0.4266554232964292,0.8140230845604092,0.0484656324833631,0.0748087018728256,-0.0633646994829177,-0.3700769245624542
7.48038671875,0.4765020983420312,0.6808145644888282,-0.011758826854825,0.0838466733694076,-0.1065015196800232,-0.3415390253067016
7.490414794921875,0.5110125264374539,0.5900398493904621,0.0098059392213821,0.0816223546862602,-0.1446473002433776,-0.2971252202987671
7.500442626953125,0.5069576250234619,0.5080689837988466,0.0300146145135164,0.0680588707327842,-0.1590100079774856,-0.2429338842630386
7.510470947265625,0.4736510928250849,0.4407307469327002,0.107340430778265,0.0411377772688865,-0.1482565850019455,-0.1791419386863708
7.520498779296875,0.4569655866904183,0.4088172399953007,0.1858119099467992,0.0028367303311824,-0.111808568239212,-0.1065633296966552
7.530526123046875,0.4139531050464138,0.4486771758925169,0.2085351984083652,-0.0485756397247314,-0.0649838671088218,-0.0373657457530498
7.5405537109375,0.3541877511199564,0.4873008114604279,0.1928688427209854,-0.100355751812458,-0.0276889614760875,0.0155613822862505
7.55058154296875,0.3134590695641934,0.4829769934445619,0.0648188013911247,-0.1394359618425369,-0.0061797085218131,0.05104286596179
7.56060986328125,0.2602642896670848,0.5486436438366771,-0.064819970434904,-0.1589239090681076,0.0040979627519845,0.0702189579606056
7.5706376953125,0.2245957410451024,0.621905352467671,-0.2075000101417303,-0.1613216251134872,-0.0023459321819245,0.0755399987101554
7.580666015625,0.2187626875100657,0.6546891394335776,-0.3080851214408874,-0.1543598473072052,-0.0254600401967763,0.0725338235497474
7.590693603515625,0.2657874735353514,0.6305139716632664,-0.362618675661087,-0.1448646634817123,-0.0617282502353191,0.0656134337186813
7.6007216796875,0.3169907142890617,0.5820977312795818,-0.3552098607093095,-0.1342024356126785,-0.0737401619553566,0.0562215335667133
7.610749755859375,0.275672578940168,0.6111242846038192,-0.369054846188426,-0.1332475244998932,-0.0584378503262996,0.04161287099123
7.62077783203125,0.2754762526504695,0.62916431061998,-0.3513777352005243,-0.1403384506702423,-0.0326933413743972,0.0281585827469825
7.630805908203125,0.3458968561040237,0.6091542266398668,-0.4006231198847294,-0.1636844724416732,-0.0049550258554518,0.0163794830441474
7.640833740234375,0.4740346853151917,0.5728835474062711,-0.4284259035676717,-0.2105374634265899,0.0107706747949123,0.0161738879978656
7.650861572265625,0.5675729103101417,0.5342752190053462,-0.4381611156404018,-0.2683841586112976,0.0266400799155235,0.0120074283331632
7.660889892578125,0.4651869966667145,0.5298724540017545,-0.5011100315064192,-0.323418915271759,0.0482311248779296,0.001202983316034
7.670917724609375,0.4132796627642586,0.5532275375608354,-0.6862099937915802,-0.3620854318141937,0.0899609327316284,-0.0209338665008544
7.680945068359375,0.1104222859090194,0.5464711221031844,-1.15063426245749,-0.350997120141983,0.167921245098114,-0.085083819925785
7.69097265625,-0.1190339373119175,0.5746849342724308,-1.408698923188448,-0.3346085250377655,0.1806949377059936,-0.1549023687839508
7.701000732421875,-0.0364781114391982,0.6009220760738476,-1.5554004734963178,-0.3091974258422851,0.1601252108812332,-0.2305870056152343
7.71102880859375,-0.1322444973450154,0.3802545047905296,-1.8856822291761637,-0.2552526593208313,0.1153609976172447,-0.329940915107727
7.721056640625,-0.2492867493830621,0.1129713128047063,-2.076943636700511,-0.1835473030805587,0.0313036404550075,-0.4270325899124145
7.7310849609375,-0.120940245857276,-0.1322847562901675,-2.1386907755613325,-0.1045969575643539,-0.081375665962696,-0.4892589747905731
7.741112548828125,0.0817470302404835,-0.3968567896211519,-2.0832745932877064,-0.0338373072445392,-0.2066531479358673,-0.5046842694282532
7.751140869140625,0.2580782873975112,-0.6726141607679427,-1.7928186520397662,0.005188388749957,-0.3349022567272186,-0.4774415791034698
7.761168701171875,0.4445530451672151,-0.913137611850351,-1.3010977956473826,0.0074869627133011,-0.4172666370868683,-0.4225977957248688
7.77119677734375,0.5010573514711112,-1.0502136940702795,-0.7056348252296447,-0.0232025049626827,-0.4419287443161011,-0.3441746532917022
7.781224853515625,0.4920224696874618,-1.0095262943729757,-0.1355260762989521,-0.0713095813989639,-0.4286904335021972,-0.2497781217098236
7.791252685546875,0.5205396852500737,-0.892721431287378,0.3790916715562343,-0.1293527334928512,-0.390976071357727,-0.1600183993577957
7.80128076171875,0.31374066298455,-0.732966922660917,0.6793038676649331,-0.1663461625576019,-0.2868025302886963,-0.0937770679593086
7.811308837890625,0.0240218038395047,-0.5334161179579794,0.939653424462676,-0.1734506785869598,-0.1946718543767929,-0.0524459667503833
7.821336181640625,-0.162838665312156,-0.3467907362038269,1.1389397330105304,-0.1589937061071396,-0.1191683113574981,-0.0363415665924549
7.831364013671875,-0.3548893235180527,-0.2189274496177211,1.185630757036805,-0.13068488240242,-0.049265656620264,-0.0481244511902332
7.841391845703125,-0.4985825588554143,-0.184581162575446,1.1847644955962895,-0.0898972526192665,0.0029309694655239,-0.0740335434675216
7.8514189453125,-0.6240913182046264,-0.1940128251243382,1.1647265006959435,-0.0360154621303081,0.0390606857836246,-0.096055082976818
7.86144677734375,-0.6410984209764748,-0.2317681168925017,1.1111235053241253,0.0190176963806152,0.0762485340237617,-0.0992740467190742
7.87147509765625,-0.5568976043757051,-0.2589686238333583,1.0511088893443346,0.0653726309537887,0.0975934565067291,-0.0887272208929061
7.881502685546875,-0.4318263596609235,-0.3201818750131875,1.0410592044949531,0.0770748257637023,0.1200052872300148,-0.0566766113042831
7.891531005859375,-0.5091796484544873,-0.4244560866212472,1.0361340230524538,0.0736667811870575,0.1376383453607559,-0.0369324684143066
7.901558837890625,-0.6813370539929717,-0.5180819533670321,1.0111901359319686,0.0626384913921356,0.147648200392723,-0.0345255509018898
7.9115869140625,-0.7171897270102053,-0.5171192823473364,0.9027472968697547,0.0499312281608581,0.1594046205282211,-0.0371655113995075
7.921614990234375,-0.7260206837195903,-0.5659523599036037,0.787263891646266,0.0475149415433406,0.1663088649511337,-0.0390627458691597
7.931642822265625,-0.7345653708335012,-0.6514929006755351,0.6402513756930828,0.0539426580071449,0.172519713640213,-0.0451238937675952
7.9416708984375,-0.703607484120503,-0.6833706787124276,0.4266980568617582,0.0700268223881721,0.2238524109125137,-0.0528092421591281
7.951698974609375,-0.7025383935842663,-0.7779873100612312,0.2196335155278444,0.0787058845162391,0.2625691890716553,-0.0574841648340225
7.961726806640625,-0.6048966422606259,-0.9326891384080052,0.0622188480257987,0.0871403813362121,0.2742279469966888,-0.0666784644126892
7.971755126953125,-0.4971600517716258,-1.0873102296687662,-0.1575467694491148,0.0815436169505119,0.2586362361907959,-0.06081123650074
7.981782958984375,-0.2630008750241249,-1.1733766940109431,-0.209145439261198,0.0551096089184284,0.2033191919326782,-0.0382481403648853
7.99369091796875,-0.1711447213646024,-1.238146541693807,-0.1632932041466236,0.0105329100042581,0.066791333258152,0.0002369927242398
8.003718017578125,0.0267107871951535,-1.3490224531218409,-0.0960188262969255,-0.0283037014305591,-0.0655502006411552,0.0376232489943504
8.01374609375,0.1275912281790748,-1.3675846763812003,-0.0351455476611852,-0.0413050316274166,-0.2030419111251831,0.0621157400310039
8.02377392578125,0.2005063153294846,-1.340664959143102,0.1244710137993097,-0.0306281521916389,-0.3105294704437256,0.0829651057720184
8.033802001953125,0.2306312948822975,-1.2279678236372769,0.3825912041097879,-0.0140566369518637,-0.3950431942939758,0.1033513024449348
8.043829833984375,0.2864823614418506,-0.9908009895063936,0.7212526656001805,1.9243452697e-06,-0.4003742933273315,0.0942291766405105
8.053858154296876,0.0524517064448446,-0.7897644762903452,0.9479875375658272,0.0060213822871446,-0.3720124661922455,0.0586115010082721
8.063885986328126,-0.1173689267091453,-0.5968403962507843,1.207962415832281,0.0765381604433059,-0.3027452230453491,0.0110615603625774
8.073913818359374,-0.4111807542562484,-0.3198385780008509,1.0726689792454245,0.1960690021514892,-0.117197148501873,-0.0053868107497692
8.08394189453125,-0.3651066930845379,-0.0654617389371618,0.8105114962428808,0.2657096087932586,0.1092754080891609,-0.0419554747641086
8.0939697265625,-0.526340042091906,-0.1115124557659029,1.02286245354712,0.2381431311368942,0.2655850052833557,-0.1215091124176979
8.103998046875,-0.6829197200745344,-0.32132991253715,1.3715952271968126,0.1296432763338089,0.3509864509105682,-0.2075923383235931
8.11402587890625,-0.676271660362184,-0.4531601665254682,1.2627595894247292,0.0088221402838826,0.4251641929149627,-0.2785825729370117
8.1240537109375,-0.6686591395318507,-0.5512283996328711,0.8578069159030913,-0.0808286517858505,0.4610489308834076,-0.316144585609436
8.134081787109375,-0.6141179865270853,-0.6129145290214568,0.42813072001338,-0.1235603615641594,0.4590218961238861,-0.3397475779056549
8.14410986328125,-0.6757404760949314,-0.6270698225587606,0.0173620536893606,-0.1388479620218277,0.4253603219985962,-0.3694290518760681
8.154137939453125,-0.7900029612213373,-0.6230167477756738,-0.2584364166527986,-0.1400368958711624,0.3748343288898468,-0.420314073562622
8.1641650390625,-0.9715539988532662,-0.5547102138666435,-0.4336480221301317,-0.1197382807731628,0.3069389164447784,-0.476130723953247
8.17419287109375,-0.9771196701563896,-0.5122717692509293,-0.5580822110503911,-0.0702800452709198,0.2682070434093475,-0.5055426955223083
8.184220947265626,-0.93255425998196,-0.6012700492613017,-0.7124848372548818,0.0093079861253499,0.2735743820667267,-0.5427422523498535
8.1942490234375,-0.7392686531536281,-0.6940110229313373,-0.8843921404898166,0.1000536456704139,0.2847398519515991,-0.5607630610466003
