seconds_elapsed,ax,ay,az,gx,gy,gz
0.06291552734375,0.1896932814247906,0.7190289251361042,0.6253828923851251,0.0375567153096199,-0.3133238852024078,-0.2590665817260742
0.07294384765625,0.2688917596936225,0.7112894899904727,0.6939063935130834,0.0191577300429344,-0.2573338449001312,-0.1914191097021103
0.0829716796875,0.3107735202746465,0.6636842006634921,0.7125286763966083,0.0237858910113573,-0.1989940255880355,-0.130363792181015
0.09299853515625,0.3121498135965317,0.5839097856702282,0.6814964092731476,0.0509615875780582,-0.1318016797304153,-0.0775072276592254
0.103026611328125,0.2777176018364727,0.5835230148423463,0.6771253545820712,0.0753518193960189,-0.0683726742863655,-0.0252783466130495
0.1130546875,0.2714805706104263,0.6437395100697875,0.6651976009011268,0.0920652821660041,0.0015022784937173,0.0181295815855264
0.123081787109375,0.2004020147047936,0.6467495055407285,0.6358528484731912,0.103967010974884,0.059399526566267,0.0415148697793483
0.13310986328125,0.1163856512928381,0.5772962492819875,0.5368155511379241,0.1202831342816352,0.1080783829092979,0.0456411726772785
0.143136474609375,0.0522877845874056,0.586133964525722,0.4204728987365961,0.1398042440414428,0.1335536539554596,0.0488879568874836
0.153164794921875,0.0800676623187959,0.6534823209270835,0.3249281196922063,0.1479639112949371,0.1492809504270553,0.0492781102657318
0.163192626953125,0.0375107424225658,0.6222424754675477,0.1883136636346578,0.1590843796730041,0.1420433074235916,0.0333879590034484
0.1732197265625,0.0575653596641495,0.5150007558234035,0.0549438885867595,0.1674277931451797,0.0996388643980026,0.0261846370995044
0.18324755859375,0.2465868427745997,0.4213790903287008,0.0291577054232358,0.1638407111167907,0.0274808146059513,0.0422758348286151
0.19327587890625,0.4014852896720171,0.3866388720653951,-0.0409095180153846,0.1456936597824096,-0.0451971180737018,0.068713828921318
0.203302734375,0.3686120708569884,0.3631952699726447,-0.0700093557715415,0.1237924695014953,-0.1024025380611419,0.0917775556445121
0.21333056640625,0.2913308974515646,0.37792361415755,-0.0645119273990392,0.1041122451424598,-0.1495849639177322,0.1170578822493553
0.223357666015625,0.3031720688275993,0.4488535919053479,-0.0197375506490468,0.0876504406332969,-0.1681576669216156,0.1383194178342819
0.2333857421875,0.271509212183021,0.5200042631991207,-0.0047381344377994,0.0716022327542305,-0.1783256232738495,0.1533026248216629
0.243413818359375,0.2114482363108545,0.5823750138510019,0.0940975028455257,0.0583645775914192,-0.1751767098903656,0.1562692672014236
0.253440673828125,0.1094173466501757,0.6667454879302531,0.1141331596583127,0.0462003238499164,-0.1733521819114685,0.1555392891168594
0.263468505859375,0.0965224649701267,0.7383777687285095,0.1639683269292116,0.0340917035937309,-0.1856938153505325,0.1492283940315246
0.273496826171875,0.0581631794268265,0.7590734238199889,0.1981558432132005,0.0340040847659111,-0.2039678990840912,0.1367525458335876
0.283523681640625,-0.0359111252062022,0.7991537975348532,0.2106242796421051,0.0418005175888538,-0.2186122387647628,0.1217393353581428
0.2935517578125,-0.0341409371959045,0.8313937599476426,0.2399976736426353,0.0499750897288322,-0.2213014960289001,0.1085537523031234
0.30357861328125,-0.0529636014897376,0.8391003888022154,0.2173579718112945,0.0678409561514854,-0.2047014534473419,0.1006034091114997
0.313606689453125,-0.103980087499693,0.879836596077308,0.1894815383702516,0.078384943306446,-0.1746013313531875,0.0946935936808586
0.323634765625,-0.1480275382146239,0.8879478602100164,0.1560626683712005,0.0847582519054412,-0.1370453834533691,0.0901994556188583
0.33366162109375,-0.1911675186958163,0.8468485187109559,0.1171200665146112,0.0889133214950561,-0.1072387546300888,0.0892332568764686
0.343689697265625,-0.1490359846048057,0.7959397308591752,0.0953565629959106,0.0840315073728561,-0.0947785079479217,0.1014852151274681
0.353716796875,-0.0728361036300659,0.7176018880076706,0.0831038151443004,0.0731895118951797,-0.0936980620026588,0.1246225014328956
0.36374462890625,-0.0089350016057491,0.600102539851889,0.0729921709746122,0.0531989634037017,-0.1082772314548492,0.1596053689718246
0.373772705078125,0.0168090959817171,0.5109534531939774,0.1233411329865455,0.0203265026211738,-0.13698211312294,0.205189362168312
0.3837998046875,0.0420579573981463,0.5059937118947506,0.2453612465023994,-0.0201531909406185,-0.1771265268325805,0.2676185965538025
0.393827880859375,0.0141616502128541,0.5502385118126869,0.4269254358768463,-0.0634154379367828,-0.2086794078350067,0.3190141320228576
0.403855712890625,-0.1308821960158646,0.6111652011360973,0.4759510403305292,-0.078100174665451,-0.2057249397039413,0.3485883176326751
0.413882568359375,-0.3428739646188914,0.7231123950574546,0.4414209942191839,-0.0559421367943286,-0.1645103842020034,0.3680501878261566
0.42391064453125,-0.4863667089480906,0.9000575463291257,0.4331640380054712,-0.0240754969418048,-0.0905639454722404,0.3752201795578003
0.433937744140625,-0.6186072607703507,1.038069228898734,0.3972527666687965,0.0031140465289354,0.0026706547942012,0.3683324456214905
0.443965576171875,-0.8124937561012804,1.0852815003201366,0.3779992001444101,0.0175340324640274,0.1022881716489791,0.3334467113018036
0.45399365234375,-0.9878519304424525,1.1001816939406095,0.2894353660285472,0.0319185629487037,0.198813110589981,0.2740867137908935
0.464020751953125,-1.038629054738581,1.078522162253037,0.1035837085932493,0.0547436289489269,0.2856887280941009,0.2137988060712814
0.474048828125,-1.073534583098814,1.0480714213445783,-0.1731833145201206,0.0954670906066894,0.3628231883049011,0.1541274785995483
0.48407666015625,-1.1283426434114574,1.021058472865075,-0.4322463386386632,0.1444052755832672,0.4125151038169861,0.1055029779672622
0.494103759765625,-1.1279141888663171,0.940101168230176,-0.6131161160081625,0.1785403490066528,0.4272554218769073,0.0689319148659706
0.504131591796875,-1.118875507690385,0.8390878946468233,-0.6693868692845105,0.188552051782608,0.3677232563495636,0.0462892614305019
0.51415869140625,-1.1085600845769048,0.741751482945308,-0.6823194160938263,0.1935353577136993,0.2941193580627441,0.0287837702780962
0.5241865234375,-1.0639455745637416,0.6880124401036649,-0.7636737572222948,0.1857329905033111,0.1334503293037414,0.0253217853605747
0.534214599609375,-0.8548927820220589,0.597205868562311,-0.6351648662090301,0.1768785119056701,-0.0343386828899383,0.0341269932687282
0.544241943359375,-0.8240786146286875,0.5467525693930685,-0.626651304885745,0.1730398535728454,-0.1786810159683227,0.0423821620643138
0.554269775390625,-0.7686427047412842,0.5609519212678075,-0.4557312591224908,0.1739719659090042,-0.3005422055721283,0.0597278624773025
0.564297607421875,-0.6651336688194424,0.6060194357454777,-0.1514373466581106,0.1774754673242569,-0.3599377870559692,0.0843111872673034
0.57432470703125,-0.5799664183393121,0.6660313483115285,0.1382628077864647,0.1808339804410934,-0.3671301901340484,0.1106330752372741
0.5843525390625,-0.4759733252275734,0.709013288686797,0.4523018691956996,0.1720411330461502,-0.3336965441703796,0.1417856216430664
0.5943798828125,-0.3657542702730745,0.7545006360117346,0.7774579524248838,0.146015390753746,-0.2768495082855224,0.1735158562660217
0.60440771484375,-0.2724132848832756,0.7735034426454455,1.0108142883569002,0.1122687384486198,-0.1970964521169662,0.1976779550313949
0.614435791015625,-0.2351356936294585,0.8051745191290974,1.1320815376788378,0.0857361927628517,-0.1042125821113586,0.2201222777366638
0.624462890625,-0.1915438046623021,0.8586394942697138,1.183954348257184,0.0610385723412036,-0.012104402296245,0.2379218786954879
0.63449072265625,-0.1976071232892572,0.9094221715237945,1.113100942876935,0.0512346774339675,0.0753175914287567,0.2381099015474319
0.6445185546875,-0.24736257638745,0.9159433899860828,0.9429033661693336,0.0602087043225765,0.1449952721595764,0.2298536747694015
0.654545654296875,-0.3191562582924961,0.9668165220025926,0.7592559407800435,0.0779472142457962,0.1901475638151168,0.2115612179040908
0.66457373046875,-0.3727740128420293,1.0079878327593206,0.5961141278028488,0.1018860712647438,0.2021961212158203,0.187752217054367
0.6746005859375,-0.410099973282218,1.0127272093061357,0.4308914168983697,0.1332064419984817,0.1953451484441757,0.1575360000133514
0.684628662109375,-0.4741819848313927,1.0491196882884948,0.2521101362407207,0.1565768718719482,0.1809069067239761,0.1214890107512474
0.69465673828125,-0.597082169117406,1.1252169856715948,0.1445166074842214,0.1702063977718353,0.1642813235521316,0.076613150537014
0.704683837890625,-0.7005071069523692,1.162019214498624,0.0660422057062387,0.1705242544412613,0.1568585634231567,0.0317917354404926
0.7147119140625,-0.7807662001900374,1.1870224305909127,-0.0628688363671302,0.1668988913297653,0.1666219830513,-0.0095125585794448
0.72473828125,-0.8329415008462965,1.1860993974618612,-0.2162900503188371,0.1672370582818985,0.1782731860876083,-0.0425616577267646
0.734766357421875,-0.8496217097513377,1.2059265991557389,-0.3680377781003713,0.1650444865226745,0.1926838159561157,-0.0572950653731823
0.74479443359375,-0.8508570236999541,1.1977152356494218,-0.5444149202257395,0.1606527417898178,0.2048872858285904,-0.0752791538834571
0.7548212890625,-0.950727410858497,1.1244215975102037,-0.6929775882303715,0.1568454951047897,0.1937214434146881,-0.0936248674988746
0.764849365234375,-1.0012888465773313,1.02972320616208,-0.785963914963603,0.1475682258605957,0.1726231575012207,-0.1055806428194046
0.77487744140625,-0.9853951849400996,0.9591581892691552,-0.8897633121341466,0.1298880279064178,0.1477966457605362,-0.103504441678524
0.784904541015625,-0.9562206745125352,0.8730512467861175,-0.8735808236181736,0.1097038462758064,0.1031597852706909,-0.0925767496228218
0.79493212890625,-0.8907673746101558,0.7812090485867113,-0.8269166875988244,0.0831744968891143,0.0559248924255371,-0.073835551738739
0.80495947265625,-0.7731837091717868,0.6894258870981633,-0.7789923223853111,0.054712738841772,0.0160050652921199,-0.0569266974925994
0.8149873046875,-0.7471881941065192,0.674096946671605,-0.6335989320665597,0.0281029641628265,-0.0314324907958507,-0.0411663763225078
0.825015625,-0.7293908177398145,0.6925326940070837,-0.5499217009484768,0.005670771934092,-0.0547312349081039,-0.0336418338119983
0.835042236328125,-0.661831047077477,0.6905223770979791,-0.4629869293391704,-0.0164481122046709,-0.0803852006793022,-0.0313621684908866
0.8450703125,-0.5657387536855414,0.6565680850479751,-0.3236778273701667,-0.0416954159736633,-0.0900493711233139,-0.0323364362120628
0.855098388671875,-0.5245123517407104,0.6493301696836948,-0.2417389643520116,-0.0614201165735721,-0.0807773023843765,-0.0347844138741493
0.86512548828125,-0.4885732425490394,0.6873037803776562,-0.1827887627333402,-0.0905949249863624,-0.0564464069902896,-0.03133150562644
0.8751533203125,-0.4215848785664886,0.6999704427924007,-0.1022726259946823,-0.1236338317394256,-0.0369358211755752,-0.0308808982372283
0.885180419921875,-0.3573549829792231,0.6768592509917915,-0.0888607712358236,-0.1502098888158798,-0.0232338514178991,-0.0287973824888467
0.895208251953125,-0.3148459938779473,0.7189946575403213,-0.1566296546041965,-0.1698720157146453,0.0119329243898391,-0.0241211391985416
0.905236572265625,-0.3587927606973797,0.8467125443063676,-0.2595563605934381,-0.1813015043735504,0.0944625064730644,-0.0215457584708929
0.91526318359375,-0.4824553807232529,0.9653688074123112,-0.4386147046267986,-0.1920044869184494,0.2074631005525589,-0.0306535027921199
0.92529150390625,-0.5721340442132204,1.035690444003418,-0.5894459020853042,-0.2092081159353256,0.3215056657791137,-0.0494527220726013
0.9353193359375,-0.5979386763488873,1.0957291715111583,-0.7340542795062065,-0.244442269206047,0.4272558093070984,-0.0855249688029289
0.94534619140625,-0.7444466403134167,1.1488109194878489,-0.9923685310840606,-0.2727452516555786,0.5399726033210754,-0.1504298448562622
0.955374267578125,-0.9501957151345908,1.1906226470399648,-1.3260066114544868,-0.2825957536697387,0.6087077260017395,-0.2409421801567077
0.9654013671875,-1.015688397199288,1.1818184322070329,-1.6170149258881807,-0.2699199914932251,0.607765257358551,-0.3416862487792969
0.975429443359375,-0.9205047796174884,1.0384662653923034,-1.9263994394898412,-0.244370698928833,0.5455508828163147,-0.4231321215629577
0.98545751953125,-0.7092469513121992,0.8110149887856095,-2.0512071378976104,-0.2291657328605651,0.3880193531513214,-0.4704395830631256
0.995484130859375,-0.309498641500622,0.4905996703427284,-2.002910432240367,-0.2366169989109039,0.2017919719219207,-0.473919004201889
1.005512451171875,0.115955534513574,0.1859679772913456,-1.877227120041847,-0.2661634087562561,0.0343090519309043,-0.4338417947292328
1.015540283203125,0.4833961687047034,0.0145953654550015,-1.6030816776037216,-0.3151567876338959,-0.0613029561936855,-0.3750008642673492
1.0255673828125,0.6293667013242841,-0.036194545257464,-1.2471306431382894,-0.3852289021015167,-0.0898403003811836,-0.3240222334861755
1.03559521484375,0.6412383409038186,-0.0628935324169695,-0.7928069127261638,-0.4628030657768249,-0.1139368489384651,-0.290996104478836
1.04562255859375,0.6176966487314551,-0.1076106990870088,-0.3193272309452295,-0.5395854711532593,-0.1262538731098175,-0.2665772140026092
1.055650390625,0.6592427841499447,-0.25242734896373,-0.0195826523482799,-0.5998213291168213,-0.1343631893396377,-0.2506757378578186
1.06567822265625,0.697756639200449,-0.3970480744095519,0.2046364374041557,-0.6316890120506287,-0.1427393704652786,-0.2360030710697174
1.075705322265625,0.7238625558376311,-0.5335836565446108,0.3815408182740211,-0.6415565609931946,-0.1718061864376068,-0.2181670814752578
1.0857333984375,0.7992574040398002,-0.6674256522141396,0.5728817207753658,-0.6250814199447632,-0.2210047841072082,-0.2026498019695282
1.095761474609375,0.8364671176891774,-0.8432064358815551,0.7696697827666997,-0.5844133496284485,-0.2879896759986877,-0.1772698760032653
1.105788330078125,0.951416050709784,-1.0080755110427737,1.0110632946819067,-0.5339697003364563,-0.3411225974559784,-0.1456692665815353
1.115816162109375,0.9757258046451956,-1.0589809378936883,1.2401380077719688,-0.4861360788345337,-0.3581066429615021,-0.0999414548277854
1.125843505859375,1.0097355532094836,-1.0743312133692204,1.5268424875319002,-0.4501872658729553,-0.3286543786525726,-0.0585655756294727
1.135871337890625,1.0188052140455692,-1.0316004712760447,1.7624691064834594,-0.4181219935417175,-0.2621027827262878,-0.0101551683619618
1.1458994140625,0.9902533655609936,-0.8878652964930981,1.9134183773636817,-0.3916280567646026,-0.1780863255262375,0.0215471871197223
1.15592626953125,0.7241746905267238,-0.7106647822208703,1.9425673149585725,-0.3505903482437134,-0.0815920159220695,0.0164893120527267
1.165954345703125,0.3781382067563012,-0.5555225531628355,1.916006055769324,-0.2860456705093384,0.0196610540151596,-0.0192640051245689
1.175981201171875,0.1555369639966636,-0.4395230881759897,1.754346590304375,-0.1861278265714645,0.1255517899990081,-0.064746007323265
1.18600927734375,0.0322864684356376,-0.3322254736261442,1.5210563053458928,-0.0667727068066597,0.2189281582832336,-0.0990138575434684
1.196037353515625,0.0453917414633557,-0.2709867774778045,1.3679460570394992,0.0451200008392334,0.2952911257743835,-0.1012458577752113
1.206064453125,0.1471947041196748,-0.3054105502030812,1.2708107939332722,0.1253340542316436,0.3561030030250549,-0.077659010887146
1.216092529296875,0.202555722139962,-0.3976812212139368,1.1524661540597676,0.1724903732538223,0.4056982398033142,-0.0417862311005592
1.226120361328125,0.1882300770044326,-0.473723573539406,1.087910387519002,0.1902982890605926,0.4300225973129272,0.0063495663926005
1.236147216796875,0.1466931843383237,-0.4216324075026437,0.9845669174224138,0.178933784365654,0.4317504465579986,0.063129223883152
1.246175537109375,0.0941428946235217,-0.3163731303799897,0.905993731445074,0.1503101587295532,0.4078546464443207,0.1149619668722152
1.2562021484375,0.0348573509701062,-0.232039937837515,0.8064034764021635,0.1121244207024574,0.3604706227779388,0.163828045129776
1.26623046875,0.0173522446813993,-0.1390828919976949,0.7186018588304519,0.0791862979531288,0.3003557622432709,0.2124531418085098
1.27625830078125,0.0035664877093862,0.0238676727237179,0.6303630188852548,0.0588288269937038,0.2378306090831756,0.2565785348415375
1.286285400390625,-0.0618127331766299,0.2184426983080804,0.5625263309776782,0.0526448190212249,0.1760323941707611,0.2914345562458038
1.296313232421875,-0.1526838943867944,0.3963028455328196,0.569433041626215,0.0557106509804725,0.1149509251117706,0.3070867657661438
1.30634130859375,-0.2393369447115808,0.5302165547316894,0.5707482158780097,0.0608571805059909,0.0547787323594093,0.30689138174057
1.316368408203125,-0.2503817050129175,0.6512574114192277,0.6734738463371992,0.0660735070705413,-0.0039421017281711,0.3017269670963287
1.326396484375,-0.2152783525256439,0.7715712324738502,0.7622446012020111,0.0738432854413986,-0.0528141222894191,0.2923264503479004
1.336423095703125,-0.1901279830476269,0.8648925633151083,0.8155109119653702,0.0803656354546547,-0.0897417813539505,0.2865165174007416
1.346451416015625,-0.1242233683143276,0.930958661353588,0.8735363999545573,0.0792013257741928,-0.0942587479948997,0.2870009243488312
1.356479248046875,-0.0552080559482797,1.0098200166225433,0.9234756121218204,0.0722893625497818,-0.0800973922014236,0.2936109006404876
1.366506591796875,0.0194714653250761,1.0634959311001002,0.9857178410232068,0.0469520203769207,-0.0540227554738521,0.3069505989551544
1.3765341796875,0.1096582244676537,1.104304326828569,1.014067152673006,0.0119799207895994,-0.0128446919843554,0.3196224570274353
1.3865625,0.156876925629843,1.1798032199271022,0.9801268891483544,-0.0328161977231502,0.0345851294696331,0.3282959461212158
1.39658935546875,0.1408043546285945,1.2438324783757329,0.925349004778266,-0.0741284787654876,0.0734851285815239,0.3226463198661804
1.406617431640625,0.1711996116233058,1.2564129968769848,0.7561766794651746,-0.1066929101943969,0.0938427150249481,0.312220811843872
1.416644287109375,0.2432704482356086,1.2335146441094578,0.5270277320951223,-0.1239251643419265,0.0897696763277053,0.2980181574821472
1.42667236328125,0.3584345949094742,1.2356259371750056,0.3312321882724762,-0.1283333599567413,0.0626590400934219,0.2871617674827575
1.436700439453125,0.3811998593492433,1.2299854470700025,0.1397358029484748,-0.1268987208604812,0.0212676562368869,0.263851910829544
1.4467275390625,0.3194448659755289,1.1876184967879204,0.0228624046713113,-0.1231724247336387,-0.0401302762329578,0.22630175948143
1.456755126953125,0.3150014036353677,1.1488125269230454,-0.04947860891819,-0.1233428642153739,-0.1163843050599098,0.194005861878395
1.466783447265625,0.3687378526611253,1.100740789128095,-0.0545575196176767,-0.1306459605693817,-0.1949956864118576,0.1786636412143707
1.476810302734375,0.4428175996767357,1.0183804858274756,-0.0422428124457597,-0.1351733356714248,-0.2768865823745727,0.1762385666370391
1.486838623046875,0.4668841925060376,0.889464694513753,0.0517599978536367,-0.137863427400589,-0.3390201032161712,0.1869302839040756
1.496865234375,0.4571281933736056,0.7296824941627681,0.1214735855489969,-0.1300305277109146,-0.3766058087348938,0.2093032300472259
1.506893310546875,0.4285292543442919,0.6296407690253109,0.178115510225296,-0.1200766935944557,-0.3887873589992523,0.2552691400051117
1.51692138671875,0.4445709461500868,0.5291154616219923,0.2634901929110288,-0.1178809180855751,-0.3625943660736084,0.3188081681728363
1.5269482421875,0.4255606503296643,0.3910558482574299,0.2986819178014993,-0.1279669553041458,-0.3184239864349365,0.3861670792102813
1.536976318359375,0.374578870306909,0.2232231375176459,0.3853817116111516,-0.1576406955718994,-0.256520926952362,0.4520414471626282
1.54700439453125,0.3579190466027707,0.0803659146130084,0.4280623309522867,-0.1996656358242035,-0.1756442636251449,0.5126426219940186
1.55703125,0.2836466630918905,-0.0573921493885572,0.3790378955423831,-0.2405438274145126,-0.1010619103908538,0.5630490779876709
1.5670595703125,0.2031170458171516,-0.1811991554543376,0.2735790407270193,-0.2749955952167511,-0.0465286523103714,0.602401077747345
1.57708642578125,0.1786043897207826,-0.2711112258413806,0.1590273633956909,-0.3056190013885498,-0.0171100441366434,0.6303187012672424
1.587114501953125,0.126528384720534,-0.3726804893396794,0.0324181685239076,-0.3301453590393066,-0.0260197352617979,0.6405099630355835
1.597142333984375,0.0586667815674096,-0.4980758514422923,-0.0713672001212835,-0.3347454369068146,-0.0607992894947528,0.6407139897346497
1.607169189453125,0.032709771881625,-0.5632158476117998,-0.2246130575060844,-0.3245474100112915,-0.0897175669670105,0.6303787231445312
1.617197265625,-0.0583505917577072,-0.5754772171612829,-0.3314654125064611,-0.3047534525394439,-0.0915556773543357,0.5984165072441101
1.627225341796875,-0.2139557986849918,-0.6265973827414214,-0.4161848461538553,-0.2776804566383362,-0.0761952996253967,0.5339322686195374
1.63725244140625,-0.4756731732372194,-0.7561336440410464,-0.5493552992373705,-0.2475776821374893,-0.0735025703907013,0.4407818019390106
1.6472802734375,-0.6540503300733864,-0.8571310624681413,-0.6503612662971019,-0.2164618968963623,-0.0907584801316261,0.3345910608768463
1.657307373046875,-0.7731710688859224,-0.9439964951682835,-0.8706225583344698,-0.1534325927495956,-0.1188119575381279,0.2200602144002914
1.66733544921875,-0.8879568472340702,-1.01086346126087,-1.190537818300724,-0.0497942641377449,-0.1377946436405182,0.1172736138105392
1.67736328125,-0.8957765810742974,-0.9872812909476458,-1.487979965174198,0.0731886550784111,-0.1489831209182739,0.0483408868312835
1.687390380859375,-0.837977010795474,-0.9080743371114134,-1.7241262240856885,0.1935867667198181,-0.1527078449726104,0.0196641199290752
1.697418212890625,-0.7390401050947606,-0.9103892629902808,-1.793032002529502,0.2813397645950317,-0.1763599216938018,0.0291676111519336
1.7074453125,-0.6557428132049739,-0.9445555172905326,-1.6643290502488612,0.3149369657039642,-0.2181183248758316,0.0602604411542415
1.717473388671875,-0.5688774535700678,-0.91106957340464,-1.3836223495990037,0.2875588834285736,-0.2592313885688782,0.1028755456209182
1.727501708984375,-0.5095755524368957,-0.8851389402691274,-1.0622025302886962,0.2232372462749481,-0.2887374758720398,0.1480806171894073
1.737528564453125,-0.4900631888458505,-0.8461140669565648,-0.7988350869745016,0.1477640569210052,-0.3117836713790893,0.1964593380689621
1.747556640625,-0.3808792490927502,-0.7243653177279978,-0.5351140079170466,0.069492682814598,-0.3269575536251068,0.239254742860794
1.757584716796875,-0.3523013893840834,-0.5653915842156857,-0.3222515939593315,0.0176257602870464,-0.3249500691890716,0.2610809504985809
1.767611572265625,-0.3881175663158297,-0.4403451086159795,-0.1539379313021898,-0.0067813736386597,-0.3003868758678436,0.2574269473552704
1.7776396484375,-0.3873317497003823,-0.2567009894286282,-0.0017073884397745,-0.0120893195271492,-0.268378883600235,0.246117815375328
1.787666748046875,-0.3353272755663842,-0.1015279451072216,0.208276255211234,-0.0182974431663751,-0.2356363236904144,0.2287197560071945
1.797694580078125,-0.3807194919537752,-0.0292497493545524,0.424844537949562,-0.0213409047573804,-0.2051234245300293,0.1808816641569137
1.80772265625,-0.5560573541592806,0.0021122246473096,0.5585165108144283,-0.0117938816547393,-0.1835681647062301,0.1126677617430687
1.817749755859375,-0.6855133898295461,0.0460125219765119,0.6322066009253263,0.0088751781731843,-0.1565535962581634,0.0384473241865634
1.82777783203125,-0.7294288847278804,0.0990672540821135,0.5938040972948074,0.0445340760052204,-0.1200961768627166,-0.024001307785511
1.8378056640625,-0.6493005782630294,0.0841424922759644,0.5471972444206475,0.0855424925684928,-0.0906767696142196,-0.0588064268231391
1.847832763671875,-0.5163159300751984,0.0757070194238796,0.5548831227481364,0.1156612783670425,-0.0633727759122848,-0.0761351734399795
1.857860595703125,-0.5216337640970945,0.0506993828848004,0.5511573802232742,0.1296394169330597,-0.0279157180339097,-0.0955181941390037
1.8678876953125,-0.6189234871126711,-0.0455870996386744,0.4916320090651512,0.1365664452314376,0.0102640781551599,-0.1200250908732414
1.87791552734375,-0.6986505923654883,-0.1519696817028336,0.4191974719732999,0.1374466121196746,0.0398336872458457,-0.1388483196496963
1.887943603515625,-0.7418633458219468,-0.2255398534948006,0.3005360212355852,0.1382074505090713,0.0553192421793937,-0.1500279009342193
1.897970703125,-0.7490251272100955,-0.3385607045296579,0.1534703137904405,0.1402365118265152,0.0543602369725704,-0.1557345241308212
1.907998779296875,-0.7507066505562514,-0.4963110702594742,0.0042395372658967,0.153440922498703,0.0407255925238132,-0.150598332285881
1.918026611328125,-0.7162498158115893,-0.6603676965266466,-0.1687795266032218,0.1757430285215377,0.0206775814294815,-0.1302539110183715
1.9280537109375,-0.6814118727948516,-0.7505578166700899,-0.2750730786770582,0.1953277587890625,0.0012441263534128,-0.0876193046569824
1.93808154296875,-0.6221760591678321,-0.7919494921792298,-0.3169178317159414,0.2077522128820419,-0.0250212997198104,-0.0200868621468544
1.94810888671875,-0.4880695673432201,-0.8726117593903094,-0.2496592359572648,0.2096323668956756,-0.0617979727685451,0.0707021579146385
1.958136474609375,-0.1849140843242406,-0.9545707153484224,-0.0932242271423339,0.1848708391189575,-0.0904083102941513,0.1926182061433792
1.968164794921875,0.140646634183079,-0.9059254154492168,0.1579074194550514,0.1361287087202072,-0.0926428884267807,0.3257043063640594
1.97819189453125,0.2415674802426248,-0.7020445456527173,0.4990460847139358,0.0736927613615989,-0.0633608996868133,0.4330595135688782
1.9882197265625,0.1283922058310359,-0.4543672407602891,0.714659258684516,0.0253631547093391,-0.012948079034686,0.5011172890663147
1.99824755859375,0.0620510902434587,-0.215685581619665,0.8730898252308368,-0.0049044704064726,0.0416965223848819,0.5427635312080383
2.008274658203125,0.0419156263180077,0.027979418891482,1.0159715249896049,-0.008289492689073,0.1149290055036544,0.5558888912200928
2.018302734375,-0.2392938362222164,0.2986707388203591,1.055336151650548,0.0094495574012398,0.1431633085012436,0.5500168800354004
2.028329833984375,-0.2575004509769379,0.4119872483335435,1.153385022470355,0.0321763567626476,0.1757126748561859,0.5221908688545227
2.038357421875,-0.4050327530205249,0.5813407388998195,1.1556108818262816,0.0580311231315135,0.2161016464233398,0.4794761538505554
2.0483857421875,-0.6291987974114716,0.6882960062853991,1.158424185681343,0.0919694453477859,0.2601423859596252,0.4331238269805908
2.058412841796875,-0.7638330394372344,0.7417009948670864,1.0780641162872313,0.1298726201057434,0.2846314907073974,0.3942097127437591
2.06844091796875,-0.8113388869777322,0.7849851330593228,0.974696680793166,0.175371915102005,0.2961521446704864,0.3571508824825287
2.078468505859375,-0.9693003016423434,0.7980362647470086,0.8196627709478139,0.2207359373569488,0.310830146074295,0.3216559886932373
2.08849560546875,-1.1202241458203643,0.8561903475519269,0.7236959670990705,0.2578202486038208,0.3305540978908539,0.3016500174999237
2.098523681640625,-1.1951413665734232,0.8907526154324412,0.6218652396529912,0.2752596735954284,0.35871621966362,0.2997160255908966
2.108550537109375,-1.2602958296597002,0.825802296616137,0.4942494980871677,0.2738215625286102,0.3797627985477447,0.3172115981578827
2.11857861328125,-1.350594232483208,0.7083378736432642,0.3401923243194818,0.2594591379165649,0.3959225714206695,0.3537893295288086
2.128606689453125,-1.4210830423347651,0.6284161956664175,0.1442845522940158,0.2321135848760604,0.4155037999153137,0.4050658047199249
2.1386337890625,-1.4243953817531465,0.559654209607467,-0.0146247376799583,0.190848171710968,0.4153570830821991,0.4697281420230865
2.148661865234375,-1.3686749558359383,0.4791156053086742,-0.1614420233219861,0.1428002119064331,0.3873316347599029,0.5410791635513306
2.158689453125,-1.3239262980490922,0.4099488743737339,-0.2502653851568698,0.0932395905256271,0.3412938416004181,0.6051614284515381
2.168716796875,-1.3785665275141596,0.3914832433566451,-0.3310673530995845,0.0487712547183036,0.2833246886730194,0.6543042659759521
2.17874462890625,-1.4581049052618442,0.3874028787078336,-0.3846761936903,0.0157168991863727,0.2226397544145584,0.6951789855957031
2.188771484375,-1.4081537103958428,0.4425356774628162,-0.3373001100093126,-0.0061199581250548,0.1622002869844436,0.7351559400558472
2.1987998046875,-1.301047672895342,0.4855242667745798,-0.2592471485137939,-0.016455153003335,0.1106787770986557,0.765289306640625
2.20882763671875,-1.217005188661441,0.4574344828438013,-0.1546802741020917,-0.0268466901034116,0.0682117268443107,0.7837446331977844
2.21885498046875,-1.1706157048650083,0.4664304208565503,-0.0114437695562839,-0.0340667888522148,0.0330702550709247,0.7899910807609558
2.228882568359375,-1.170354861971736,0.5274014607783407,0.1227607027500867,-0.0387094169855117,0.0214688535779714,0.7784796357154846
2.23891064453125,-1.2070838794320822,0.5402875380974262,0.1457809283316135,-0.0304048806428909,0.0344560258090496,0.7605413794517517
2.248937744140625,-1.1777866194076836,0.5615563169017433,0.16119243247509,-0.0223539657890796,0.0509684570133686,0.7486451268196106
2.258965576171875,-1.0951713184326886,0.6199851249948144,0.1829272944211959,-0.0245505422353744,0.0728308781981468,0.7481721639633179
2.26899267578125,-0.9878980346065014,0.5713529037728905,0.1890133363366127,-0.0308287981897592,0.10333863645792,0.752032995223999
2.279020751953125,-0.9478755285587162,0.5558810477443039,0.1860620853155851,-0.0440045185387134,0.1434455662965774,0.7548575401306152
2.289048828125,-0.9353251860000192,0.5519591981254518,0.1423398479670286,-0.0614036321640014,0.1753184497356414,0.7502367496490479
2.299075927734375,-0.9950283248778432,0.5545577632512897,0.1036100120782852,-0.0731226056814193,0.2056230902671814,0.7290611863136292
2.309103515625,-1.1105590033091604,0.5361825139313936,-0.0367032984972,-0.0711830258369445,0.2354799807071685,0.7091019749641418
2.319131591796875,-1.1749886592522265,0.5248828290209174,-0.1296037005126476,-0.0644151344895362,0.2556859254837036,0.6931528449058533
2.32915869140625,-1.1343054242733863,0.5256231990594417,-0.2400643091380596,-0.0619607903063297,0.2589189708232879,0.692577064037323
2.339186767578125,-1.0731266598850489,0.4545975058522075,-0.2787695951074361,-0.0642865374684333,0.2505824863910675,0.6916345953941345
2.349213623046875,-1.1129374228782951,0.3753403196660801,-0.3212847947537899,-0.0760501325130462,0.2363092601299286,0.6854755878448486
2.35924169921875,-1.1325811577640472,0.3233776753798127,-0.3728402099460363,-0.0877336859703064,0.2078331410884857,0.6864340901374817
2.369269775390625,-1.0512291547231376,0.3216149034909903,-0.3753694361627102,-0.1035854369401931,0.1764336079359054,0.7007901668548584
2.379296875,-0.9608655777089298,0.373580726115033,-0.3602770809710026,-0.124141588807106,0.1706385761499405,0.7219071984291077
2.38932470703125,-1.0275922585479915,0.4154030115937814,-0.381128730341792,-0.1376407295465469,0.2006063312292099,0.7263068556785583
2.3993525390625,-1.134760182303563,0.4444463699223473,-0.4594938265264034,-0.1437508165836334,0.2563316524028778,0.7139766812324524
2.409379638671875,-1.178185044140741,0.5280070619886741,-0.5967647006660699,-0.1411309242248535,0.3154449760913849,0.6893877387046814
2.41940771484375,-1.2377964130818844,0.6006187822783365,-0.7542278834849595,-0.1267663687467575,0.3572201132774353,0.6425121426582336
2.4294345703125,-1.483749341867119,0.5905436707267537,-0.9857727860808372,-0.0920022577047348,0.3644412755966186,0.5719692707061768
2.439462890625,-1.5834895267747342,0.5162395038381219,-1.2014151861459017,-0.0484779514372348,0.3156132698059082,0.5071255564689636
2.44949072265625,-1.439620423413813,0.3745604213347658,-1.273677873802185,-0.0112334638833999,0.2090761065483093,0.4712471961975097
2.459517578125,-1.2890936157293618,0.1437335125488229,-1.236377778455615,0.0121096754446625,0.0664939358830452,0.461852103471756
2.469545654296875,-1.1139653776865452,-0.1303676980219315,-1.0864134269595145,0.0229950509965419,-0.0953689292073249,0.4859532713890075
2.479573486328125,-0.8833793101854622,-0.3746219422636553,-0.8055325387865304,0.0225183442234992,-0.2406954914331436,0.5515463948249817
2.489600830078125,-0.6212535374954342,-0.5502576549045741,-0.4842389762043952,0.0180521663278341,-0.3449915945529938,0.6544094085693359
2.49962890625,-0.3941717152556404,-0.62141077388376,-0.0798953744918107,-0.0069551840424537,-0.3992255330085754,0.7887557744979858
2.509655517578125,-0.1891851309732534,-0.5990931436136364,0.4362608349770307,-0.0537867210805416,-0.4034405946731567,0.9301518201828004
2.519683837890625,-0.0891304915552958,-0.5705949250124395,0.8971826484799384,-0.1112611964344978,-0.3641301989555359,1.052878975868225
2.529711669921875,-0.0921564883129671,-0.4868265450121835,1.2367407665491104,-0.1588720977306366,-0.2951003313064575,1.1595028638839722
2.53973876953125,-0.0687266361843561,-0.3225129848418757,1.48954297670722,-0.1980365514755249,-0.2165306955575943,1.2508834600448608
2.5497666015625,-0.0709970973004121,-0.1546155748354271,1.6473995427578687,-0.2165159583091735,-0.1534348130226135,1.3264812231063845
2.559794677734375,-0.1071603249710053,-0.0377432908031158,1.712442800554633,-0.2115259915590286,-0.0666378736495971,1.3780347108840942
2.56982177734375,-0.1949811221672222,0.0555303375720512,1.65463358566463,-0.2002838402986526,0.0123656950891017,1.408832550048828
2.579849609375,-0.2998708353251219,0.1336670866271946,1.5989327412307262,-0.1846641451120376,0.0724181160330772,1.4138848781585691
2.589876708984375,-0.4016973249875009,0.1984693661417812,1.5146598823070525,-0.1604715287685394,0.1144822388887405,1.3894169330596924
2.59990478515625,-0.6088865156143903,0.2905991125782951,1.36126789444983,-0.124207004904747,0.1505185514688491,1.3402003049850464
2.609932861328125,-0.8362841623377054,0.3964415233511477,1.1127438000023364,-0.0687004551291465,0.1891371309757232,1.2668671607971191
2.619959716796875,-1.0151986409209668,0.4478556303765624,0.8672674026876688,-0.0039957617409527,0.2172814309597015,1.192487716674805
2.629987548828125,-1.050918773599714,0.4125992427520453,0.6537152529001236,0.05782251060009,0.2419431209564209,1.1300058364868164
2.640015625,-1.1199816423013806,0.3187497598508372,0.4056120142132043,0.1088047325611114,0.2666141092777252,1.0804481506347656
2.650042724609375,-1.2423105295054613,0.1833758053736761,0.201623811584711,0.1381571143865585,0.2560639679431915,1.0445808172225952
2.66007080078125,-1.2875558847680688,0.0033035989894997,0.0097252752006053,0.1509165912866592,0.2124592363834381,1.0273756980895996
2.67009765625,-1.2870761384271086,-0.2013883223284036,-0.2319897237539291,0.1506430506706237,0.134806141257286,1.0314689874649048
2.680125732421875,-1.2541393528565763,-0.3882086786653846,-0.4049474128246307,0.1499255895614624,0.0403944253921508,1.059586524963379
2.69015380859375,-1.2380460039287804,-0.5614385357409716,-0.5231628733605146,0.1515865176916122,-0.0735735744237899,1.111873745918274
2.7001806640625,-1.1299549739789216,-0.6952694985598326,-0.5445791708767413,0.1547570079565048,-0.1776011735200882,1.2015535831451416
2.710208740234375,-0.9426190693352372,-0.7748336683358996,-0.4525052828133106,0.146482303738594,-0.2523359656333923,1.31777024269104
2.72023681640625,-0.8435141135912388,-0.8217028254080563,-0.2420937691390514,0.117835484445095,-0.2857562303543091,1.4424229860305786
2.730263671875,-0.7866615418389439,-0.7619207760751247,0.0662426967144012,0.0707942619919776,-0.2800780534744262,1.5611696243286133
2.740291748046875,-0.7513620457250625,-0.6597812749408185,0.3529278872519731,0.0172705855220556,-0.2374989092350006,1.6576008796691897
2.750318603515625,-0.7194776187516748,-0.4826337329648434,0.5923983221501111,-0.0176669787615537,-0.1715276688337326,1.730771541595459
2.7603466796875,-0.6908166108042001,-0.2936252006675116,0.7167541851371526,-0.0297790355980396,-0.095168188214302,1.777901291847229
2.770374755859375,-0.6374214129641652,-0.1168783849795348,0.796206492036581,-0.0282054636627435,-0.0179207772016525,1.8052374124526975
2.780401611328125,-0.6167243696331978,0.0242954080329393,0.8527654146045446,-0.021793371066451,0.0400911271572113,1.8016639947891235
2.7904296875,-0.6280806070365011,0.0655352151653263,0.8478238665491342,-0.0072591407224535,0.0741106271743774,1.7639793157577517
2.800457763671875,-0.6343357949737459,0.0829039634569548,0.7951461693286895,0.0182952210307121,0.083020769059658,1.715373158454895
2.810484375,-0.6093224228136241,0.186052696432732,0.7562327935665846,0.0469495020806789,0.0774110853672027,1.6551785469055176
2.8205126953125,-0.6167322606787086,0.2832290222017094,0.6653922466903924,0.0805862918496131,0.0801757127046585,1.5873981714248655
2.83053955078125,-0.682037895738706,0.3499402497433125,0.6188356626987457,0.1096481531858444,0.0734529122710228,1.5169620513916016
2.84056787109375,-0.7182177548836917,0.4224082872459664,0.5861778402000666,0.1318155229091644,0.0761893093585968,1.4500130414962769
2.850595703125,-0.7426799229018389,0.4643088255926966,0.5410737931042909,0.1440806090831756,0.0789586752653122,1.3903876543045044
2.86062255859375,-0.8434536155756562,0.491356772320345,0.4963900172472,0.1388839781284332,0.0840860605239868,1.334316611289978
2.870650634765625,-0.9330434317383914,0.4682639198940247,0.4504857596844434,0.1342890858650207,0.0770421624183654,1.2823220491409302
2.8806787109375,-0.9632627750437708,0.4515750162258743,0.3740402333855628,0.1255025118589401,0.0702465698122978,1.238189935684204
2.89070556640625,-0.925099560061842,0.4491277692042291,0.2959381720513105,0.1179184541106224,0.0609723553061485,1.205431580543518
2.900733642578125,-0.9851100113231688,0.4831613370355218,0.2778378672152757,0.107755035161972,0.0500627160072326,1.176676869392395
2.910760498046875,-1.0286525081906468,0.502597128259018,0.2516658996045589,0.0933678150177002,0.034501489251852,1.148831844329834
2.920788818359375,-1.0851600658975542,0.4948534918623045,0.2207283250272274,0.0777198746800422,0.012747723609209,1.1250399351119995
2.93081640625,-1.1233914507448672,0.5118364831062033,0.1666267324835061,0.0597174689173698,-0.0096062086522579,1.109505534172058
2.94084375,-1.1498707307390867,0.5163769030148163,0.1423433550983667,0.0390574634075164,-0.0375361070036888,1.1029016971588137
2.95087158203125,-1.172451688120514,0.5410733547128737,0.1746697536855936,0.0202074013650417,-0.0737271010875701,1.092393159866333
2.96089990234375,-1.210813932805881,0.5070648847902194,0.1977630445033311,0.0071837436407804,-0.1173323690891265,1.078624963760376
2.970926513671875,-1.3220510056965051,0.5182525241609662,0.2512579033255577,0.0015768733574077,-0.1655143499374389,1.0695794820785522
2.98095458984375,-1.2534988629959525,0.5348953236650675,0.3520429211109876,-0.0054844981059432,-0.234136015176773,1.067215919494629
2.990982666015625,-1.227009646129608,0.488752983030118,0.4565314695894718,4.71812672913e-05,-0.2872146666049957,1.053392767906189
3.001009765625,-1.3231997373402118,0.444791457032971,0.4810176760703325,0.0119440546259284,-0.3285173773765564,1.0433653593063354
3.01103759765625,-1.2099566583894192,0.4727731774793937,0.5685135886937379,0.0203641150146722,-0.3612742722034454,1.045082926750183
3.021064697265625,-1.1263543922036885,0.4938543612897396,0.6506196249723434,0.0289173889905214,-0.3656330704689026,1.0556693077087402
3.031092529296875,-1.070669914382696,0.4372919315904379,0.7512871538579463,0.0287917461246252,-0.3569514155387878,1.065690517425537
3.041120849609375,-1.0769647767432031,0.3953334159787744,0.7840911068290471,0.0210147835314273,-0.3093836307525635,1.0772416591644287
3.0511474609375,-1.0616484766025096,0.3940627019232138,0.7943120565921068,0.0009902082383632,-0.2534822821617126,1.101125955581665
3.06117578125,-0.9246879105210304,0.3066629431506619,0.7963789259940386,-0.022380094975233,-0.1994880139827728,1.1332451105117798
3.07120361328125,-0.8180223102644085,0.1939058210859075,0.6703302876144647,-0.0499468296766281,-0.1390659213066101,1.164300560951233
3.081230712890625,-0.8656283302437514,0.1675233342633582,0.5569996765106916,-0.0815407112240791,-0.0879039391875267,1.190452218055725
3.091258544921875,-0.7816149259738624,0.1660627419251948,0.4248018678516149,-0.1151913478970527,-0.0520695932209491,1.214948654174805
3.10128564453125,-0.688958269586414,0.1583065748404711,0.2601934894531965,-0.149271011352539,-0.0543394051492214,1.2184525728225708
3.111313720703125,-0.6416717638850211,0.1420649308826308,0.1042190838873386,-0.1772689223289489,-0.0806212276220321,1.1964844465255735
3.121341796875,-0.6256686505239456,0.1411257046706043,-0.0464706592738628,-0.1908920556306839,-0.1007680371403694,1.1575908660888672
3.131368408203125,-0.6803865483351051,0.1978278351015411,-0.198432906588912,-0.1902277171611786,-0.0983622148633003,1.099534511566162
3.141396728515625,-0.749901106327027,0.2115099216365255,-0.357601724281907,-0.1793034225702285,-0.0836325362324714,1.0274068117141724
3.151424560546875,-0.8170086031772196,0.1683587987068109,-0.5704565394550561,-0.1598513275384903,-0.0474905259907245,0.9418632388114928
3.16145166015625,-0.960618909471482,0.1568010656483471,-0.8360311374247074,-0.1357654184103012,-0.0026064063422381,0.8392191529273987
3.1714794921875,-1.159990339019522,0.1777185102643445,-1.116148055487871,-0.1072691828012466,0.0339211672544479,0.73294997215271
3.181506591796875,-1.3013131919637322,0.1052366268994286,-1.43719202722311,-0.0680919513106346,0.0385228395462036,0.6348985433578491
3.19153466796875,-1.3472713716708122,-0.1188254456603899,-1.7074182503908872,-0.0340516343712806,-0.0130275711417198,0.5515422224998474
3.201562744140625,-1.263360477927327,-0.4614699854375794,-1.8129764739274976,-0.0002798223868012,-0.1216680333018302,0.5067957639694214
3.211589599609375,-1.038228072722256,-0.8186204953532665,-1.8759604611068963,0.030546236783266,-0.2420593649148941,0.4983616173267364
3.22161767578125,-0.8363463408537208,-1.0766850099537522,-1.7422405574470758,0.0454197265207767,-0.4082110524177551,0.532278299331665
3.231645751953125,-0.6692994832620024,-1.1547954007249326,-1.3321522746026515,0.0460731498897075,-0.5545831322669983,0.6070435047149658
3.241672607421875,-0.4823265301791951,-1.1694576939363033,-0.8935334783226251,0.0195613782852888,-0.6503275036811829,0.6896345019340515
3.251700439453125,-0.4990198542941361,-1.1176450160473586,-0.2516162152439355,-0.014855571091175,-0.7120004892349243,0.7643842101097107
3.261727783203125,-0.5365052065471186,-0.929941812461242,0.3965343892663717,-0.0501672215759754,-0.7018961906433105,0.8353018164634705
3.271755615234375,-0.608272256173566,-0.6344611749190837,0.8731786725580691,-0.070540964603424,-0.6102759838104248,0.9002957344055176
3.28178369140625,-0.7407368990752845,-0.3487573601016774,1.2115870360702274,-0.0712203383445739,-0.4533883929252624,0.9418922066688538
3.291810546875,-1.0078820342972874,-0.1461791521352715,1.3285837684661148,-0.045639019459486,-0.2604597210884094,0.9614356756210328
3.301838623046875,-1.2225855460770427,0.0568213089643511,1.3111036413550377,-0.0059155742637813,-0.0775285139679908,0.9723863005638124
3.31186669921875,-1.345540456224978,0.2422834099596366,1.2029536477595566,0.0395934991538524,0.0784713253378868,0.9737753868103028
3.3218935546875,-1.535817528887093,0.3075182813383638,0.9666483988940716,0.0857793688774108,0.198816642165184,0.9486114382743835
3.331921630859375,-1.7793268639124928,0.2357499165376648,0.5829278984934091,0.148047387599945,0.2632923722267151,0.902478814125061
3.34194873046875,-1.9469095819465816,0.1654169548349454,0.187263277798891,0.2226901948451995,0.2856626808643341,0.8578357100486755
3.3519765625,-1.9321122641786928,0.1112937623807694,-0.1506505801945924,0.2879659533500671,0.2715545296669006,0.8268774151802063
3.362004638671875,-1.851481561149657,-0.0655338725916109,-0.4038642937630414,0.33321413397789,0.225275456905365,0.8083109259605408
3.372031494140625,-1.7279995583876966,-0.3227191018732264,-0.5219990902781486,0.3476926684379577,0.1558452546596527,0.7947599291801453
3.382059814453125,-1.5591192017585038,-0.6029204833494499,-0.5163993705749511,0.3370773196220398,0.0714606046676635,0.7944403886795044
3.392087646484375,-1.3779805443197488,-0.8228255458276719,-0.5039356103211641,0.3120403885841369,-0.0100764436647295,0.8053616285324097
3.402114501953125,-1.2113246588069946,-0.9235987270448356,-0.4258990154385566,0.2907955348491668,-0.0824347957968711,0.832298994064331
3.412142578125,-1.0900752374026923,-0.9412116867553442,-0.3612929800152778,0.276024729013443,-0.119344338774681,0.8698203563690186
3.422170654296875,-0.9786213068909942,-0.926111148257181,-0.2457324179023504,0.2648511528968811,-0.1310180425643921,0.9127121567726136
3.43219775390625,-0.8929613775230943,-0.8405437925435603,-0.0234223766416311,0.2497717142105102,-0.1342613101005554,0.9563512802124025
3.4422255859375,-0.7562433880258351,-0.7574164503931998,0.2004763951152563,0.2355445772409439,-0.1348293721675872,0.9871036410331726
3.45225244140625,-0.7232670010972768,-0.6540368860699236,0.4746037173748016,0.2250692397356033,-0.1372682303190231,0.9981209635734558
3.46228076171875,-0.5773780823465436,-0.5807942109329626,0.7515162864387035,0.2185708582401275,-0.1336143761873245,0.9979130029678344
3.47230859375,-0.4326606915932148,-0.4943862762093544,0.960370049276948,0.2178729772567749,-0.1148567497730255,0.9792035222053528
3.482335693359375,-0.5124918417423964,-0.4043647540984675,1.097833815640211,0.2238637655973434,-0.0883814692497253,0.951170027256012
3.492363525390625,-0.4079042168036103,-0.3497862282253801,1.2487199581563473,0.2311802506446838,-0.067048855125904,0.9221846461296082
3.502391845703125,-0.3420227546170353,-0.3092909535666927,1.342683605489135,0.242727980017662,-0.0481795594096183,0.8903492093086243
3.51241845703125,-0.3944597018841654,-0.2165674607544206,1.4231389519512652,0.260662317276001,-0.0181354954838752,0.8594722747802734
3.522446533203125,-0.4166575051669031,-0.0703315369306132,1.5201163941472768,0.2781260013580322,0.0371211022138595,0.8309400081634521
3.5324736328125,-0.4440278887819499,0.091138598241005,1.5657289752870798,0.2927892506122589,0.1140472292900085,0.8014894723892212
3.542501708984375,-0.6055676003247499,0.2658087172527797,1.5979285326242445,0.3053795993328094,0.2028974741697311,0.7524920701980591
3.55252978515625,-0.802245845266059,0.4141083686733618,1.5290525647968054,0.3220113813877105,0.2987121939659118,0.6920478940010071
3.562556640625,-0.962250602326542,0.568688981793262,1.4045195916771889,0.3408598899841308,0.3928011357784271,0.6236525774002075
3.57258447265625,-1.1489248281911015,0.6654978259567171,1.2190730079114436,0.35390505194664,0.4695069491863251,0.5475811958312988
3.58261279296875,-1.30948115471974,0.6928853068370372,1.0067530302673575,0.3521974384784698,0.5169892311096191,0.4695769548416137
3.592639404296875,-1.4780457233980298,0.6591992372691631,0.7325298464179039,0.3415524363517761,0.5475108027458191,0.3976103067398071
3.602667724609375,-1.590839158885181,0.6236182208001613,0.4072153577566146,0.3216855227947235,0.5560230612754822,0.3476288914680481
3.612695556640625,-1.600814317193627,0.6143298757120966,0.0699146632254123,0.3025484681129455,0.5413230657577515,0.3175050020217895
3.62272265625,-1.648355820569396,0.5354665476817637,-0.2369201658934354,0.2758660018444061,0.4995399415493011,0.3010266721248626
3.63275048828125,-1.7047529767043887,0.4582241719167679,-0.4435416396349668,0.2343537658452987,0.4341736435890198,0.2898780703544616
3.642777587890625,-1.700796640294045,0.3699303503813221,-0.5189765275865793,0.1760039031505584,0.3588692843914032,0.2843149900436401
3.6528056640625,-1.71568426669389,0.2821499217281117,-0.5592898332744837,0.119486466050148,0.2933385968208313,0.2828334271907806
3.662833740234375,-1.7365455606758593,0.2016405435238033,-0.6005518179893493,0.0604226142168045,0.2525922358036041,0.2797918319702148
3.6728603515625,-1.688095418022573,0.1657875417130067,-0.5497200408965349,-0.0027856500819325,0.2291005104780197,0.2770777940750122
3.682888671875,-1.567987275607884,0.1125177603509277,-0.4936562083691358,-0.0675830245018005,0.221773624420166,0.2747693657875061
3.69291650390625,-1.5056908323012292,0.0529246577188372,-0.427826768630743,-0.1302621215581894,0.2333097159862518,0.2572948634624481
3.70294384765625,-1.5228371974132957,0.0623573797136545,-0.4042863185673951,-0.2073584944009781,0.260524034500122,0.2335911244153976
3.712971435546875,-1.4328341242745517,0.0254617735147476,-0.3305371917456388,-0.2888863682746887,0.2698245942592621,0.2009442299604416
3.72299853515625,-1.2602196956835687,-0.0963098816653713,-0.3090279552489519,-0.3598976731300354,0.2949531376361847,0.1634296178817749
3.733026611328125,-1.2016147273059934,-0.1648878529269248,-0.4127677311867475,-0.4187566637992859,0.3215482234954834,0.118986390531063
3.7430546875,-1.0840642334848642,-0.2576335758373141,-0.5467664517879486,-0.449387788772583,0.3304160237312317,0.0849463939666748
3.75308154296875,-0.870594574349001,-0.4077652467243373,-0.8437047407925129,-0.4276566207408905,0.316846638917923,0.0507257431745529
3.763109619140625,-0.7160134497724473,-0.3775300847953185,-0.9969698873996734,-0.3695187568664551,0.2556567788124084,0.0276489201933145
3.7731376953125,-0.5924567743390798,-0.1923621353078633,-1.1142916139662264,-0.2993665039539337,0.2236459553241729,-0.0110595235601067
3.78316455078125,-0.7837543491553515,0.0212161535679362,-1.2554817073762417,-0.2198943197727203,0.2429165989160537,-0.0966804176568985
3.7931923828125,-1.2025040042959152,0.2120697840089909,-1.361094291448593,-0.156804546713829,0.2825908660888672,-0.2366531640291214
3.803220703125,-1.5839078983172774,0.3723830407630652,-1.367151691791415,-0.1299281865358352,0.3022173047065735,-0.4040906131267547
3.81324755859375,-1.71171185593158,0.3640761809930205,-1.4014777397632598,-0.1234286576509475,0.2716898024082184,-0.5726029872894287
3.82327587890625,-1.6476995486177504,0.2036276987530291,-1.4956810410708188,-0.1117994263768196,0.1811452805995941,-0.7067034840583801
3.833302490234375,-1.3914835844933986,-0.0685512476514093,-1.6797025604695082,-0.0860629379749298,0.0310317408293485,-0.7836288213729858
3.84333056640625,-0.951640287919715,-0.4004696098234504,-1.7475269734174013,-0.0584600679576396,-0.1575536280870437,-0.7884182333946228
3.853358642578125,-0.4624361635886132,-0.6822935510002076,-1.635095356979966,-0.0340922027826309,-0.3453124463558197,-0.7210421562194824
3.863385498046875,-0.0719672666399739,-0.8943264553312211,-1.3483686653882263,-0.0303118452429771,-0.5153451561927795,-0.6088117957115173
3.87341357421875,0.1838704935554415,-1.0678572681147604,-0.8835013291299343,-0.0480367504060268,-0.6362858414649963,-0.4797469675540924
3.883441650390625,0.4233658802317455,-1.2219758897460995,-0.3949655325144529,-0.0974138900637626,-0.7034659385681152,-0.3339532613754272
3.893468505859375,0.8160656232386827,-1.26891767366305,0.1505073723316192,-0.1673538535833358,-0.7210056781768799,-0.1824658364057541
3.90349658203125,0.9714400170847772,-1.21963458731696,0.6254132875233889,-0.2398405820131302,-0.6746019721031189,-0.0547214448451995
3.9135244140625,1.0517039326280355,-1.1212923595737665,1.0581266591519116,-0.3127857148647308,-0.5943062901496887,0.0649688765406608
3.9235517578125,1.23883467008844,-1.0729045415669678,1.4266501749426126,-0.3740437626838684,-0.4768707454204559,0.1586231887340545
3.93357958984375,1.2099844231791794,-1.0334943952638656,1.6495675344467162,-0.4090992212295532,-0.3641029298305511,0.2157035171985626
3.9436064453125,1.2293179230719804,-1.0669904952175917,1.7573580470800398,-0.4147070348262787,-0.2339584976434707,0.2510018646717071
3.953634521484375,1.2708946728244424,-1.031682304340601,1.770187133514881,-0.4000056385993957,-0.1059315055608749,0.2736710608005523
3.96366259765625,1.4115943523690104,-0.9361674820430576,1.765463027602434,-0.3698221743106842,0.0061699980869889,0.2756673693656921
3.973689697265625,1.2536276039421557,-0.8833529336351901,1.6853186467856167,-0.3105508089065552,0.1154447048902511,0.2459220439195633
3.983717529296875,1.0527810603402554,-0.8323284835144877,1.5471464398920536,-0.2207524478435516,0.2106748223304748,0.1804117411375045
3.99374560546875,0.8052562060631812,-0.7200467969417571,1.3141829026699066,-0.1057045459747314,0.3159675300121307,0.0921255052089691
4.003772705078125,0.5135257879000157,-0.5809593018341809,1.013190369838476,0.0224965661764144,0.3897764980792999,-0.003199147991836
4.013800537109375,0.381214655059576,-0.5008945621248334,0.750717245015502,0.1483926773071289,0.4343373775482178,-0.0832621902227401
4.02382763671875,0.3196842276893556,-0.5188511476412415,0.4584983857482671,0.2512860298156738,0.444521814584732,-0.1414988785982132
4.03385546875,0.2925767693268135,-0.5733349809681997,0.2753571563154459,0.319661021232605,0.4178972542285919,-0.174354076385498
4.0438837890625,0.257465087402612,-0.6554658959597349,0.120371177265048,0.3587287962436676,0.3652790486812591,-0.186608612537384
4.05391064453125,0.1816099282123148,-0.7627426869172602,-0.133978262335062,0.373738169670105,0.2967779040336609,-0.1799085736274719
4.0639384765625,0.1289097268991172,-0.8141472954619675,-0.2850590506404638,0.3658179342746734,0.2102523446083068,-0.1451402157545089
4.073966552734375,0.1954997757464647,-0.8108695159003138,-0.2943541177302599,0.3330549001693725,0.1213090270757675,-0.0787306353449821
4.08399365234375,0.2165086067066527,-0.7477166018947958,-0.2101139920324087,0.2858501076698303,0.0468691475689411,0.0017391794826835
4.094021728515625,0.1653084164265543,-0.667360258827731,-0.1040963342905044,0.2373099476099014,-0.0220627132803201,0.0763410776853561
4.104049560546875,0.1023509701942093,-0.5800750663455575,0.058753217741847,0.1974733173847198,-0.087589256465435,0.143577367067337
4.114076416015625,0.1145897625857032,-0.4043628178697079,0.2746989846676588,0.1690776199102401,-0.1342076361179351,0.2001727372407913
4.124104736328125,0.1060023231754545,-0.1745902221759781,0.4588882618486881,0.1557109504938125,-0.1545275449752807,0.2407904714345932
4.13413134765625,0.0175098874951014,0.0819414751003496,0.645286447250843,0.1495372503995895,-0.1504205763339996,0.264964610338211
4.14415966796875,-0.006587653028313,0.2957073772364296,0.8509563193559646,0.1494483053684234,-0.1304647177457809,0.2854645550251007
4.1541875,0.026434417939186,0.4477116918612271,1.0340203918993471,0.1502028554677963,-0.0929586440324783,0.2923521697521209
4.164214599609375,0.0110350882906932,0.5704038594197481,1.1273147616684436,0.1496467888355255,-0.0449304021894931,0.2922973036766052
4.17424267578125,0.041153473705938,0.6671637133423238,1.1904063008755446,0.1470082104206085,-0.0041252071969211,0.2869040369987488
4.1842705078125,0.1116140621100086,0.7295653705891222,1.213572656929493,0.1433729976415634,0.0268526822328567,0.2850358188152313
4.194297607421875,0.1874321680923923,0.7976881819617003,1.1637322289615868,0.1381848156452179,0.0437738187611103,0.2901451289653778
4.20432568359375,0.2636640151079744,0.8577909876815974,1.109572184228897,0.1244186758995056,0.0595589056611061,0.30380579829216
4.214353759765625,0.3232907642813399,0.9319402197368444,1.0231336717039343,0.1079289689660072,0.0818856433033943,0.3244048953056335
4.224380615234375,0.3418038146367296,1.0051016097985208,0.937059316316247,0.0812664628028869,0.1004486754536628,0.3389297723770141
4.234408447265625,0.3329785204831511,1.0770067892540245,0.7650339396595954,0.0479455590248107,0.1228196918964386,0.3452091515064239
4.244435791015625,0.3341511444590985,1.1405499446861445,0.652056379777193,0.0100533012300729,0.1048673242330551,0.3403062522411346
4.25446337890625,0.389346961980313,1.1608115922745317,0.5740273836791515,-0.0240366421639919,0.0732450261712074,0.3256345987319946
4.26449169921875,0.3388845661891624,1.2410774805791676,0.3685679394543171,-0.0450399257242679,0.049520518630743,0.3045708835124969
4.2745185546875,0.2679537116585299,1.280917469666898,0.2888146037817001,-0.052684411406517,-0.017521372064948,0.2735478281974792
4.284546630859375,0.2779352814414538,1.2920607949718832,0.2406114216268062,-0.0567619763314724,-0.0770387649536132,0.231833666563034
4.29457470703125,0.1948656973603181,1.2975062008962035,0.170360658314824,-0.0530205890536308,-0.1389267742633819,0.1883332878351211
4.3046015625,0.1961693273047916,1.2138831111181527,0.1788981850355863,-0.053318865597248,-0.1984444260597229,0.1589426398277282
4.314629638671875,0.3139320208381861,1.0782204758927223,0.1638642820328474,-0.0544621907174587,-0.2280452251434326,0.1514948308467865
4.32465673828125,0.4060630459163338,0.9642623074751346,0.1581868209183216,-0.05808861926198,-0.23613803088665,0.1628146022558212
4.334684326171875,0.4681273609675466,0.9066662969443946,0.2017103208243846,-0.0798135548830032,-0.2394488304853439,0.182165652513504
4.344712646484375,0.5202583840906619,0.8150393489308655,0.2654372353255748,-0.1064068153500557,-0.2303557395935058,0.2042395323514938
4.354739501953125,0.4728424798559397,0.7356603264633566,0.2596159818261861,-0.1360921859741211,-0.2062866538763046,0.228449672460556
4.364767822265625,0.3830777089850977,0.6821893599733709,0.2616413501739502,-0.1673116236925125,-0.1748443096876144,0.2484699934720993
4.37479541015625,0.2582079416591674,0.6772086489513516,0.2525228086948394,-0.2000413686037063,-0.146453708410263,0.2712453603744507
4.384822509765625,0.1923192825468257,0.6211341488994657,0.2000461870044469,-0.2217264324426651,-0.1357595175504684,0.2972162365913391
4.3948505859375,0.1695807782498188,0.5297899633500724,0.1182265664517879,-0.2343878597021103,-0.1242248937487602,0.3317088484764099
4.404878662109375,0.1645212115716189,0.4608974827792495,-0.0041693946391344,-0.2377884536981582,-0.1108550280332565,0.3767985701560974
4.414905517578125,0.182031423293706,0.4452932325426489,-0.0645130964428186,-0.2542420923709869,-0.1142357885837555,0.4358818233013153
4.42493359375,0.188136279507447,0.4655770188976079,-0.0870721342533826,-0.2844370305538177,-0.1213719993829727,0.4989806115627289
4.43496044921875,0.1046501322483643,0.4963467991599812,-0.0970411550819873,-0.3326649069786072,-0.153116300702095,0.550422728061676
4.44498876953125,-0.0934718817604705,0.5515168977180496,-0.0747790543913841,-0.36734139919281,-0.1940741240978241,0.5645138025283813
4.455016357421875,-0.3804564936360344,0.5664142417943104,-0.1747504177063703,-0.3635820746421814,-0.2153228372335434,0.5373395085334778
4.465043701171875,-0.6928444633699953,0.5978836582260206,-0.3802531165510416,-0.3186465501785278,-0.2048765867948532,0.4840017259120941
4.475071533203125,-0.8996085604526102,0.6416511594884097,-0.5739502267897129,-0.2503379285335541,-0.1711658537387848,0.4241770505905151
4.485099853515625,-0.980837229374796,0.6049336132701486,-0.6742904234170913,-0.184387668967247,-0.1216480955481529,0.3662703335285187
4.49512646484375,-1.1259786907590923,0.4757411239068955,-0.7890256406217813,-0.1215694397687912,-0.0516547337174415,0.2991433143615722
4.505154541015625,-1.3127587150856852,0.2969826396029442,-0.9876315656900404,-0.0651011019945144,0.0281564779579639,0.2347443252801895
4.5151826171875,-1.501630743255466,0.14336324533117,-1.2750275348454714,-0.0119689684361219,0.0983130633831024,0.1748095601797104
4.525209716796875,-1.601068584215641,-0.0033136819920968,-1.5697604227602482,0.0260383337736129,0.141546830534935,0.1407929956912994
4.535237548828125,-1.6228167440347372,-0.209242488161195,-1.7910925588995217,0.0414691902697086,0.1234458312392234,0.1276044994592666
4.5452646484375,-1.5731510881118476,-0.4943625300075858,-1.9101175822526213,0.0429778732359409,0.0374861806631088,0.131271407008171
4.55529248046875,-1.428446995231509,-0.759337919975072,-1.88925131983459,0.0330979600548744,-0.11799918115139,0.1584579646587371
4.56532080078125,-1.1949193213205784,-0.9690705114744604,-1.7124194196790457,0.0197520609945058,-0.3074335753917694,0.2182371467351913
4.575347412109375,-0.96182777380459,-1.1729203285455705,-1.5098165339291094,0.0165362935513257,-0.4911259710788727,0.3051088452339172
4.585375732421875,-0.7484313260354101,-1.2700813106149431,-1.1456944679677483,0.0098887775093317,-0.642143726348877,0.4098461866378784
4.595403564453125,-0.5862951829694211,-1.2852870630532502,-0.642479573136568,0.0028513430152088,-0.7176390290260315,0.5166136026382446
4.605430419921875,-0.5508569359719753,-1.2294348274499176,-0.1602554438859224,0.0038415063172578,-0.7003418207168579,0.6091813445091248
4.61545849609375,-0.548683172129467,-1.1240070984251798,0.3529576978683471,-0.002882826840505,-0.6160455346107483,0.6880744695663452
4.625486572265625,-0.5503332043588162,-0.985549864045158,0.8168786931872367,-0.0242219362407922,-0.4819713830947876,0.7471646666526794
4.635513671875,-0.5638878285892307,-0.919311405114457,1.1072978095561266,-0.0482548363506794,-0.3289244771003723,0.7921580672264099
4.645541748046875,-0.5439508829105645,-0.8928391393829137,1.2411796257793903,-0.0631054192781448,-0.1840788871049881,0.8236084580421448
4.655568359375,-0.4626232105933129,-0.8760254402913152,1.2519383356809617,-0.0628087744116783,-0.0490305349230766,0.8468274474143982
4.6655966796875,-0.4301595224272459,-0.8280692917000502,1.1067723243772982,-0.0388251468539238,0.066142126917839,0.857158899307251
4.67562451171875,-0.4266584555037319,-0.7836226125344634,0.9729705876529215,0.0011102876160293,0.1573957800865173,0.8494071960449219
4.685651611328125,-0.4806245850995183,-0.7375203481815755,0.818235953015089,0.0505838319659233,0.2434728741645813,0.8229404091835022
4.695679443359375,-0.576385637243092,-0.6677811145883054,0.6535843199968338,0.0953141972422599,0.3235785663127899,0.7808944582939148
4.705707763671875,-0.668504679622501,-0.6153516199752688,0.5251806429237127,0.1263781040906906,0.3756154179573059,0.7281447052955627
4.715734619140625,-0.7052285094510764,-0.6047273501083255,0.3937625864654779,0.1440469473600387,0.3881601989269256,0.6682263612747192
4.725762451171875,-0.7238399056144058,-0.630392537240684,0.2335831304252147,0.1576706022024154,0.3603980541229248,0.6131367683410645
4.735791015625,-0.6973758962545543,-0.6699409229706973,0.0611883359342813,0.173205092549324,0.3042360842227936,0.5686019062995911
4.745818115234375,-0.693839684952423,-0.6655683339096605,-0.0732388392120599,0.1927172690629959,0.2285935282707214,0.5391920804977417
4.755845947265625,-0.5905665401456878,-0.7164575402781367,-0.1471720904290676,0.2022092193365097,0.1319894343614578,0.5276520848274231
4.765873046875,-0.4276139295976608,-0.7435438462547957,-0.0684510204136371,0.1939121335744857,0.0427397191524505,0.5356881618499756
4.77590087890625,-0.369738992527686,-0.7014631655681878,0.0812573104947805,0.1659934520721435,-0.0397395975887775,0.544975221157074
4.78592919921875,-0.4006973541647196,-0.5988109291387722,0.2783785499632358,0.1315025836229324,-0.1073282361030578,0.5388224720954895
4.7959560546875,-0.4674181532522663,-0.4900239528140053,0.4770791675776243,0.1049302816390991,-0.1482855826616287,0.5222960114479065
4.80598388671875,-0.5111645021287724,-0.3522101674366742,0.6298544848412275,0.1056876853108406,-0.1420266181230545,0.5053620934486389
4.816011962890625,-0.5603606773763895,-0.1586312036849558,0.732154583364725,0.1182630434632301,-0.1100418418645858,0.4923956990242004
4.8260390625,-0.6109160852132365,0.0178525725860847,0.940151437112689,0.1335514485836029,-0.072554126381874,0.4850714802742004
4.836067138671875,-0.6749447956725955,0.1232248039973434,1.0598048214972018,0.1466015577316284,-0.0248262248933315,0.4709835946559906
4.846093994140625,-0.7637113127537071,0.1636202806765213,1.1092723244994878,0.1550674736499786,0.0272260569036006,0.4444936513900757
4.856121826171875,-0.8545616503715515,0.2174121862165629,1.1437953563481569,0.1567791849374771,0.0848183035850524,0.4284241199493408
4.866150146484375,-0.9449382329978048,0.3049902241654694,1.1542501148670912,0.1535370498895645,0.1428941190242767,0.4148302674293518
4.876177001953125,-0.991444401976466,0.3687347839212045,1.130536646324396,0.1407751441001892,0.1824220716953277,0.4096903502941131
4.886205078125,-1.075521226871386,0.4018581050397828,1.0815735857129096,0.1257557123899459,0.2264531850814819,0.4037890434265136
4.89623291015625,-1.1917102230809629,0.4507869345881045,0.9343032956063748,0.1176797151565551,0.2584166526794433,0.3970410525798797
4.906260009765625,-1.3914496822237967,0.4689642136504873,0.7912485773682594,0.1272404640913009,0.2661504745483398,0.3856075704097748
4.9162880859375,-1.4415391165167093,0.4442645470820367,0.6014315234333276,0.1412318050861358,0.2697905600070953,0.3783109784126282
4.92631591796875,-1.475739784543216,0.4884505660174414,0.3910229323685169,0.157848060131073,0.2611091732978821,0.3799866437911987
4.936343017578125,-1.5451182950653135,0.508083304585144,0.2449263622164726,0.1802776753902435,0.2332894206047058,0.3890322744846344
4.94637109375,-1.4973545272409916,0.4788731383223086,0.1279173548609018,0.1891558617353439,0.1907147914171219,0.4160527288913727
4.956397705078125,-1.3230571139991285,0.4887362876236438,0.0665279433965683,0.1724419742822647,0.1690816581249237,0.4516795575618744
4.966426025390625,-1.4384166005820036,0.5331313827324659,0.0433633409082889,0.1404616683721542,0.1655234098434448,0.4799023866653442
4.976453857421875,-1.4889571396432817,0.5515111255643889,0.0579313799649476,0.093660220503807,0.1818494796752929,0.5067451596260071
4.986481201171875,-1.3897156980380414,0.5846486578714102,0.0377174439758062,0.0374773778021335,0.1990878582000732,0.5297354459762573
4.996509033203125,-1.3401013339109715,0.6216079038910567,-0.0292488908380269,-0.0093704340979456,0.2193962186574936,0.5441285371780396
5.006537109375,-1.3495514454320072,0.6447249409105629,-0.139690794762969,-0.0349551551043987,0.2412583827972412,0.5451972484588623
5.01656396484375,-1.31875050284639,0.6643984864126891,-0.3210392955601215,-0.0449763126671314,0.258839339017868,0.5507659912109375
5.026592041015625,-1.2063966278202831,0.6760005883358419,-0.4769762917250394,-0.0468567721545696,0.2636396884918213,0.5520056486129761
5.0366201171875,-1.1467116821862755,0.6811788677565753,-0.5970575461328029,-0.0523276068270206,0.2680088877677917,0.5456901788711548
5.04664697265625,-1.1592924198832362,0.6426083140827715,-0.6869803936421871,-0.0580006726086139,0.258986085653305,0.5235787034034729
5.056675048828125,-1.1556299518529325,0.5821349945500492,-0.751412826064229,-0.0688591822981834,0.2304990440607071,0.5003804564476013
5.0667021484375,-1.113932425265014,0.5773453125881031,-0.7782429653227328,-0.0839214846491813,0.1881379932165146,0.4723866283893585
5.076729736328125,-1.0687376311458647,0.5591084122929721,-0.8128057446599006,-0.0944095775485038,0.1413039863109588,0.4445415437221527
5.086758056640625,-1.0134903756983578,0.4843552595278247,-0.8369809854954481,-0.0987252295017242,0.0991783738136291,0.4188590943813324
5.096784912109375,-0.97047467918396,0.4131981584932654,-0.7876011607766151,-0.1020203605294227,0.0632602348923683,0.407897412776947
5.106813232421875,-0.8662237388536334,0.3419624027319252,-0.650734191262722,-0.1120290458202362,0.0346011593937873,0.4147614240646362
5.116841064453125,-0.7481077931694686,0.2892379072276875,-0.4917588503152131,-0.1321064829826355,0.0156151391565799,0.4394503235816955
5.126867919921875,-0.6930198930021375,0.275676761924941,-0.3196376120686531,-0.1581631153821945,0.0194876417517662,0.4608030021190643
5.13689599609375,-0.7369746239323168,0.3022885274587198,-0.2132072818726301,-0.1768419593572616,0.0631413981318473,0.4648179709911346
5.146924072265625,-0.8781711470831185,0.3538649489063769,-0.2276560784637928,-0.1799221783876419,0.1396175175905227,0.4437587559223175
5.156950927734375,-1.0293138216435909,0.4094216721618547,-0.3158504947453737,-0.1643488556146621,0.2180182039737701,0.4021928906440735
5.16697900390625,-1.130109726149216,0.4008945572372526,-0.443558006247878,-0.1324199587106704,0.2751256823539734,0.3328638672828674
5.177005859375,-1.288518738450855,0.386163363508135,-0.5980915653556585,-0.0818675085902214,0.3184879422187805,0.2381720542907714
5.1870341796875,-1.547727162389457,0.4005119876604527,-0.8928887506783008,-0.0102583039551973,0.3468798995018005,0.1322381645441055
5.197061767578125,-1.7468248164974152,0.3991132998436689,-1.2095967390358446,0.0640000402927398,0.3547478914260864,0.0389427281916141
5.207089111328125,-1.753206480358541,0.2508855628818273,-1.4401812721669671,0.1185208037495613,0.3173387348651886,-0.0180049762129783
5.217116943359375,-1.6288773592479526,-0.0680340645100455,-1.534925840744376,0.1470998376607895,0.2283771783113479,-0.0316532850265502
5.227145263671875,-1.4065687792919574,-0.4175377220675349,-1.5021213032513856,0.1427154690027237,0.0860938057303428,0.0045190993696451
5.237171875,-1.0855503803893922,-0.7405534322671592,-1.3343354638606308,0.115022949874401,-0.0955192446708679,0.0944946035742759
5.247199951171875,-0.6554169422514736,-1.0433205004904418,-0.994880221644044,0.0636135563254356,-0.2754264175891876,0.234112411737442
5.25722802734375,-0.2884414230877533,-1.2315085649840534,-0.5536041888535023,0.0118169346824288,-0.3903654515743255,0.4062800109386444
5.267255126953125,-0.08422153972839,-1.2490396916300055,-0.0853413649380207,-0.0436601713299751,-0.4186593890190124,0.5883755087852478
5.277282958984375,-0.0001451246837794,-1.1401168139658868,0.4244944093376397,-0.1112983897328376,-0.3779590427875519,0.7634840607643127
5.28731005859375,0.1008532241834327,-0.9648873805709184,1.0050970797538756,-0.1938894242048263,-0.3116290271282196,0.9152815937995912
5.297337890625,0.2318720521910116,-0.8627667302675545,1.5152414815872908,-0.2721555233001709,-0.2301593273878097,1.030664563179016
5.3073662109375,0.1889560897240415,-0.6989957525413483,1.836292467585206,-0.3257135450839996,-0.1306575089693069,1.1049795150756836
5.317392822265625,0.0871953131084796,-0.4826624110700562,1.998512489542365,-0.3445987105369568,-0.0331979244947433,1.144081473350525
5.327421142578125,0.0393386793689336,-0.2866208565970882,1.995346134465933,-0.3248234093189239,0.0390432514250278,1.1602628231048584
5.337448974609375,-0.0072570949887856,-0.1246875608931295,1.8702257168471808,-0.278444766998291,0.0789912790060043,1.1454898118972778
5.34747607421875,-0.196818584993761,0.0076096530198119,1.7355682400763033,-0.2148053348064422,0.0862428098917007,1.0926185846328735
5.35750390625,-0.4244683615809306,0.1019107521460391,1.5843997734874486,-0.132425844669342,0.0802254229784011,1.0022693872451782
5.367531982421875,-0.6362769191041588,0.1598665541661903,1.346324007818103,-0.0324798077344894,0.0763774216175079,0.8903630971908569
5.37755908203125,-0.8157725585762411,0.2380151032569818,1.1364677899390458,0.0708259493112564,0.0770481005311012,0.7692235708236694
5.387587158203125,-0.946414369964972,0.295931413516961,0.9446464104443788,0.1706753224134445,0.0832271724939346,0.6552967429161072
5.39761376953125,-1.0814061201915144,0.2460091707508079,0.7344500008255243,0.2575106620788574,0.093968279659748,0.5599493980407715
5.40764208984375,-1.1497346832692623,0.0929035803532227,0.553078703674674,0.3317018151283264,0.096169114112854,0.5000383853912354
5.417669921875,-1.094458567053452,-0.1226628501324914,0.3811328219950199,0.3858600854873657,0.0812013894319534,0.4793795943260193
5.427697265625,-1.049729709945619,-0.3246772867362946,0.183065241587162,0.4265989661216736,0.0567647516727447,0.492441862821579
5.437724853515625,-0.991838735056296,-0.5153672875808551,-0.0052712184011936,0.4499810338020324,0.0145138334482908,0.5483084321022034
5.4477529296875,-0.8331963523901998,-0.6868181157525628,-0.1070043306916952,0.4444176852703094,-0.0345871336758136,0.6436453461647034
5.457780029296875,-0.686202979528904,-0.8041114199422299,-0.0839835205882787,0.4138432443141937,-0.0749533250927925,0.773777425289154
5.46780810546875,-0.5790046971676871,-0.8694562910340726,0.0192342773020267,0.3537002801895141,-0.1233996897935867,0.9208086729049684
5.4778349609375,-0.5075255245719105,-0.8455082830831409,0.1647054090321064,0.2776689231395721,-0.1317612677812576,1.0646437406539917
5.487863037109375,-0.600046060424298,-0.6986492041260004,0.2550941204875707,0.2036815136671066,-0.1031117886304855,1.201358437538147
5.49789111328125,-0.5505587567429989,-0.5366445054199547,0.4390437436938285,0.1369030177593231,-0.0804458856582641,1.3241735696792605
5.50791796875,-0.4864893489470705,-0.287002695521526,0.6238099439799786,0.0836887881159782,-0.0492317751049995,1.414170265197754
5.51794580078125,-0.5561587321745232,-0.0549786037071142,0.7197516133874654,0.0608844943344593,-0.0249918047338724,1.4611903429031372
5.52797412109375,-0.6282644391708075,0.1584230225606821,0.7974585379242897,0.0622895769774913,-0.014709074050188,1.4764279127120972
5.5380009765625,-0.609865443649143,0.4019706985687837,0.8751520184576511,0.0796703398227691,-0.0117377582937479,1.4716215133666992
5.548029296875,-0.5992944383393973,0.5978424494327977,0.8929454493016004,0.1116620972752571,-0.0040212492458522,1.4476978778839111
5.558056884765625,-0.6168801447167992,0.7421626940947026,0.8994500088900327,0.1533055901527404,0.0134666990488767,1.4058173894882202
5.568083984375,-0.6462688093516975,0.888181011378765,0.8716115693718195,0.193291887640953,0.0526931956410408,1.3569680452346802
5.578112060546875,-0.6772822256442159,0.9953024656441062,0.826199479240179,0.2160873413085937,0.0970460921525955,1.3060808181762695
5.588138916015625,-0.7153307282052934,1.0578121863752603,0.7569336353123187,0.2303693443536758,0.1421083807945251,1.2471296787261963
5.5981669921875,-0.758885280836746,1.0715557573065162,0.626709172552824,0.2285136133432388,0.1708825528621673,1.1908060312271118
5.608195068359375,-0.6848000539284199,1.0120904457725584,0.4714502217799425,0.2165485620498657,0.1810622215270996,1.1534509658813477
5.618221923828125,-0.5636825883407145,0.9439965682335196,0.3050958764970302,0.1979308426380157,0.1800344586372375,1.1336685419082642
5.62825,-0.5327966708853841,0.8978921119235456,0.1317044721841812,0.1775360852479934,0.1692768782377243,1.119644045829773
5.63827783203125,-0.6056063248999416,0.8665536283951252,-0.0047147535622119,0.1594760715961456,0.1478957533836364,1.1138285398483276
5.64830517578125,-0.6855934693284332,0.861767051705718,-0.1372305421292781,0.1429434418678283,0.1221144869923591,1.115726351737976
5.6583330078125,-0.7050433621425182,0.8724988736003637,-0.2052080998122692,0.1204000487923622,0.091529943048954,1.129937767982483
5.66836083984375,-0.7121635694112628,0.9020812341764568,-0.1620639546126127,0.0883361250162124,0.058035634458065,1.1469087600708008
5.678387939453125,-0.7225620676983148,0.89793522041291,-0.0746428607910871,0.0474099367856979,0.0224282443523406,1.168126106262207
5.688416015625,-0.6943515069320797,0.8618595522947609,0.0130991355478763,0.0025407308712601,-0.0147180594503879,1.195383071899414
5.698443115234375,-0.6254763428222387,0.8182996659010648,0.148749130487442,-0.0418841987848281,-0.0520190522074699,1.2239528894424438
5.708470947265625,-0.5943237372547387,0.7990523829869925,0.2742220148056745,-0.0737625062465667,-0.091817058622837,1.243305206298828
5.7184990234375,-0.6672392627965659,0.8070593099623918,0.3663987787216901,-0.0848891288042068,-0.1241917386651039,1.2583012580871582
5.728525634765625,-0.6433225998319685,0.8232582381565123,0.4555629168182611,-0.0836784541606903,-0.1313633769750595,1.2786803245544434
5.73855322265625,-0.6080202176412567,0.8721385158553719,0.5424386517167091,-0.0758282020688057,-0.1143191903829574,1.3004909753799438
5.74858154296875,-0.6581951017279177,0.9353955478224902,0.6295984642535448,-0.0787361115217208,-0.0683008357882499,1.310492753982544
5.7586083984375,-0.7237393678493798,0.9675300040341912,0.7117109302729367,-0.0893869400024414,-0.0067607224918901,1.313618302345276
5.768636474609375,-0.7915699913423508,0.9752744806811212,0.7149035888344049,-0.1106871664524078,0.0585698150098323,1.3005595207214355
5.77866455078125,-0.8474028646580875,0.9625604719933122,0.6430740318983793,-0.133957639336586,0.092291459441185,1.2832598686218262
5.78869140625,-0.8542265731982887,0.9079903851550072,0.5009720843404531,-0.1547654420137405,0.0943077355623245,1.2569475173950195
5.798719482421875,-0.8482186380203813,0.7870680037479847,0.3139911306142807,-0.1661605387926101,0.0651841387152671,1.2306371927261353
5.80874658203125,-0.843380404208973,0.6913765097092837,0.1094599071502685,-0.1640944480895996,0.0138596994802355,1.20315420627594
5.818774169921875,-0.7799143326010555,0.5782607834652066,-0.0269067116260528,-0.1593272238969802,-0.0499418936669826,1.184989094734192
5.828802490234375,-0.723272992446646,0.5001355604510754,-0.0985655881702899,-0.154418483376503,-0.1174783334136009,1.1712632179260254
5.838829345703125,-0.6876749517776072,0.396734113089554,-0.1171995614916086,-0.1531089395284652,-0.1734756827354431,1.1611731052398682
5.848857666015625,-0.5818426605399698,0.2632044165058992,-0.119932785847783,-0.1584885269403457,-0.2362418472766876,1.16753888130188
5.858885498046875,-0.3011564729551784,0.1612812250033952,0.0060316813796758,-0.1744883060455322,-0.2945111393928528,1.1902192831039429
5.868912353515625,-0.3182597113115712,0.1602002248336561,0.0956032312333583,-0.1846818178892135,-0.3440480530261993,1.2067506313323977
5.8789404296875,-0.3637831163305789,0.1323383131083101,0.1768967820852995,-0.1916629523038864,-0.3609674274921417,1.2175976037979126
5.888968505859375,-0.227347012514621,0.056900447748322,0.2146265010207891,-0.1749212592840194,-0.3382005989551544,1.218608260154724
5.898995361328125,-0.2632113211707212,0.0377099365227855,0.1056418101668357,-0.1416584402322769,-0.2780757844448089,1.2044641971588137
5.9090234375,-0.3729104256380349,0.0841499905958306,0.0390314491838216,-0.094244047999382,-0.2149130553007125,1.1728068590164185
5.91905029296875,-0.4339675364080816,0.0625301698641385,0.0504839865684509,-0.0441046804189682,-0.1400395035743713,1.1316486597061155
5.92907861328125,-0.5711107290474697,0.0468014255981892,-0.2211912663638591,0.0205584652721881,-0.0047831451520323,1.062549710273743
5.939106201171875,-1.105736697719246,0.058048718167725,-0.5010130008727312,0.0913762897253036,0.1036354526877403,0.9746519923210144
5.949133544921875,-1.2842632729634642,-0.0263522286816034,-0.7771241904258728,0.1468129158020019,0.2127052247524261,0.9048830270767212
5.959161376953125,-1.4502803491160272,-0.1213405246207024,-1.167085631042719,0.1870051175355911,0.259682148694992,0.8484954833984375
5.969189697265625,-1.658877068453282,-0.4041692315263673,-1.3882359808743,0.2178927212953567,0.2061033546924591,0.8160144686698914
5.97921630859375,-1.4717678121723234,-0.7237853258829563,-1.5438959136635064,0.2280769944190979,0.0805060788989067,0.821885347366333
5.989244384765625,-1.369766842725873,-0.9232798703540116,-1.6115303569972514,0.228012815117836,-0.0723519101738929,0.8554052710533142
5.9992724609375,-1.4609342834688723,-1.0233369391910732,-1.4687825127512215,0.2106688022613525,-0.2346971780061721,0.905883252620697
6.009299560546875,-1.4141310312397777,-1.08411194508411,-1.0994131937861442,0.1849581152200698,-0.4124011397361755,0.984040379524231
6.019327392578125,-1.2989846028856933,-1.0899548989586532,-0.5592196906477213,0.1466781347990036,-0.5699820518493652,1.086173176765442
6.0293544921875,-1.155698048653081,-1.0282373515184968,-0.0335024566292762,0.1168190389871597,-0.6474561095237732,1.1856966018676758
6.03938232421875,-1.282613167668879,-0.847527806212008,0.353453956952691,0.1010154262185096,-0.6417450308799744,1.266036868095398
6.04941064453125,-1.3959583918198943,-0.6543656796328723,0.8075894713163375,0.1047923266887664,-0.6073926687240601,1.3089052438735962
6.059437255859375,-1.47963518454656,-0.4578660791940986,1.0662415765464306,0.1290700286626815,-0.5128881335258484,1.3170349597930908
6.069465576171875,-1.6306500680088996,-0.2505501569150015,1.175039220395684,0.1667007654905319,-0.3715997636318207,1.2988983392715454
6.079493408203125,-1.730108367235213,-0.0143926094245165,1.1963725158035754,0.2051134556531906,-0.1897546499967575,1.2639929056167605
6.089520263671875,-1.8845655001059172,0.097561233433336,1.0972872876733542,0.2436549812555313,-0.0104032661765813,1.2111555337905884
6.09954833984375,-2.0107013783775267,0.1089015974140726,0.9122837714999914,0.2769415080547333,0.1901743561029434,1.1591495275497437
6.109576416015625,-2.0841921465240416,0.1147821981515735,0.6075789401471614,0.290781170129776,0.3762323558330536,1.1279244422912598
6.119603515625,-2.001240160940587,0.0162865151460282,0.3618184651941061,0.2749904692173004,0.507326066493988,1.1019651889801023
6.129631591796875,-2.0167890277281404,-0.1804665303308516,0.0599345364809036,0.2386737167835235,0.5785741806030273,1.07270348072052
6.139658203125,-2.0038759162716566,-0.3684915497498586,-0.2467483169466257,0.1936394870281219,0.5707475543022156,1.0456360578536987
6.1496865234375,-1.9364163911134,-0.5260055129079148,-0.5125280820995569,0.1529266834259033,0.4922785758972168,1.0281723737716677
6.15971435546875,-1.883425390160084,-0.5939991814754902,-0.7534832025974989,0.1166024729609489,0.3501929938793182,1.015669822692871
6.169741455078125,-1.7900564938500525,-0.6369730846747755,-0.8233972813010215,0.0809043943881988,0.1484204530715942,1.000580906867981
6.179769287109375,-1.7249635516926645,-0.6606053046748042,-0.7279051092267036,0.0606084689497947,-0.0869288444519043,0.9781434535980223
6.189797607421875,-1.5871309520170092,-0.6555233983006328,-0.6369429817974567,0.0767245888710022,-0.2931621968746185,0.939463198184967
6.199824462890625,-1.509999635411054,-0.6074643373241648,-0.4741296701222658,0.1202815100550651,-0.4546329379081726,0.90403014421463
6.209852294921875,-1.3073477959528566,-0.4370745990453287,-0.0591419247984886,0.1590116024017334,-0.5538463592529297,0.8951325416564941
6.21988037109375,-0.9799235485959796,-0.3422181675912812,0.4667372217833995,0.163877859711647,-0.6225355267524719,0.8966113328933716
6.229907470703125,-0.7964684309083968,-0.3389416301386431,0.9256909500837326,0.1476472318172454,-0.6064138412475586,0.8974723219871521
6.239935546875,-0.7391119282219558,-0.2786037004886195,1.3115981468737126,0.1275518238544464,-0.5774610638618469,0.9020963311195374
6.24996240234375,-0.4890070673890411,-0.1957129801057279,1.5714105280548334,0.1110197156667709,-0.5086274147033691,0.9087979197502136
6.259990234375,-0.4465188288148492,-0.0484382695524021,1.6587538804650306,0.1033011674880981,-0.3994205594062805,0.9109312891960144
6.2700185546875,-0.4659054471343755,0.1412352477259933,1.7997469899982212,0.0946110039949417,-0.3038468956947326,0.9206421971321106
6.28004541015625,-0.4099785388596356,0.2997694938424974,1.8146160578280688,0.0876708328723907,-0.1777581721544265,0.9164889454841614
6.290073486328125,-0.6621222851090133,0.4353508805252611,1.7745020741045474,0.0784746706485748,-0.0804231092333793,0.8898541927337646
6.300101318359375,-0.7659243856932968,0.4843000222092494,1.7028320916444062,0.0798566713929176,0.0212737545371055,0.8586522936820984
6.31012841796875,-0.8219652026712894,0.554850352989696,1.489563434973359,0.0923463702201843,0.1062485724687576,0.822224497795105
6.320156494140625,-1.0372255446162075,0.6228463596448301,1.2828086902409792,0.1264691948890686,0.2017117142677307,0.7697109580039978
6.330184326171875,-1.2863716434195638,0.7099431168828159,1.0235732321649789,0.1639585047960281,0.254475325345993,0.7194496989250183
6.34021142578125,-1.1702039822589605,0.7298807932138442,0.8795300874114036,0.1869108229875564,0.2818779051303863,0.6841394901275635
6.350239501953125,-1.2206712368883192,0.6720921827204525,0.6979203053295612,0.1945389062166214,0.2894681692123413,0.6429041624069214
6.360266357421875,-1.33734896646291,0.6225193196475506,0.5407943916410207,0.1936582624912262,0.2952767312526703,0.5981658697128296
6.37029443359375,-1.4183508408918977,0.5924075649024918,0.3628045536220073,0.1849627792835235,0.2946162819862366,0.5566493272781372
6.380322265625,-1.4601210673898457,0.5732921647397801,0.1836941871404647,0.1682769358158111,0.282211035490036,0.5244739055633545
6.390349609375,-1.4352996376052498,0.5347680805562064,0.0540045619100332,0.140395238995552,0.2620612978935241,0.5002913475036621
6.40037744140625,-1.3734629207648337,0.4514106559770181,-0.0660644175380468,0.1107851192355156,0.2346468120813369,0.4831665158271789
6.410405517578125,-1.3076157992392778,0.3738034654876217,-0.180336693406105,0.0707032084465026,0.2117396295070648,0.47284597158432
6.420432373046875,-1.2724778503626584,0.3272111891280859,-0.2297171026468276,0.0270005036145448,0.1696590483188629,0.4689761102199554
6.43046044921875,-1.1697496626202015,0.2591368565397337,-0.2846493007957935,-0.0185046643018722,0.1500227600336074,0.4708176851272583
6.4404873046875,-1.1888779222644863,0.1983462512187659,-0.3437941482037305,-0.0697567239403724,0.1317115277051925,0.4705199003219604
6.450515380859375,-1.1674489113971591,0.1617375356698408,-0.2964280013948678,-0.1233184933662414,0.1118211820721626,0.4732160866260528
6.46054345703125,-1.0818249301254748,0.0896305865645408,-0.3243482739776372,-0.1649924367666244,0.10433991253376,0.4681505560874939
6.470570556640625,-1.0186681436624376,0.037073446983844,-0.3756973529428243,-0.1840718537569046,0.0980135723948478,0.4548121094703674
6.480598388671875,-1.018314800180122,0.0788797311758622,-0.4696984096765518,-0.1855416148900985,0.0991978123784065,0.4260557293891907
6.49062646484375,-0.9958664562024176,0.1069299868138507,-0.5162146616578102,-0.1753196120262146,0.0885821878910064,0.3850989639759063
6.5006533203125,-0.9336628057457506,0.1307629170177504,-0.5163724825680256,-0.1542762368917465,0.0783063024282455,0.3256583511829376
6.510681640625,-0.9586700404260308,0.1530483255187049,-0.5292489152759313,-0.1305700987577438,0.0789617076516151,0.2501385509967804
6.52070947265625,-1.0218610944848507,0.1313185416065156,-0.557959461453557,-0.1017125844955444,0.0744438543915748,0.1706318855285644
6.530736328125,-0.8753442530941218,0.1115491345144808,-0.5027823486328125,-0.079984650015831,0.0524432100355625,0.1091309860348701
6.540764404296875,-0.641155338795483,0.1022471992924809,-0.4703700253278017,-0.0738098472356796,0.0362376123666763,0.0658903047442436
6.55079150390625,-0.5622313666190951,0.0152194887027144,-0.441797426316142,-0.080211766064167,0.0219337213784456,0.0291233845055103
6.5608193359375,-0.4913872405238449,-0.075388637657091,-0.3466770101636648,-0.1001314669847488,0.0096466606482863,0.0011767346877604
6.570847412109375,-0.3818943078868091,-0.1408020439404994,-0.2807207291752099,-0.1211552619934082,0.0046455105766654,-0.0165093168616294
6.580874267578125,-0.3012766104698181,-0.1944552716622129,-0.2340238599300384,-0.1366324871778488,0.0089431395754218,-0.0241692867130041
6.590902587890625,-0.257701818767935,-0.2022026891849003,-0.2053255887120962,-0.1359427273273468,0.0414954870939254,-0.0359660238027572
6.600930419921875,-0.270843112957105,-0.1781378681875765,-0.286699803584814,-0.114089123904705,0.1002725884318351,-0.0611533001065254
6.61095751953125,-0.3332573008919134,-0.1304591482982039,-0.3516752568423748,-0.0842555910348892,0.1614339500665664,-0.1033092811703682
6.6209853515625,-0.3783388804275542,-0.0935083047807216,-0.3938362362235784,-0.0601769313216209,0.2183818817138672,-0.1681708246469497
6.631013671875,-0.5258730456346645,-0.1006705976255238,-0.5169494056731462,-0.0358108691871166,0.26401486992836,-0.2701027989387512
6.641040283203125,-0.8129502676971256,-0.0702043120880611,-0.648954906630516,0.0005102178547531,0.3145876824855804,-0.3882533311843872
6.651068359375,-1.0450864141844212,0.0316287899781949,-0.9656324998497964,0.0536757037043571,0.3412192761898041,-0.4932971894741058
6.661095458984375,-1.049809058792144,0.0195038880236446,-1.1886124031960963,0.1087115183472633,0.3124108016490936,-0.5628709197044373
6.67112353515625,-0.9459528899330644,-0.1269199413213878,-1.3242308339536188,0.1530502289533615,0.2339218556880951,-0.598678469657898
6.6811513671875,-0.8323876663558185,-0.350500806235522,-1.320077221405506,0.1749441027641296,0.1063505113124847,-0.5969195365905762
6.691178466796875,-0.7509552915550768,-0.5432923459365964,-1.1634253549695015,0.1746210604906082,-0.042827520519495,-0.5728853344917297
6.701206298828125,-0.7297272100873291,-0.6335156376972794,-0.9371312125086784,0.1565001457929611,-0.188857227563858,-0.5253192186355591
6.711234619140625,-0.5050248668625951,-0.6992934933789074,-0.6279670636594296,0.1309492439031601,-0.3162173330783844,-0.4518871009349823
6.72126123046875,-0.3197483424341306,-0.7199583149407058,-0.2493769118845462,0.1155043840408325,-0.3784150779247284,-0.3697515428066253
6.731289306640625,-0.3945106648864224,-0.5654990631781518,-0.0737614017814397,0.1057782545685768,-0.3352721333503723,-0.2838771045207977
6.741317138671875,-0.3193943413646891,-0.340988808459416,0.2333154193997383,0.086047813296318,-0.2437851130962371,-0.1815457940101623
6.751344482421875,-0.2403034881887957,-0.2357715438475832,0.4214274229824543,0.058375172317028,-0.1112712696194648,-0.0807198584079742
6.7613720703125,-0.0700862569326534,-0.2490430402876809,0.6093833592206239,0.0125953434035182,-0.0091833155602216,0.0224041603505611
6.771399169921875,0.1774162028495222,-0.3016575726114213,0.8160486721038818,-0.0466344244778156,0.0403229855000972,0.1091377288103103
6.78142724609375,0.2967531051633879,-0.3393042894385755,0.9098042296439408,-0.0968273431062698,0.0452223680913448,0.1691779047250747
6.791455322265625,0.3079907576883212,-0.3568038519024848,0.9066922351032496,-0.1198927089571952,0.0227279774844646,0.202648252248764
6.801482177734375,0.3471127712324261,-0.3358724518263712,0.911831351557374,-0.1193246394395828,-0.0160483438521623,0.2277105450630188
6.81151025390625,0.4585999829592183,-0.275620593024604,0.9523679446071386,-0.1125341057777404,-0.0487980358302593,0.252570629119873
6.821538330078125,0.5164035352934152,-0.1914892614634707,1.0024527027249337,-0.1073732823133468,-0.0684272870421409,0.2581602931022644
6.8315654296875,0.4928725471781566,-0.1548250528676435,1.1013836170762776,-0.1038874685764312,-0.0681508556008338,0.2435683012008667
6.841593017578125,0.4296944987313821,-0.1116460920829325,1.1690846959054468,-0.0944686979055404,-0.0376312248408794,0.2074841558933258
6.851621337890625,0.3378244992095977,-0.0400004038138315,1.1898024897634982,-0.07779011875391,0.0102976839989423,0.147810697555542
6.861648193359375,0.2048353575097397,0.0099915249213576,1.1161311043530702,-0.0421033836901187,0.0634137913584709,0.0783350020647049
6.871676513671875,0.0985346815753728,-0.0170157975349575,0.9246469939887524,0.0133183319121599,0.1079554259777069,0.0072443117387592
6.881703125,0.0485724538587033,-0.0687202292764559,0.7297048521250485,0.0797082185745239,0.1406546533107757,-0.0447039082646369
6.891731201171875,0.0374740636739879,-0.1157786983756348,0.530294040414691,0.1408085823059082,0.14810511469841,-0.0688374787569046
6.90175927734375,0.0607550956161692,-0.1968253983270377,0.4259820175468921,0.1711694896221161,0.1316873878240585,-0.062160313129425
6.9117861328125,0.1243940761055797,-0.3334739393172785,0.3982031992614269,0.1721053123474121,0.0944880992174148,-0.0334160141646862
6.921814208984375,0.1738594236833974,-0.4528889118360355,0.34571605617702,0.143832579255104,0.0542979128658771,0.0147844636812806
6.93184228515625,0.2279381833408027,-0.4918543831115588,0.3305471286177635,0.1079510152339935,0.0091181863099336,0.0776172205805778
6.941869140625,0.3036261327380314,-0.4660144604668021,0.3434598016828298,0.0708209872245788,-0.0281767919659614,0.1504686921834945
6.9518974609375,0.3309138065056875,-0.3459507051831111,0.4145826716542243,0.0322711952030658,-0.0606902576982975,0.2192173898220062
6.961925048828125,0.3509351425321772,-0.1988252669073641,0.513520015746355,0.0044166296720504,-0.093005783855915,0.2709187865257263
6.971952392578125,0.3320496056025848,-0.0471070574812591,0.6466612427353858,-0.0069438824430108,-0.1145038828253746,0.3002527058124542
6.981980224609375,0.2500505002971738,0.1743030392650514,0.7204740824431181,0.0083772521466016,-0.112054243683815,0.3112151622772217
6.992007080078125,0.1993867001824081,0.409032892039977,0.7891314390838146,0.0394696593284606,-0.101366177201271,0.3160197734832763
7.00203515625,0.2652369269805029,0.6324664939705282,0.9304396059155464,0.0656336769461631,-0.085703819990158,0.3186013996601105
7.012063232421875,0.3047586804319173,0.7760344954930245,1.0270283410549164,0.0783569291234016,-0.0545086152851581,0.3125624358654022
7.02209033203125,0.2411439576009288,0.8539231332723051,1.1155302158504723,0.0759748816490173,-0.0220490209758281,0.2968913912773132
7.0321181640625,0.1892446974070742,0.9345967986602336,1.1660679784327743,0.0566227585077285,0.0015319399535655,0.2783499360084533
7.042146240234375,0.2168484148539602,0.9703387778446078,1.1322580632895232,0.0374971739947795,0.0206470713019371,0.2643990516662597
7.05217333984375,0.2511234267583117,0.9733507460769264,1.0334878924578428,0.0259164180606603,0.0272692888975143,0.2557145059108734
7.062201171875,0.3104846568632871,1.0067878823850305,0.9481143788158892,0.0184046495705842,0.0329196788370609,0.2516305446624756
7.0722294921875,0.2955115076044574,1.0499654183976352,0.827616944822669,0.0141377327963709,0.0363674089312553,0.2433031350374221
7.082256103515625,0.2629363584205508,1.070092845147103,0.7053273667156696,0.0130671691149473,0.0277737583965063,0.2316460162401199
7.092284423828125,0.2740789530731737,1.0640876133829356,0.6410030708432197,0.007770674303174,-0.0020381994545459,0.2220652848482132
7.102311279296875,0.3312545827673748,1.056422339452058,0.5928823062747717,-0.0033501270227134,-0.0255674794316291,0.2166675776243209
7.112339111328125,0.295468764441274,1.0764100654698907,0.5381283873021603,-0.0176656823605299,-0.0438391603529453,0.2065717875957489
7.1223671875,0.2340381441837176,1.0912110364995895,0.5015910930216312,-0.0261808447539806,-0.0595779754221439,0.198585957288742
7.132394287109375,0.2125608006626367,1.0989186152022332,0.4416495422780513,-0.0340664647519588,-0.0769495069980621,0.1943557858467102
7.14242236328125,0.202643400423415,1.0934265205919742,0.3975099563002586,-0.0425927154719829,-0.0919394716620445,0.1917480677366256
7.1524501953125,0.1727631894119083,1.066063881891966,0.3865057472050189,-0.0481315590441226,-0.1100883856415748,0.1942620873451233
7.16247705078125,0.1245768487939611,1.046630355690792,0.3814075472831726,-0.0606159903109073,-0.1297103315591812,0.1975591033697128
7.17250537109375,0.0696779318600893,1.0311224785007536,0.4135141656398773,-0.0794368088245391,-0.1433632969856262,0.2104280292987823
7.182533203125,0.0849592337526381,0.9935711848720908,0.4165817365169525,-0.1025233119726181,-0.1518424898386001,0.2337973862886428
7.192560302734375,0.1046714307647198,0.9192644972328096,0.4020031760662794,-0.122729517519474,-0.1559349745512008,0.2625960111618042
7.202588134765625,0.1182552810896187,0.8737385714631527,0.368010305571556,-0.1423951238393783,-0.1482472419738769,0.3008416593074798
7.212615234375,0.138888830730319,0.854099147426337,0.3046814504772424,-0.1576102972030639,-0.1177519336342811,0.3378787636756897
7.222643310546875,0.1094694056309759,0.8356563127629458,0.2293465157687663,-0.1713399440050125,-0.0731822401285171,0.3564427196979522
7.232671142578125,0.0428437009483575,0.7902344318896531,0.1104226147025823,-0.174998864531517,-0.0382705889642238,0.3667430281639099
7.2426982421875,0.0582408843055367,0.6986179322049021,-0.034062428599596,-0.1671768724918365,-0.0030856886878609,0.3737777471542358
7.252726318359375,0.0889656929150223,0.6055661390200257,-0.1903466307669878,-0.1527856737375259,0.0264208056032657,0.3837129473686218
7.26275439453125,0.1632750109028071,0.5373706642700359,-0.2834066072583198,-0.1482844650745391,0.0336080119013786,0.4052381515502929
7.27278125,0.3525314352802932,0.418755975283496,-0.3437497245401144,-0.1595528274774551,0.0322825610637664,0.4377217888832092
7.28280908203125,0.3460786789443343,0.3434057334080338,-0.3749976802408695,-0.1899099051952362,0.0318747609853744,0.4638606011867523
7.29283740234375,0.3588083966579288,0.3551106015859172,-0.3442757942408323,-0.2332315444946289,0.0283695068210363,0.4878274500370025
7.302864013671875,0.2670433553479612,0.4003816758116707,-0.3305857070624828,-0.2764010429382324,-0.0126195922493934,0.4983653724193573
7.312892333984375,0.2842448116481304,0.4034869118180125,-0.349138431841135,-0.3073909282684326,-0.068718820810318,0.4955277740955353
7.322919189453125,0.2082649300996214,0.4856205302232876,-0.3923585648864507,-0.3231686055660248,-0.1141103953123092,0.4737600982189178
7.332947265625,0.0354179348617792,0.5525938427671789,-0.5153665203958749,-0.3032447099685669,-0.1296038627624511,0.4213432073593139
7.342975341796875,-0.1182755201600491,0.5963137054955586,-0.6800871269971132,-0.253996342420578,-0.1124692633748054,0.3574896454811096
7.353002197265625,-0.1857579147372394,0.5811183283207938,-0.8139420552134513,-0.1953213065862655,-0.0932447090744972,0.2838564217090606
7.3630302734375,-0.2726036198236048,0.5781355496503412,-0.8674725698709488,-0.1416527926921844,-0.0506777465343475,0.1914147436618805
7.373058349609375,-0.6467335773192345,0.4643708945108577,-1.0745499706864357,-0.0791806280612945,0.0182155668735504,0.0724558606743812
7.3830849609375,-0.8907324494272469,0.3783802718838676,-1.3287620476424693,-0.0206244830042123,0.0749159678816795,-0.0370885170996189
7.39311328125,-0.9774565739605576,0.2714305939888581,-1.6990742004156112,0.0267638061195611,0.0994836315512657,-0.1290133744478225
7.40314111328125,-1.1047390649840234,-0.0090481317075784,-2.0004197844684124,0.0635843425989151,0.0633197203278541,-0.203712910413742
7.41316845703125,-1.1217791932426393,-0.4074523083176463,-2.14529704195857,0.0855844467878341,-0.0348294787108898,-0.2398727834224701
7.423196044921875,-1.0344921010643242,-0.74023486783728,-2.163828723949194,0.0898269861936569,-0.1784301400184631,-0.2367246001958847
7.43322314453125,-0.9162121969901024,-1.0565043186470866,-1.9991718302339316,0.0915255546569824,-0.348042368888855,-0.1794767528772354
7.443251220703125,-0.582620805305615,-1.3743325432062148,-1.745595128571987,0.0832695439457893,-0.5104630589485168,-0.0758347138762474
7.453279296875,-0.3963161434058099,-1.4854276503428816,-1.4375433248788116,0.0562267452478408,-0.6076021194458008,0.0720482245087623
7.46330615234375,-0.2478753482151776,-1.4167606490910052,-0.7875187431901692,0.0072204917669296,-0.6321330070495605,0.2463192045688629
7.473334228515625,-0.0446881597712636,-1.376436968139559,-0.1538444077998399,-0.0615633651614189,-0.5618753433227539,0.4191010892391205
7.4833623046875,0.1083694815650582,-1.2696179308868945,0.4763157819896936,-0.1454729735851287,-0.437905877828598,0.573242723941803
7.493389404296875,0.1231311434976756,-1.0554556133117523,1.0663234096109866,-0.2361187189817428,-0.2631692290306091,0.684198796749115
7.5034169921875,0.0367205418929457,-0.8185489644870162,1.492570215573907,-0.3139409720897674,-0.0989558100700378,0.7522458434104919
7.5134453125,-0.0393533015493303,-0.6741909085653722,1.675114648157358,-0.3730682134628296,0.0250638779252767,0.7797315716743469
7.52347216796875,-0.2435193449627608,-0.543317188116908,1.768368685916066,-0.4029972553253174,0.0917409658432006,0.7450025677680969
7.53350048828125,-0.4267286711957305,-0.4691204636581241,1.672669593092799,-0.38065305352211,0.1095175668597221,0.6708710789680481
7.543527099609375,-0.6973531729660928,-0.4155572157748043,1.42572253870368,-0.2931852638721466,0.0963530242443084,0.5763248205184937
7.55355517578125,-0.9242409704711289,-0.259795795372501,1.1398089170604944,-0.1601782143115997,0.077718086540699,0.4984425902366638
7.563583251953125,-0.93302494623363,-0.1517623956277035,0.9275281023830176,-0.0122164990752935,0.0724158659577369,0.4328922629356384
7.5736103515625,-1.043035326873511,-0.1402438255358487,0.8294996898293495,0.1604719161987304,0.0405615344643592,0.374947190284729
7.58363818359375,-1.192489025433734,-0.1589892233423888,0.6841869635313749,0.3010502457618713,0.0812153443694114,0.3116134405136108
7.593666259765625,-1.364628310793638,-0.1604991347149945,0.6090607031375169,0.3603639006614685,0.1473522931337356,0.2398042380809784
7.603693115234375,-1.3406830793216824,-0.336454964422062,0.729364660385251,0.3426259458065033,0.2337972670793533,0.1765968650579452
7.613721435546875,-1.4738126158729197,-0.5948479437919333,0.5701292071968317,0.2922309637069702,0.3098310530185699,0.1236316487193107
7.6237490234375,-1.4624747909091411,-0.7395555072709917,0.2025835965275764,0.2423061579465866,0.3696452975273132,0.1333647221326828
7.6337763671875,-1.2411004230633378,-0.8388402765613049,-0.2450274845033884,0.2030141353607177,0.4035452008247375,0.2000910192728042
7.64380419921875,-1.1057459039390087,-0.9863980783723294,-0.704146047976613,0.1604861915111541,0.3869669735431671,0.3099748194217682
7.6538310546875,-1.015515159524232,-1.1286110120240598,-0.8763339217185974,0.106820560991764,0.3330747187137604,0.4253533482551574
7.663859130859375,-0.9614685851033776,-1.091806591239944,-0.8906295735746621,0.0281016323715448,0.2418236285448074,0.5336218476295471
7.67388720703125,-0.859264786561206,-0.9330663011573256,-0.7345499540686606,-0.0526624545454978,0.1203347519040107,0.6142618656158447
7.683914306640625,-0.8076586640950292,-0.7818710926920175,-0.5395370850563049,-0.1002746224403381,-0.0098374802619218,0.6519850492477417
7.6939423828125,-0.7443599118780344,-0.5840846673130988,-0.3824555950313806,-0.0923272147774696,-0.1284501403570175,0.6577467918395996
7.70397021484375,-0.679138155709207,-0.2706322832180187,-0.1081879875183105,-0.0434587299823761,-0.2451217323541641,0.659531831741333
7.713997314453125,-0.5184420553836971,-0.0819639974594116,0.2871077998638153,0.0223322659730911,-0.3062063753604889,0.6456857919692993
7.724025146484375,-0.4219250703062862,0.0008415836569853,0.7248655954003334,0.0891300365328788,-0.3135877251625061,0.6266370415687561
