seconds_elapsed,ax,ay,az,gx,gy,gz
0.06556201171875,-0.026064269452542,0.5890242060745134,0.3459060257911682,-0.0002272245474159,0.1546430587768554,0.2068650275468826
0.075588623046875,0.0287110576342791,0.5845382197668776,0.1825607991963624,0.047225248068571,0.1666030436754226,0.1905126869678497
0.085616943359375,0.04286467067115,0.6052112611677497,0.1727782408505678,0.083229936659336,0.1854724138975143,0.1914123743772506
0.095644775390625,0.082476038634777,0.6219754950944334,0.2347942597806453,0.1072476506233215,0.1825498640537262,0.2034109830856323
0.105673095703125,0.1273326137755066,0.5957278318990021,0.3480336854696274,0.1151860058307647,0.1743882149457931,0.224208578467369
0.115700927734375,0.1129657963793724,0.5535621032774448,0.4578326153159141,0.1206260398030281,0.150266632437706,0.2424847930669784
0.12572802734375,0.0514135955687612,0.4949206022817641,0.4951180976152419,0.1250155717134475,0.1163005903363227,0.2548982501029968
0.135755859375,-0.0023536869866773,0.4169663519203662,0.5195978743553161,0.1241335347294807,0.0847988575696945,0.253423660993576
0.145783935546875,-0.0508452210962772,0.3153347272429615,0.5485036508440971,0.1191184297204017,0.0482762157917022,0.2254587560892105
0.15581201171875,-0.1835508331470191,0.2027112232289276,0.6006827508926391,0.100748211145401,0.0124955791980028,0.1691928207874298
0.165840087890625,-0.3156497845415025,0.1364228607418947,0.7018108830273151,0.0712157636880874,-0.0079656094312667,0.1059243157505989
0.175867919921875,-0.3524177457727491,0.1522949864007532,0.7233335635274648,0.0380817800760269,-0.0061863525770604,0.0453741513192653
0.185894775390625,-0.4331279803114011,0.1697926309022121,0.6709411129891872,0.0129036465659737,0.0206344611942768,-0.0069772657006978
0.195923095703125,-0.4868065982026979,0.3024107473325915,0.6265215410262346,0.0034393051173537,0.040553044527769,-0.0365287661552429
0.205950927734375,-0.4733105722917243,0.4969363625509664,0.588627571439743,0.0202996637672185,0.0501981265842914,-0.0431280396878719
0.215979248046875,-0.4325356769740581,0.7227727878395468,0.5454208823978901,0.064853549003601,0.0490827932953834,-0.0328322574496269
0.2260068359375,-0.4525016660841182,0.9294348127871752,0.4747317276686429,0.1133729964494705,0.0487761981785297,-0.0059145800769329
0.2360341796875,-0.4759146903755143,1.1184767176311463,0.4592272845447063,0.1458473056554794,0.0268919393420219,0.0379847027361393
0.24606201171875,-0.3533337646391242,1.2814148977950215,0.4906213707178831,0.1690085232257843,0.0002224575728178,0.0918516814708709
0.256090087890625,-0.3732492291383445,1.390465201231092,0.4255933104902505,0.1960166990756988,-0.0100847743451595,0.141910582780838
0.266117919921875,-0.4977735074948519,1.409351541878283,0.2878366986602544,0.2220585793256759,-0.015231991186738,0.1849616020917892
0.27614599609375,-0.5577200266744942,1.3829340750738977,0.1593599563509225,0.250765323638916,-0.0124295465648174,0.211689606308937
0.286173095703125,-0.6688216366171836,1.3444905087806285,0.0635796149849891,0.2617497444152832,-0.0015845820307731,0.2136200815439224
0.296200927734375,-0.8082965966723858,1.272485303016752,0.0515904865056276,0.2584505975246429,0.0089586060494184,0.2037003338336944
0.30622900390625,-0.8314284659348428,1.2300200799919665,0.0637128859758377,0.2408660501241684,0.0145827587693929,0.1908954083919525
0.3162568359375,-0.7739037670746445,1.225957798989117,0.1245148529410362,0.2185540944337844,0.0154376346617937,0.1816590279340744
0.326284912109375,-0.7269000238373875,1.2724110687367618,0.1238414837241172,0.2051731497049331,0.0152554139494895,0.1642004549503326
0.33631201171875,-0.745045994446054,1.3156027063399554,0.0749158325135707,0.1931820064783096,0.0386765860021114,0.1371515244245529
0.346340087890625,-0.7696911178156733,1.3545321564540267,0.0839390969246625,0.1758282929658889,0.067223884165287,0.1112461537122726
0.356367919921875,-0.7519453255057335,1.3327804895035922,0.1390858146071434,0.1585747450590133,0.0831847339868545,0.08322624117136
0.366395751953125,-0.8130407224595546,1.3088719367802142,0.2211503498315811,0.1334693878889084,0.0852265805006027,0.0493785254657268
0.376424072265625,-0.8880801082875579,1.3423612416669726,0.3424824810832739,0.1068449765443801,0.0697304457426071,0.0081756943836808
0.386450927734375,-0.8992879501961171,1.3765588409535583,0.4837298576384782,0.0759560391306877,0.0439584329724311,-0.0313290879130363
0.39647900390625,-0.8342492224439978,1.468559079258889,0.5441998161703347,0.0449416674673557,0.0213375389575958,-0.0507086440920829
0.4065068359375,-0.7578919589504599,1.572043273000419,0.5340887565225363,0.0231933407485485,0.0139361713081598,-0.0503946989774704
0.41653515625,-0.6998810840085148,1.6263447720304132,0.4724187745511531,0.0091662053018808,0.0095233125612139,-0.0434651523828506
0.42656298828125,-0.6764842801995575,1.680243827739358,0.4220037615656852,0.0007008914835751,0.0016101433429867,-0.0332377552986145
0.436591064453125,-0.645746027586609,1.693000141198933,0.3998597342967986,-0.0052105272188782,-0.0007683257572352,-0.0248413421213626
0.446617919921875,-0.6247817116215825,1.6861922147497534,0.343806423163414,-0.0073192226700484,0.0116403680294752,-0.0145387351512908
0.456645751953125,-0.6575920943334699,1.669004933105409,0.2360842995911836,-0.0077442633919417,0.033036470413208,0.0092685939744114
0.466674072265625,-0.5824141768176109,1.6297516578644513,0.1335217507392168,7.7785924077e-05,0.0453206002712249,0.0364304147660732
0.476701904296875,-0.5567032508473843,1.6071077182494102,0.0655447775781154,0.0084454379975795,0.0627472624182701,0.0498040132224559
0.486730224609375,-0.6151436032477766,1.5651552670523523,0.055582771012187,0.0067536439746618,0.085106186568737,0.0559164620935916
0.4967568359375,-0.6169619777813553,1.5156975547917186,0.0527262125372886,-0.0047237807884812,0.079163871705532,0.0632979422807693
0.50678515625,-0.5777272976430132,1.416356452204287,0.1130541322499513,-0.0282964073121547,0.0705951005220413,0.061989527195692
0.51681298828125,-0.6010364231685176,1.3353927178286016,0.0943500163018703,-0.0607733875513076,0.0723485350608825,0.0484180562198162
0.526841064453125,-0.652499301239103,1.2692574270114303,0.0172895729750394,-0.0824000090360641,0.0756343901157379,0.0319036580622196
0.536868896484375,-0.6806004833467304,1.1696896029960364,-0.1089011042237281,-0.0913511589169502,0.0888207703828811,0.0070821964181959
0.54689599609375,-0.827852653274685,1.0363491271078586,-0.286433261603117,-0.1018407046794891,0.1154285296797752,-0.033960785716772
0.556924072265625,-0.9365602076876908,0.9392792573880404,-0.3228302706301212,-0.1275300830602646,0.1343803852796554,-0.0770576521754264
0.566951904296875,-0.9692793319195508,0.9024525517068804,-0.252001415169239,-0.1768515259027481,0.1546730399131775,-0.117417000234127
0.57697998046875,-0.986563205806166,0.8873787550851702,-0.1771124706625938,-0.2367457449436187,0.1840237379074096,-0.153574988245964
0.5870078125,-1.0078317654147744,0.9278607684034854,-0.1539864466190338,-0.2802635133266449,0.2202906906604766,-0.1724968999624252
0.59703515625,-0.9496199610732496,1.046317709545046,-0.1796808598458766,-0.2907145619392395,0.2381261438131332,-0.1753571331501007
0.60706298828125,-0.8318691954396664,1.1983393588971345,-0.2325900277346372,-0.2715016901493072,0.2290732711553573,-0.1569303721189499
0.617091064453125,-0.6628298488564789,1.395414201940596,-0.2422632804870605,-0.2351460754871368,0.1984490603208542,-0.1177142485976219
0.627118896484375,-0.528073916679807,1.5042349344044923,-0.2365992633759975,-0.1926939785480499,0.1501311957836151,-0.0543282702565193
0.637146728515625,-0.4534937823940068,1.4831627741508184,-0.2173947966903448,-0.1504511833190918,0.0908124893903732,0.0277245212346315
0.647175048828125,-0.3815149531804025,1.323135732193291,-0.2356885782718658,-0.1042168512940406,0.009238563477993,0.1184577196836471
0.6572021484375,-0.4298724125815555,1.0123518731877208,-0.2537304309189319,-0.0597010441124439,-0.127873495221138,0.1907239258289337
0.66722998046875,-0.5133069209849461,0.5676094429282471,-0.3467453992247581,-0.0296797286719083,-0.2782373428344726,0.2380333542823791
0.6772578125,-0.5613120598170906,0.1520033830430358,-0.5257978980392217,-0.0156129114329814,-0.3891199231147766,0.2444648891687393
0.6872861328125,-0.6481023814544081,-0.2552274280110373,-0.8646668648004532,-0.0194780696183443,-0.4313227236270904,0.2149964421987533
0.69731396484375,-0.7168522386841476,-0.6086818598877638,-1.205791501533985,-0.0545915812253952,-0.4125503599643707,0.1591523587703704
0.7073408203125,-0.7418938870906829,-0.899087605318427,-1.4213643434941767,-0.0990443527698516,-0.3342797458171844,0.0861055850982666
0.7173681640625,-0.7113754147082567,-1.133842263741046,-1.6072849745124578,-0.1394058763980865,-0.168042853474617,0.0035300143063068
0.727396484375,-0.6595578414484858,-1.1838151589822024,-1.748732257553935,-0.1589023172855377,0.0034765771124511,-0.0786437690258026
0.73742431640625,-0.5678567322202026,-1.1237684673637152,-1.6969290050804613,-0.1553355455398559,0.1447266340255737,-0.1548663824796676
0.74745263671875,-0.478951245059818,-0.9819367150492966,-1.440012345340848,-0.1509251594543457,0.2379184514284134,-0.221427172422409
0.757479248046875,-0.3473485892822965,-0.7738757100239395,-0.9942933616667984,-0.1529989689588546,0.2797881662845611,-0.259793221950531
0.76750732421875,-0.167568652976118,-0.5381765372928231,-0.5113508550137281,-0.142457515001297,0.2661146819591522,-0.2672487497329712
0.777535400390625,-0.0286574642835184,-0.3273370805300772,-0.1326712713897228,-0.1357237249612808,0.2102266401052475,-0.2519773840904236
0.787563232421875,0.1111246254920959,-0.1488192365815863,0.272113644349575,-0.1461475938558578,0.1124378889799118,-0.2298653572797775
0.79759130859375,0.2639019155170768,-0.0283785834100563,0.613778963831067,-0.1729283481836319,0.0108079342171549,-0.2015058845281601
0.8076181640625,0.3723714599231257,0.0500240774391219,0.8147527870744466,-0.2088324427604675,-0.0614392422139644,-0.1664527654647827
0.817646484375,0.4649181531300768,-0.0120835196313913,0.8402595687747001,-0.226468950510025,-0.1007493659853935,-0.1271746009588241
0.82767431640625,0.4896688192334026,-0.1483083370505366,0.6914858883678913,-0.2158041149377823,-0.0884948372840881,-0.0997185707092285
0.83770263671875,0.4865376085355877,-0.2547483757898211,0.5263052630394697,-0.1834720075130462,-0.0439630597829818,-0.0758542492985725
0.847730224609375,0.5773615330705418,-0.3066458458853885,0.4483569309622049,-0.1432321220636367,0.0027123936451971,-0.0542359612882137
0.85775830078125,0.7080851409912109,-0.3144361709680408,0.5257067126244306,-0.1082286015152931,0.0317935794591903,-0.0346982106566429
0.867785400390625,0.7967593036137521,-0.339483299267292,0.6675783585578203,-0.0838362425565719,0.0259324982762336,-0.021887220442295
0.8778134765625,0.8051251270294189,-0.3952616659168154,0.8536316760450601,-0.0760510265827179,-0.0111831780523061,-0.0135006597265601
0.88784130859375,0.8218297397233545,-0.4239590968845412,0.972000281316042,-0.0752449706196785,-0.064052365720272,-0.0104497028514742
0.897869140625,0.8026485077828168,-0.4850486486194655,0.9660743983983991,-0.0691572502255439,-0.1228815913200378,-0.0119072515517473
0.9078974609375,0.8657150586791336,-0.5110162527645007,0.8771025680035353,-0.0662275403738021,-0.1899371892213821,-0.0130083840340375
0.91792431640625,0.9490112545903772,-0.4694785929134115,0.7412778010189532,-0.0639372244477272,-0.239518329501152,-0.0089973974972963
0.927952392578125,0.9651754037320612,-0.4538489525072276,0.528484945166111,-0.0679410994052887,-0.254188597202301,-0.0044880113564431
0.937980224609375,0.9736465872183442,-0.4821838337728753,0.3292226020157337,-0.0712442174553871,-0.2438664585351944,0.0055350614711642
0.948008544921875,1.0221598582357168,-0.5322709299782291,0.1283744509786367,-0.0684644058346748,-0.2092898488044738,0.0093481754884123
0.958036376953125,0.9837874574825168,-0.5972857653981074,-0.0785410372734069,-0.0491636767983436,-0.1510225385427475,0.0003211247967556
0.9680634765625,0.87241236436069,-0.6156644122514874,-0.2504004097133874,-0.0264275893568992,-0.0809908434748649,-0.0180813763290643
0.97809130859375,0.8271611638791858,-0.6039214040203019,-0.3373316741913557,-0.0093295630067586,-0.0186249390244483,-0.0468003749847412
0.988119140625,0.7314709850147366,-0.6211700969956815,-0.2426958266854286,-0.0033343718387186,0.040380947291851,-0.0894511044025421
0.9981474609375,0.6147003164596855,-0.6295888927076011,-0.0961661258131265,-0.0148504134267568,0.0750382617115974,-0.1440496444702148
1.00817529296875,0.509247489526309,-0.5716921821972355,0.1906704558938741,-0.0474575087428092,0.0784896612167358,-0.2075340300798416
1.018202392578125,0.3876277004396543,-0.4743293208802118,0.4961655608415603,-0.0845337659120559,0.0664902552962303,-0.2588030695915222
1.028230224609375,0.3379506098072976,-0.3281576761979609,0.7076993565440177,-0.1118280515074729,0.0398623049259185,-0.29350146651268
1.03825830078125,0.3733728920506313,-0.1865464347664266,0.8218103043705225,-0.1190390884876251,0.0175761748105287,-0.3080090284347534
1.048286376953125,0.4160223125359043,-0.0196717188712209,0.8545657420247793,-0.10591621696949,0.0026036438066512,-0.3021339774131775
1.058314453125,0.4613489163411781,0.1482212980879005,0.8420318391442299,-0.0739974305033683,-0.0190252177417278,-0.2832164764404297
1.06834228515625,0.5109396803969517,0.3013151158493012,0.8615724059164523,-0.0343486666679382,-0.0432609505951404,-0.2596194744110107
1.078369384765625,0.5419472514705732,0.4231573155149817,0.8434300155043601,-0.0040368344634771,-0.068550057709217,-0.228431224822998
1.0883974609375,0.5485855204412713,0.4851635802360251,0.8051666280835866,0.020076036453247,-0.0768667012453079,-0.2017851769924163
1.09842529296875,0.515901284859702,0.4414532159883528,0.7664356231510638,0.0362523421645164,-0.0797903165221214,-0.1833835244178772
1.10845361328125,0.5164873045867309,0.4087218898620456,0.757009623157978,0.0351593419909477,-0.0824984610080719,-0.1749370396137237
1.118481201171875,0.5160128189427777,0.4039679002679884,0.7607160764604807,0.0343124568462371,-0.0885829851031303,-0.1751548945903778
1.12850830078125,0.4570363503716886,0.3611335151372477,0.7118722583144903,0.0397459156811237,-0.0892302170395851,-0.1797284334897995
1.138536376953125,0.4515667963868007,0.3507144124535843,0.6416121426522732,0.0523676984012126,-0.0955107510089874,-0.1891208738088607
1.148564453125,0.4466558991979807,0.3434664871519431,0.6006213760942221,0.0609205178916454,-0.1072297245264053,-0.2022881954908371
1.15859228515625,0.4173208644464611,0.3584399286717176,0.5929027645409107,0.0611479505896568,-0.1213487461209297,-0.2073386162519455
1.1686201171875,0.4812901363361626,0.4445262302255258,0.5672644654154777,0.0577675998210907,-0.1388621181249618,-0.1949585527181625
1.1786474609375,0.578829304068163,0.4726747220735997,0.5212888961821794,0.0605394169688224,-0.1541992574930191,-0.1778426766395568
1.18867529296875,0.5443427317723631,0.446047411910817,0.4197036679297685,0.0621175318956375,-0.1603056490421295,-0.1694787442684173
1.198703369140625,0.4604777229972183,0.3993661055609583,0.3170096016526222,0.0577874965965747,-0.1625371128320694,-0.1700827479362487
1.208731201171875,0.3994309874907136,0.3609539938518777,0.2409142039656639,0.0475214347243309,-0.1648119240999221,-0.1821386665105819
1.218759521484375,0.2929099833365529,0.3122445792078971,0.1904179424375295,0.0279922038316726,-0.1502047479152679,-0.1940959841012954
1.228787353515625,0.2462789458692073,0.2975150842455215,0.1210223346501588,0.0073153087869286,-0.1291020661592483,-0.1943943053483963
1.238814453125,0.2774143811061978,0.3221539788037538,0.09632745385468,-0.0018174697179347,-0.1152317821979522,-0.1858064085245132
1.24884228515625,0.3432247508179396,0.3701221100937575,0.050625440865755,-0.0059805605560541,-0.0994529128074646,-0.1689750403165817
1.258870361328125,0.3898044964894652,0.4708484564945101,0.0090752868592739,-0.0075233299285173,-0.0831687450408935,-0.1433543711900711
1.2688984375,0.4212526509374379,0.5246703918466344,-0.0379003993272781,-0.0015705251134932,-0.073644608259201,-0.1070782169699668
1.27892626953125,0.4353909933399408,0.5456068699566647,-0.0993891795128583,0.0089007578790187,-0.079792246222496,-0.0665787309408187
1.288953369140625,0.4758500641740858,0.6214370043035596,-0.0957610521435737,0.0158239938318729,-0.1001285836100578,-0.0324515290558338
1.298981201171875,0.4933735920354724,0.6232996563702822,-0.1289817692220211,0.0178602468222379,-0.1248850598931312,-0.0119478516280651
1.309009521484375,0.4484449015066027,0.5253994733061641,-0.2014274122297763,0.0174190327525138,-0.1385535299777984,-0.0008962677675299
1.319037353515625,0.4057658165354281,0.3881104059226811,-0.3521639171421528,0.011324655264616,-0.1275179237127304,0.0015538404695689
1.3290654296875,0.3363082494277506,0.2694527180446311,-0.5156213719397783,0.0054121315479278,-0.1009377539157867,-0.002326582558453
1.33909228515625,0.3091273970354348,0.174861915256828,-0.6046446402609348,-0.0054967086762189,-0.0755988433957099,-0.0094180479645729
1.349120361328125,0.294865355188027,0.0956892107500694,-0.6551759731024503,-0.0100967045873403,-0.0539352856576442,-0.0274811293929815
1.3591484375,0.2112055135961622,0.0152713182130071,-0.7668173159450292,-0.0141519010066986,-0.018673438578844,-0.0613592006266117
1.36917626953125,0.03847498434484,-0.0420142278542742,-0.8497510352194309,-0.0263690371066331,0.0087461741641163,-0.1041832193732261
1.37920458984375,-0.0594775864936411,-0.0137808753009187,-0.8066390387237071,-0.0461691059172153,0.0281880479305982,-0.1297991126775741
1.3892314453125,-0.0155908062331378,0.1186716981370933,-0.7350041275769472,-0.0638387277722358,0.0284077301621437,-0.130689650774002
1.39925927734375,0.0518226147610694,0.3440613112399354,-0.7022095269560813,-0.0631439089775085,0.0125965420156717,-0.0997948423027992
1.409287353515625,0.1352978205010294,0.5434526510648429,-0.7767430821537971,-0.0289114061743021,-0.0168896522372961,-0.0466553531587123
1.4193154296875,0.2129929084695875,0.6323083077341318,-0.8945750963300466,0.0346534587442874,-0.0697102546691894,0.0188253838568925
1.42934326171875,0.2998372983817011,0.6891510887447744,-1.0276111093789335,0.1035839766263961,-0.1459081321954727,0.0798280388116836
1.439370361328125,0.3406843456201255,0.7680207003854215,-1.1228326478183268,0.1603817492723465,-0.2409211844205856,0.1178135052323341
1.4493984375,0.2899601936202496,0.6819469295196234,-1.1927467265218497,0.1828577220439911,-0.3225335478782654,0.1292238235473632
1.459426513671875,0.2154541840165853,0.5245941482726484,-1.2889181130319831,0.16449736058712,-0.3573746085166931,0.1179746463894844
1.469454345703125,0.0966194956038147,0.3202407290609553,-1.4023001620620488,0.1206355541944503,-0.3302059769630432,0.0914180725812912
1.479482177734375,-0.0316328633651137,0.1478422904413659,-1.5657371585935351,0.0781280398368835,-0.2298330515623092,0.0499028526246547
1.489510498046875,-0.1383664873566478,-0.0148983258903725,-1.6243068364620208,0.0370190255343914,-0.0999359264969825,0.0168532542884349
1.499537353515625,-0.1429689396508038,-0.1242079515494871,-1.4550766434818505,0.0153337037190794,0.0111242812126874,-0.010456396266818
1.5095654296875,-0.1509424758132547,-0.1857105319315567,-1.148026710307598,0.0037041760515421,0.1042587012052536,-0.036306083202362
1.51959326171875,-0.2026915138814598,-0.1851001814808696,-0.7251520111262798,-0.005498909857124,0.1561386734247207,-0.0558387748897075
1.529621337890625,-0.2115507468372583,-0.1741113160852342,-0.1793207943618297,-0.0219532903283834,0.1567218750715255,-0.0661362931132316
1.5396494140625,-0.234239621572569,-0.2043155714193359,0.4001595940262079,-0.0492626726627349,0.1291222125291824,-0.0777865573763847
1.549676513671875,-0.368915876109153,-0.3017064167218282,0.8743506389468908,-0.0931686908006668,0.1070256382226944,-0.0959725677967071
1.559704345703125,-0.4757586595635861,-0.443327193166688,1.29080787230134,-0.1470300555229187,0.1025608479976654,-0.1147933974862098
1.569732177734375,-0.5268365934371948,-0.5206758788503706,1.545387029004097,-0.1882306784391403,0.1113114953041076,-0.1334379464387893
1.579760498046875,-0.608055325487256,-0.5133756753722205,1.6775030045986177,-0.2140478938817978,0.1315032988786697,-0.136414036154747
1.589788330078125,-0.5316002276424319,-0.4116225797396153,1.7985200785517692,-0.2185581177473068,0.1465694308280944,-0.1206745132803917
1.599815185546875,-0.3963202350590378,-0.2997377104647457,1.896364366710186,-0.2021764814853668,0.1484546810388565,-0.0858944281935691
1.60984326171875,-0.3011794337056577,-0.2234242861129343,1.9417180046528577,-0.1635166555643081,0.1294088810682296,-0.0432260818779468
1.619871337890625,-0.2907562393687665,-0.1335979851800482,1.9373171393454076,-0.107813186943531,0.0666464269161224,0.0075247115455567
1.6298994140625,-0.260479247592017,-0.0431873998194932,1.902059948003292,-0.0499216541647911,-0.0486708432435989,0.0606209523975849
1.639927490234375,-0.142131685109064,0.0854687176447361,1.869026862451434,-0.0135458037257194,-0.173827439546585,0.108424961566925
1.6499541015625,-0.0589724865157157,0.1820264000587165,1.7361615297943354,-0.0096390219405293,-0.2818943858146667,0.1551196873188018
1.659982421875,0.0175527539558708,0.1660186653214506,1.4316431609243154,-0.0201917961239814,-0.3555909693241119,0.1974692791700363
1.67001025390625,0.1188088233191519,0.0727453931393101,1.0096890837192536,-0.0291900094598531,-0.3724803328514099,0.2308036088943481
1.680038330078125,0.0554190318178385,-0.0859748131365049,0.4278367055028677,-0.0214679092168808,-0.3537055850028991,0.23653045296669
1.69006640625,-0.0856099527463316,-0.2996970313944854,-0.0534311459362506,-0.0134303364902734,-0.3133662343025207,0.2135524749755859
1.70009423828125,-0.1463302327774465,-0.3971007544448598,-0.3150900317668915,-0.0266832914203405,-0.25999516248703,0.1717858612537384
1.710121337890625,-0.1933048229854553,-0.4035641052400693,-0.4577513667732477,-0.044561319053173,-0.1826747506856918,0.122833751142025
1.72014892578125,-0.2720822262980044,-0.5215749100493267,-0.6584452040314674,-0.0567522048950195,-0.0817942023277282,0.0683627799153328
1.73017724609375,-0.3887082987505942,-0.5946100433828309,-0.7937725428879261,-0.0714698955416679,0.0337992720305919,0.014062094502151
1.740204833984375,-0.5126381183452904,-0.5925005404155701,-0.7921995944827794,-0.08420380204916,0.1552300900220871,-0.038330540060997
1.750233154296875,-0.5996519465401768,-0.5628630886513739,-0.6139017134279012,-0.0957468152046203,0.256380021572113,-0.0858816057443618
1.760260009765625,-0.6462600415233523,-0.5021296568777411,-0.2726262700468301,-0.1081118732690811,0.3121910691261291,-0.1229378953576088
1.770288330078125,-0.6744181414499878,-0.3539297577708959,0.2096995660126209,-0.1186072751879692,0.3246550261974334,-0.1531824022531509
1.78031591796875,-0.7029262969233095,-0.1474864810073282,0.6963374200522899,-0.1263459026813507,0.3040192425251007,-0.1723883152008056
1.790343994140625,-0.6969708956502377,0.0234215911903418,1.0934896489560604,-0.1362636685371399,0.2573120892047882,-0.1786486506462097
1.8003720703125,-0.6578807020165026,0.184323297090549,1.4235598077118397,-0.1387156397104263,0.1912140250205993,-0.168034091591835
1.810399169921875,-0.6205604406647384,0.3416445689544081,1.5785083773612976,-0.1287170499563217,0.1319405436515808,-0.1478291153907776
1.82042724609375,-0.5848099859129637,0.4617345181252807,1.6156255173563956,-0.1135266572237014,0.0815660506486892,-0.1168677285313606
1.830454833984375,-0.5355505727034062,0.5518929279562086,1.5955916141092776,-0.0886219143867492,0.0342336297035217,-0.0784852728247642
1.840483154296875,-0.4603263318277895,0.5897971266757697,1.52721599701941,-0.0661056861281395,0.0100406734272837,-0.0382720716297626
1.850510986328125,-0.544434501709044,0.5876889023501426,1.3946312348693608,-0.0494369566440582,0.0174376033246517,-0.0110353901982307
1.860538330078125,-0.6056344550158829,0.5965675706587732,1.2506044567286967,-0.033556792885065,0.0183276310563087,0.0280456990003585
1.87056591796875,-0.4764707533556968,0.6631850920349359,1.1468664343565702,-0.0168916080147027,0.02148481272161,0.0636240541934967
1.880593994140625,-0.4646618037488311,0.6724583126191049,1.0140274051845073,0.0029398873448371,0.0235871113836765,0.0930671691894531
1.8906220703125,-0.4261731562048196,0.690764953682199,0.8474006727010012,0.0318516939878463,0.0140834720805287,0.1170450150966644
1.90064990234375,-0.3469793541111052,0.7365617322824894,0.7317471716076135,0.0557746030390262,-0.0022555543109774,0.134299099445343
1.910677001953125,-0.3432258467964827,0.7431601806994527,0.6104010118305683,0.0650810226798057,-0.0231444761157035,0.1335330009460449
1.920704833984375,-0.3782636962994933,0.7345849523168057,0.516474189376831,0.0488088391721248,-0.025855042040348,0.1214422434568405
1.930733154296875,-0.422109048571065,0.650869361949712,0.4472083454489707,0.0128957722336053,-0.0165679119527339,0.0976027324795723
1.940760986328125,-0.4629027581870555,0.5758863824840634,0.3561427576452493,-0.0330224521458148,0.00683727953583,0.0633590072393417
1.950789306640625,-0.5498034083310515,0.5319161617238074,0.2199438966512679,-0.072147823870182,0.0454373732209205,0.019324192777276
1.960817138671875,-0.6082777360662818,0.5131642611112446,0.090889062193036,-0.0996886417269706,0.0821450501680374,-0.0258006751537323
1.970843994140625,-0.6252503520466387,0.5542422675613313,0.0107055184096097,-0.1190476566553115,0.1145662292838096,-0.0711232274770736
1.9808720703125,-0.6291071005400269,0.6450121603541076,-0.0192424606084823,-0.1388171017169952,0.1556396335363388,-0.1094730123877525
1.99089990234375,-0.6078544691529124,0.7461220261797309,0.0379693729102611,-0.154898926615715,0.1804082989692688,-0.1276566386222839
2.00092822265625,-0.5193883963230997,0.884540609049797,0.079941551721096,-0.1612257957458496,0.1845881193876266,-0.1231963634490966
2.010955810546875,-0.4242294017259031,1.0609969538912176,0.1273790102005005,-0.1667083948850631,0.179239273071289,-0.1073705703020095
2.020983154296875,-0.3926609088338911,1.1678957783818245,0.143840315657854,-0.1629434823989868,0.1631079763174057,-0.0885207206010818
2.031010986328125,-0.4324889152228832,1.1280931986950338,0.1086789859056472,-0.1584251523017883,0.1528896987438202,-0.0659112781286239
2.041039306640625,-0.4651359971318393,1.050159479665011,0.0777443339377641,-0.1493152827024459,0.1376851797103881,-0.050872404128313
2.05106689453125,-0.500055042560771,0.9540300326004624,0.0381236866891384,-0.1490108370780944,0.1216155588626861,-0.0456525981426239
2.061094970703125,-0.5243620200172067,0.8798816773280501,-0.0007446808874607,-0.1580621302127838,0.1138236820697784,-0.0511520244181156
2.0711220703125,-0.5610067201949656,0.7689900568742305,-0.0829664525002241,-0.1673224717378616,0.1110581904649734,-0.0569616444408893
2.081150146484375,-0.5775814228989183,0.6659750880796462,-0.212832603341341,-0.1767167747020721,0.1192418187856674,-0.0720148980617523
2.09117822265625,-0.5986284487113356,0.5867369719201698,-0.3070528557837009,-0.1815516650676727,0.1383626908063888,-0.0920076146721839
2.101205810546875,-0.6122150755152106,0.541516751098819,-0.3996890539050102,-0.1843698173761367,0.1610104739665985,-0.1174684986472129
2.111234130859375,-0.6403844274882227,0.5005846924580634,-0.4320967010349035,-0.1895525306463241,0.182498425245285,-0.1408693790435791
2.121260986328125,-0.6686391927223653,0.5027039496343583,-0.4366238230705261,-0.1999883949756622,0.2008428126573562,-0.164704144001007
2.131289306640625,-0.6773492264658212,0.5195460711028427,-0.3966115461558103,-0.2143877148628235,0.2069143205881118,-0.1925844401121139
2.14131689453125,-0.6598478373710066,0.5446990709293633,-0.3384364205628633,-0.2241274267435073,0.2161608189344406,-0.2139587104320526
2.15134521484375,-0.6271816854353994,0.5779176691159605,-0.3408376364856958,-0.215230792760849,0.1989996433258056,-0.2227042019367218
2.161373046875,-0.5396116115972399,0.5909234638245776,-0.4452525352060794,-0.1776970028877258,0.1593270599842071,-0.2121993601322174
2.171400146484375,-0.4351611666394397,0.622621026456356,-0.5916723459631205,-0.1252572238445282,0.101471371948719,-0.1912869960069656
2.181427978515625,-0.3816584898369387,0.6697491267256438,-0.7167424946993589,-0.0762830302119255,0.0567156225442886,-0.1634135395288467
2.1914560546875,-0.3054029331522062,0.6722508804135024,-0.8666051393866538,-0.0304359514266252,0.0267777536064386,-0.1185937672853469
2.201484130859375,-0.2341109902242198,0.6323740664467216,-1.091078496161103,0.0167107880115509,-0.0194208994507789,-0.0477622039616107
2.211511962890625,-0.1499093333732336,0.563850492253527,-1.363181034594774,0.0540291331708431,-0.0691128224134445,0.0217609461396932
2.221540283203125,-0.1383662681609392,0.4198586758283898,-1.6252905868023633,0.0676892846822738,-0.0718508139252662,0.0598159208893775
2.23156689453125,-0.2114990897152572,0.1912749245930463,-1.8763444919884205,0.0570402927696704,-0.0299418643116951,0.064695306122303
2.241594970703125,-0.3826004103295505,-0.1472648467464372,-2.006058082616329,0.0277641639113426,0.0666390061378479,0.0378248058259487
2.251623046875,-0.4545351081404835,-0.4945097199259325,-1.9745856705099345,-0.0165411364287138,0.1963726133108139,-0.0155083984136581
2.261651123046875,-0.5003088346587494,-0.6915752471517771,-1.851463148710132,-0.0663928464055061,0.3549963533878326,-0.0981385633349418
2.27167919921875,-0.6257942496649921,-0.7876740068171173,-1.566582377246022,-0.1116223409771919,0.4934417307376861,-0.1885531842708587
2.2817060546875,-0.6541593434058129,-0.7931250387646257,-1.0489607713997364,-0.1464538276195526,0.5545817613601685,-0.2645906805992126
2.291734130859375,-0.5271867220491171,-0.6390329398140311,-0.390604999217391,-0.1718349009752273,0.5323677062988281,-0.322856605052948
2.301761962890625,-0.4273627678481861,-0.4315384826302528,0.224289232379198,-0.1943865418434143,0.4426924288272857,-0.3614729940891266
2.311790283203125,-0.4109643350265919,-0.2836479417335242,0.7631862659662961,-0.2138391286134719,0.3227530717849731,-0.3855568170547485
2.32181787109375,-0.364048270072788,-0.2303058623202145,1.0941811383515596,-0.2319414466619491,0.2050783634185791,-0.382274717092514
2.331844970703125,-0.2577847295447252,-0.1913572691142559,1.2391127563774584,-0.2415505200624466,0.1095759943127632,-0.3591427505016327
2.341873046875,-0.1654013371407054,-0.180113844435662,1.2350234412372112,-0.2270445376634597,0.0513845980167388,-0.3175220787525177
2.351901123046875,-0.1076973544571548,-0.2293222581103444,1.0784896482229231,-0.1816190332174301,0.0212075412273406,-0.2703774571418762
2.36192919921875,-0.0801573681625537,-0.3056937693249434,0.89740359775424,-0.1217999160289764,0.0028437143191695,-0.2255399376153946
2.371956787109375,-0.0950441908448003,-0.4022109005328267,0.7802911300241947,-0.0617538504302501,-0.0183226987719535,-0.1902371644973755
2.381984130859375,-0.1099935756355524,-0.5097730112377554,0.7324561966598033,-0.0260294079780578,-0.0368551015853881,-0.1623256504535675
2.39201220703125,-0.059735068386048,-0.5980158697709441,0.7858955259025097,-0.0133193964138627,-0.0539966598153114,-0.1329482495784759
2.402040283203125,-0.0023478235014714,-0.6724860043436288,0.7640759082823991,-0.0054044807329773,-0.0736957937479019,-0.0946839451789856
2.41206787109375,0.1125294507887214,-0.7357252083931117,0.64560910333395,0.0146678397431969,-0.1068004816770553,-0.0473820678889751
2.42209619140625,0.2528956605952233,-0.8009208072073757,0.5071475581049919,0.0479834526777267,-0.1544521600008011,0.0015849395422264
2.432123046875,0.3256427707675844,-0.843850725134462,0.3391583050966262,0.0853794440627098,-0.1907775402069091,0.0378036089241504
2.442151123046875,0.345574967205897,-0.9570528875529766,0.1410404558062553,0.1050932258367538,-0.1972817778587341,0.0675644278526306
2.452178955078125,0.3919998511092737,-1.0718394696187228,-0.0532218870997428,0.1184598952531814,-0.1641231477260589,0.0884411334991455
2.46220703125,0.3486283999597653,-1.261361120803654,-0.2613157714813947,0.1252850443124771,-0.0958479419350624,0.0882123634219169
2.472235107421875,0.2547595913035795,-1.4485980951175093,-0.4170230505436658,0.1332337856292724,-0.0159159414470195,0.0586583875119686
2.482262939453125,0.1507783347601071,-1.5496420561000703,-0.4163075957506895,0.140659749507904,0.0581825226545333,-0.0021493043750524
2.492290283203125,-0.0183541699992492,-1.5791897837541995,-0.2963601968556642,0.1421271562576294,0.112383022904396,-0.0817037001252174
2.50231787109375,-0.1088923363953828,-1.499154562400281,-0.0266617969542741,0.1344623118638992,0.1418538242578506,-0.1545904278755188
2.512345947265625,-0.1073734562650322,-1.3341392106361687,0.2850245638489723,0.1155635938048362,0.1422289460897445,-0.2104974240064621
2.5223740234375,-0.0830292155381292,-1.071971206239611,0.6306055954694747,0.0940857306122779,0.1119280233979225,-0.2430993020534515
2.532402099609375,0.0324413667364045,-0.7388561268299818,0.9054635700911284,0.0750178471207618,0.0979433804750442,-0.2474295496940612
2.542428955078125,0.10504994522091,-0.4035349887434393,0.969787865963578,0.0755105316638946,0.068364717066288,-0.2369721084833145
2.55245703125,0.0654406961491331,-0.2303221193352714,1.0293015466839075,0.0985975489020347,0.0428109243512153,-0.204704463481903
2.562485107421875,0.0767095840625465,-0.0367441054316237,1.025991983744502,0.1223577409982681,0.0022200886160135,-0.1713510453701019
2.57251318359375,0.0288799844603985,0.0693948771350085,1.110064351660013,0.1428858339786529,-0.0251373443752527,-0.1363384425640106
2.582541259765625,0.0021055209118872,0.1286418332105502,1.0816016427636146,0.152404248714447,-0.0440069027245044,-0.1099182739853859
2.592568115234375,-0.0460665354523807,0.1601783965943381,1.083777233237028,0.154413565993309,-0.0540965348482131,-0.0870419889688491
2.602595947265625,-0.0640699192525818,0.1734547518726438,1.0692752451539038,0.1461202204227447,-0.0567421205341815,-0.0724207013845443
2.6126240234375,-0.1091405024701729,0.1844488779652863,1.0671294652968644,0.1408668905496597,-0.0530622228980064,-0.0705355480313301
2.622652099609375,-0.12768869720418,0.1920817109312862,1.04744335257411,0.1386474221944809,-0.053336527198553,-0.0672537386417388
2.63268017578125,-0.0905174524016678,0.252184735846892,1.0048363829910754,0.1436224728822708,-0.0568574555218219,-0.0606207661330699
2.64270703125,-0.07280632954631,0.3211843665866181,0.9706137953937052,0.1566831469535827,-0.0614495426416397,-0.0515918508172035
2.652735107421875,-0.0956044002771377,0.387826547480002,0.978560955005884,0.1690888404846191,-0.0927559211850166,-0.0373682342469692
2.66276318359375,-0.0536545428959652,0.5064066035445779,1.0177817892819645,0.175506517291069,-0.1410715281963348,-0.0111009441316127
2.672791259765625,0.0273349835081025,0.5973300063986331,1.0441939953893422,0.172675609588623,-0.1901686787605285,0.020595546811819
2.68281884765625,0.1006465226301923,0.6789288968726992,0.9323960006803274,0.1713219285011291,-0.2245125323534011,0.0638056024909019
2.692845947265625,0.1413148888334632,0.7036980119481683,0.6881535290747881,0.1803979873657226,-0.2382364571094513,0.1041729152202606
2.7028740234375,0.1424482402449473,0.6367701094485819,0.4003057244986295,0.197221964597702,-0.2375863790512085,0.1373505741357803
2.7129033203125,0.0804011685894802,0.5301178801301867,0.1628881304770708,0.2005664110183715,-0.2161806374788284,0.1487390249967575
2.722931396484375,-0.0245610252827405,0.4503073709102347,0.000333761999011,0.1857350021600723,-0.180176556110382,0.1434880644083023
2.732958984375,-0.08696169614885,0.386376494802162,-0.1073778401792049,0.1554808020591735,-0.1321460902690887,0.13242207467556
2.742986083984375,-0.1504476415010169,0.2899489415738731,-0.1756003125339746,0.1231127455830574,-0.0784306600689888,0.1176098361611366
2.75301416015625,-0.1874554759027436,0.2163378167170099,-0.1898077015846967,0.0939653217792511,-0.0390658006072044,0.0987589731812477
2.763042236328125,-0.1872669675933197,0.2357296226683072,-0.0969715969771146,0.0720613598823547,-0.0248016417026519,0.0730975568294525
2.7730703125,-0.2344286048060282,0.2784245445294305,0.0307388371348381,0.0644604638218879,-0.0136785916984081,0.0512402765452861
2.78309814453125,-0.2119720044566318,0.3597753054613247,0.0732137047708034,0.0668394714593887,-0.0066478461958467,0.0410321131348609
2.793125,-0.2384189165512099,0.4492014920275658,0.1589490374624729,0.0746954530477523,-0.0094504375010728,0.054232008755207
2.8031533203125,-0.165863200765103,0.6285956438865512,0.1871498805522918,0.0815528258681297,-0.0377198904752731,0.082436479628086
2.81318115234375,-0.0962504796283319,0.7996567786209284,0.2668400878608226,0.0860318019986152,-0.0641276910901069,0.1235998570919036
2.823208984375,-0.0465242891572415,0.931469533485174,0.2099000570207834,0.0895650163292884,-0.0945095643401146,0.173200711607933
2.833237060546875,-0.0490061325682327,0.9584037176400424,0.0854559312283992,0.0962731018662452,-0.122714065015316,0.2182695269584655
2.843264404296875,-0.0772475633967667,0.9299929581265896,-0.0729927554965019,0.099367432296276,-0.1512106955051422,0.2493049353361129
2.853292236328125,-0.1464971503095701,0.8796201037824153,-0.2459714873552322,0.0977230817079544,-0.1713755428791046,0.257629930973053
2.8633203125,-0.2585913880188017,0.7607395304013043,-0.3706178577214479,0.0825896710157394,-0.1881457418203354,0.2540711462497711
2.87334814453125,-0.3346984761435538,0.6702705933164804,-0.422369672268629,0.044340968132019,-0.2238123714923858,0.2440186440944671
2.883376220703125,-0.3250107564743608,0.6436277933236211,-0.432582438725233,-0.0073741562664508,-0.2568864226341247,0.2227421253919601
2.893404296875,-0.3917836145427077,0.6207178962487727,-0.4810159225046634,-0.0592706799507141,-0.2811581492424011,0.1946325600147247
2.90343115234375,-0.4187578384470194,0.6516863043557852,-0.6421124933898449,-0.0941911190748214,-0.2881273627281189,0.1807295083999633
2.913459228515625,-0.3408032958246767,0.7570067736137658,-0.941121158927679,-0.1025163903832435,-0.2689628303050995,0.1965077519416809
2.923487060546875,-0.1735642766617238,0.844239578321576,-1.2750029849261044,-0.0765159502625465,-0.2380446046590805,0.2514964342117309
2.93351513671875,0.051293257124722,0.9664777915675192,-1.5495780509531496,-0.0254790093749761,-0.2291368544101715,0.333427757024765
2.943543212890625,0.2881820049665868,1.120407758758962,-1.7289122893184423,0.0398462042212486,-0.2403708696365356,0.4237874746322632
2.953570068359375,0.4693550030663609,1.237912732937932,-1.9097557632029056,0.0987354591488838,-0.2552474439144134,0.5202630758285522
2.96359814453125,0.5835259374517947,1.1849792343255132,-2.017746766844392,0.1408405750989914,-0.2561430633068084,0.6101368069648743
2.973626220703125,0.6409434496104717,0.9193466225583106,-2.107131854215264,0.1526928842067718,-0.2062353640794754,0.6757825016975403
2.983654296875,0.5227126453749835,0.4707140895251184,-2.120422128421068,0.1384753286838531,-0.0903399139642715,0.700246274471283
2.993682373046875,0.3082911654070019,-0.092379300750792,-2.081340994876623,0.1095895990729332,0.0724054276943206,0.6775100231170654
3.003709228515625,0.1169982667658477,-0.6780690651729703,-1.86038061465919,0.0718281045556068,0.2407169342041015,0.603938639163971
3.013737060546875,-0.1430086871393024,-1.1501774586007,-1.4382003274828197,0.0355039536952972,0.3604905307292938,0.4881347715854645
3.02376513671875,-0.3780355866320431,-1.4865034628808498,-0.9305664471656084,0.0006088202353566,0.4344952702522278,0.3463342189788818
3.033793212890625,-0.5759982453607022,-1.6600260923579335,-0.4167828120470047,-0.0450206026434898,0.4718921482563019,0.1987611502408981
3.0438212890625,-0.7120842205647379,-1.7209342961765826,0.1549012233763933,-0.1042415797710418,0.4780459105968475,0.0696023628115654
3.05384814453125,-0.7527589799761771,-1.640031205946952,0.7592571098238229,-0.1656768172979354,0.4226443767547607,-0.0320061482489109
3.0638759765625,-0.7333008307904004,-1.4414699968032538,1.3274942196637392,-0.20977184176445,0.3380141854286194,-0.1170616522431373
3.073904296875,-0.8281731174007058,-1.192600011527538,1.6571066977798938,-0.2318533360958099,0.2300134152173996,-0.1800413876771927
3.08393212890625,-0.9199756411768496,-0.9733522073816508,1.833694267785549,-0.2369748651981353,0.1065463423728942,-0.2070586234331131
3.093960205078125,-0.8502941291201859,-0.7365984840963036,1.949073043590784,-0.2263699322938919,-0.0034124366939067,-0.1981495320796966
3.103987060546875,-0.794953277105093,-0.4989282304879278,1.89913558498919,-0.2046747505664825,-0.0876128003001213,-0.1518368870019912
3.114015380859375,-0.7143740120023488,-0.2750090735301375,1.6944132228672504,-0.1574925184249878,-0.1481845080852508,-0.0790876150131225
3.124043212890625,-0.5838263086378574,-0.102533505420573,1.4141601112037896,-0.0804328843951225,-0.1882701367139816,0.0162761863321065
3.1340712890625,-0.4257149641085416,0.0607220335967838,1.0923843180626631,0.0098588112741708,-0.2112269848585128,0.1171620041131973
3.14409912109375,-0.2622017605356871,0.1873683090759441,0.7778916676670312,0.0909041315317154,-0.1988115906715393,0.2094099074602127
3.154126220703125,-0.1010748675774782,0.2538657477363943,0.5277057774871587,0.1577203720808029,-0.1583743840456009,0.2895371615886688
3.164154296875,0.0523725767940282,0.1776315626332536,0.3763093473613262,0.2072519659996032,-0.106261633336544,0.3452252149581909
3.17418212890625,0.1049122537832707,-0.0187072212206199,0.3019043869793414,0.2393529564142227,-0.036619808524847,0.3522331118583679
3.184210205078125,-0.0034186493370682,-0.1995891091530211,0.2781254519850015,0.2450475990772247,0.031403187662363,0.3062949180603027
3.194238037109375,-0.1011816889528185,-0.373681592673622,0.4011737395048141,0.2308339178562164,0.0787869244813919,0.2322297692298889
3.204265380859375,-0.1124867076255381,-0.540498477434367,0.5792769747704267,0.2104255855083465,0.1024464517831802,0.1257832199335098
3.214293212890625,-0.1597619612805545,-0.6512831303823738,0.7361153036892414,0.1831437051296234,0.1078226566314697,0.0001763754116836
3.2243212890625,-0.1983463242840021,-0.6467009902238845,0.933508345836401,0.1500019878149032,0.094062365591526,-0.1255138963460922
3.23434912109375,-0.1401980866979807,-0.5273593021370471,1.1205822385430335,0.1191766262054443,0.0516691841185092,-0.2350133955478668
3.244377197265625,-0.0667954352263361,-0.335166751242429,1.256536184865236,0.0930502191185951,-0.00168032431975,-0.3152595162391662
3.254404296875,-0.0206670135188847,-0.087693316625338,1.3111702768504618,0.0731847882270813,-0.0415491126477718,-0.3673581779003143
3.264431884765625,0.0091943831942975,0.1771181514847092,1.2504898904383182,0.0676997452974319,-0.0644629448652267,-0.3925034701824188
3.274460205078125,-0.0053234600450843,0.3715808575347065,1.0875246030718086,0.0754924193024635,-0.0650548115372657,-0.4015359282493591
3.284488037109375,-0.0604007657531648,0.5105285423127934,0.9339058207213878,0.0924122780561447,-0.0456443652510643,-0.4011143445968628
3.294516357421875,-0.1669482195228338,0.6295066212516278,0.7930500738322734,0.1088439524173736,-0.0162683092057704,-0.3989038169384002
3.304543212890625,-0.2697564867641777,0.7084930642049759,0.7605483186781405,0.1152011826634407,0.0052497666329145,-0.3933750987052917
3.3145712890625,-0.3736096599485725,0.7970175161585211,0.789072986894846,0.1098558381199836,0.0207320805639028,-0.3772119879722595
3.32459912109375,-0.4329077982220798,0.8858630167599767,0.8369798164516687,0.0906464532017707,0.0402762219309806,-0.3581086099147796
3.334627197265625,-0.510785914607346,0.9188353120353072,0.8532511522948741,0.0716155022382736,0.0571733303368091,-0.3372039198875427
3.3446552734375,-0.6224828600946813,0.9507993070509284,0.8339777120262384,0.0529837645590305,0.0702433288097381,-0.3173159658908844
3.35468310546875,-0.6792255417317151,1.022068161364272,0.868926860332489,0.0408142209053039,0.0797601863741874,-0.3033386468887329
3.364710205078125,-0.7304131465248763,1.084497071944177,0.8914934969276189,0.029052635654807,0.0868548527359962,-0.2850669622421264
3.374738037109375,-0.7333033150084316,1.1422768415439872,0.9296265359669924,0.0223861001431942,0.0855856537818908,-0.2636429369449615
3.384766357421875,-0.7207526801887899,1.2161351278286427,0.930175402021408,0.0182736460119485,0.0824798718094825,-0.2374254763126373
3.394794189453125,-0.789306941781193,1.247192894719541,0.8805921636849642,0.0102574899792671,0.092345044016838,-0.2131033390760421
3.404822265625,-0.8901441281452774,1.2452125345572829,0.8598059807658195,0.0001603811979293,0.1061556637287139,-0.1949371248483657
3.41484912109375,-0.978701678650826,1.172584739915654,0.8475941494464874,-0.0105466740205883,0.1099550053477287,-0.1752810329198837
3.424877197265625,-1.014902726714313,1.1415647477518769,0.8414625148236751,-0.0259485337883234,0.0948700606822967,-0.16016785800457
3.4349052734375,-1.059740670219809,1.1952427811212838,0.8384539806574582,-0.0474107898771762,0.0594414547085762,-0.1437234878540039
3.44493310546875,-1.0271639501333236,1.2593372137606142,0.7658809118777513,-0.0684865117073059,0.0053992569446563,-0.1190695539116859
3.454961181640625,-0.9470727608084678,1.2760478178039192,0.6646604252845049,-0.0996318012475967,-0.0550883486866951,-0.0912116765975952
3.464988037109375,-0.8479137367896735,1.2674207131035624,0.5300345126956701,-0.1300459057092666,-0.0938322842121124,-0.0707942843437194
3.475016357421875,-0.8382686872184276,1.2222121827200054,0.3865215292960405,-0.1640559136867523,-0.1068993210792541,-0.0584959536790847
3.485044189453125,-0.7854284198474139,1.1323019024312495,0.2032838537514209,-0.1853281706571579,-0.0943853929638862,-0.0458808243274688
3.495072265625,-0.6782487325888127,1.0803234395213424,0.0222299519866704,-0.1904335618019104,-0.0627302303910255,-0.0325249508023262
3.50510009765625,-0.6208969791427255,1.0142739272914827,-0.1591349154233932,-0.1867927610874176,-0.0390600599348545,-0.0180762335658073
3.515127197265625,-0.5467098992951214,0.94169749751091,-0.2684428468823432,-0.180334597826004,-0.0276272222399711,-0.0019551385194063
3.5251552734375,-0.4737050880346447,0.8742075041491538,-0.3075871087908745,-0.1766075044870376,-0.0376657433807849,0.0160832516849041
3.535183349609375,-0.4171152588717639,0.7930871909722685,-0.3981728041231632,-0.1789594888687133,-0.0513775870203971,0.0308016184717416
3.545211181640625,-0.4076323410596698,0.6603545447841286,-0.5300257448673248,-0.1782407015562057,-0.0652316138148307,0.0397746078670024
3.555239013671875,-0.4024856988862156,0.5161555884143337,-0.6823427969694137,-0.1929686516523361,-0.0648449435830116,0.0381825976073741
3.565266357421875,-0.437528005368635,0.3356572747057303,-0.7936684979915618,-0.2218282520771026,-0.038865003734827,0.0274071805179119
3.575294189453125,-0.4617668860249221,0.1641455466596409,-0.9109978233426808,-0.258110910654068,0.0222802627831697,0.017414916306734
3.585322265625,-0.4566477163802832,0.0383313380904495,-1.028306690427661,-0.2803578674793243,0.0997050181031227,0.0092187710106372
3.59535009765625,-0.3897808964181691,0.0292947027411311,-1.1954285129517317,-0.2627776861190796,0.1470212191343307,0.0035501921083778
3.605378173828125,-0.340288039778918,0.1091384201109409,-1.3400824830800293,-0.2101427167654037,0.1358156949281692,0.0070929955691099
3.6154052734375,-0.2368753769036382,0.1969528606316074,-1.4221382504761215,-0.1502373069524765,0.0645576491951942,0.0155204841867089
3.62543310546875,-0.1286928692780435,0.2588816396696493,-1.493565656352043,-0.0988891571760177,-0.0155371837317943,0.029272248968482
3.635461181640625,-0.0545637666953727,0.2780394176693633,-1.7447557551383972,-0.0589435026049613,-0.1092692241072654,0.0513332076370716
3.645489013671875,0.0354390507150441,0.205895643685013,-2.0277567042052747,-0.0454063862562179,-0.218098759651184,0.0980610325932502
3.655517333984375,0.2002375448580831,0.2045081713819876,-2.353478020101785,-0.0504418089985847,-0.3047861456871032,0.1586361229419708
3.66554443359375,0.2184084307122975,0.028721761691384,-2.7863924672603604,-0.065036192536354,-0.3300986886024475,0.2075189799070358
3.675572021484375,0.098494203434512,-0.3417081357099115,-3.163326083999872,-0.0812561139464378,-0.2479297071695327,0.2260169088840484
3.68560009765625,-0.0845860895913094,-0.7559880250252783,-3.4980881999641653,-0.0914395079016685,-0.0551908947527408,0.2055363953113556
3.695628173828125,-0.279384000678733,-1.171261528487876,-3.633440088739991,-0.0911756679415702,0.1974280029535293,0.1492545008659362
3.70565625,-0.4344939714349806,-1.432446732392162,-3.474724275511503,-0.0822886973619461,0.4517966210842132,0.0725762397050857
3.715682373046875,-0.5419964609071612,-1.580922014374286,-2.9398563513100147,-0.0812364742159843,0.6259177327156067,-0.0130953406915068
3.725710205078125,-0.5644803511222825,-1.5596937867760656,-1.962123663821816,-0.1044379323720932,0.7060037851333618,-0.1051299199461937
3.735738525390625,-0.5622106891572475,-1.3782238515563308,-0.7951479228943585,-0.1607101857662201,0.688058078289032,-0.194097638130188
3.745766357421875,-0.5549203494859859,-1.21032088859193,0.339209158501029,-0.2187039703130722,0.5955672860145569,-0.2670482993125915
3.755794677734375,-0.4664670265398919,-1.063648418248072,1.165867487424612,-0.2549866139888763,0.4817781746387481,-0.3099677860736847
3.7658212890625,-0.3911706702761351,-0.9547576162226498,1.6732599602013825,-0.2643628120422363,0.3774919807910919,-0.330114871263504
3.775849365234375,-0.2618451291177421,-0.8480817868329584,2.011816792273521,-0.2361773550510406,0.278950423002243,-0.3234395980834961
3.78587744140625,-0.049455063645821,-0.7245387015335262,2.169596785956621,-0.1701256334781646,0.1727347373962402,-0.2915722131729126
3.7959052734375,0.2027718491086736,-0.5625951584301888,2.264909509810805,-0.0873207002878189,0.0676686242222786,-0.249988853931427
3.805933349609375,0.3393462288841605,-0.488778300134465,2.274389285817742,-0.0076682176440954,-0.0369270294904708,-0.2050448209047317
3.81596044921875,0.4527401510151103,-0.5022045487448573,2.2470517815589903,0.0578351281583309,-0.1449996083974838,-0.1626886427402496
3.825988525390625,0.6007530396498739,-0.5620871723754332,2.149678033521772,0.1021003276109695,-0.2488343864679336,-0.1268960237503051
3.836016357421875,0.6609995646893978,-0.647913800079748,1.9667267737030985,0.1368841677904129,-0.3367039859294891,-0.1012423411011695
3.84604443359375,0.7203456337578594,-0.6870315393075347,1.6793793198645115,0.1599735170602798,-0.4130906462669372,-0.08651053160429
3.856072265625,0.7426517197206616,-0.765301358424127,1.306701607003808,0.1712159067392349,-0.4648217856884002,-0.07369926571846
3.866099365234375,0.8773352077156304,-0.8067116655685007,0.947713981321454,0.1709306836128235,-0.4871582388877868,-0.0580127090215683
3.87612744140625,0.9484357927899808,-0.8926153405644,0.5669149213254452,0.162499114871025,-0.4593570828437805,-0.0456219054758548
3.8861552734375,0.9008771190837024,-1.0197337270673363,0.1879150197058916,0.1623566299676895,-0.3893902599811554,-0.0458866208791732
3.896183349609375,0.8356270866684615,-1.1340837443467229,-0.1429226162910461,0.1731334030628204,-0.3071963191032409,-0.066869780421257
3.906211181640625,0.7503194778695702,-1.2030782970525324,-0.3469686865866184,0.1867386847734451,-0.204518660902977,-0.109642282128334
3.916238525390625,0.6775863962225616,-1.1681329481385647,-0.4301052349567413,0.1900517046451568,-0.1060308814048767,-0.1635624170303344
3.926266357421875,0.6536399957068264,-1.0671765923742205,-0.357827349731326,0.1819977760314941,-0.0186301954090595,-0.2150213569402694
3.936294189453125,0.6668775168120861,-0.9133454093821346,-0.1600783337533473,0.1568553447723388,0.044083796441555,-0.2462920695543289
3.946322265625,0.7470148833662271,-0.6486823732994497,0.1412263337671756,0.1244459971785545,0.0771948844194412,-0.2527854144573211
3.956350341796875,0.8250400070067495,-0.3966942194705828,0.4285825554341078,0.1015977188944816,0.0762434229254722,-0.2520526945590973
3.96637744140625,0.8099777546923607,-0.1724257376184687,0.648115533196926,0.0880153328180313,0.0490855723619461,-0.2446285784244537
3.9764052734375,0.7881505382876842,0.018847944865562,0.8044196091085671,0.0816458761692047,0.0197302438318729,-0.23822121322155
3.995833251953125,0.6228780699573457,0.2082659530129283,0.9121797266036272,0.0691306218504905,-0.0198722500354051,-0.2186612635850906
4.005861572265625,0.4816428222313523,0.2597179808959364,0.9526917697340248,0.0523836016654968,-0.0103775486350059,-0.2065017968416214
4.01588916015625,0.3915167803000658,0.3050425388745963,1.0056640659868716,0.0281454492360353,0.0156427472829818,-0.18609419465065
4.025916259765625,0.3563189179297536,0.3827866536166519,1.0377858819127082,0.01105647534132,0.0429217703640461,-0.157886803150177
4.0359443359375,0.3199026196803897,0.4428420765308663,1.0463818608224391,0.0151752475649118,0.0575899370014667,-0.1274211853742599
4.045972412109375,0.2861843283433467,0.5132604880273341,1.0952923144638538,0.0307723172008991,0.0549022741615772,-0.1042673960328102
4.05600048828125,0.2193106402490288,0.5990497428633272,1.1682599355190992,0.0398167930543422,0.0324648469686508,-0.0890597999095916
4.066028076171875,0.1468497996721416,0.6855824364777654,1.298940909874439,0.0288323182612657,-0.005797320511192,-0.0782050266861915
4.076055419921875,0.068739335835725,0.737752403371781,1.4342524666398764,-0.0067628920078277,-0.0434691123664379,-0.0705664977431297
4.08608349609375,0.0129628688823431,0.7679274691440164,1.4783762705266474,-0.04688261449337,-0.0766928419470787,-0.0529707260429859
4.096111572265625,0.0325939634822309,0.8237551548279821,1.4131015420615671,-0.0824629366397857,-0.0988933965563774,-0.0270977709442377
4.10613916015625,0.0599798369273543,0.8906696133241057,1.221480069053173,-0.0911661460995674,-0.1107591092586517,0.0081140119582414
4.11616748046875,0.1108496079429984,0.9373756887890398,1.0087065024226904,-0.0751233026385307,-0.1162098944187164,0.051486175507307
4.1261943359375,0.2086382203914225,1.0118832327626646,0.8465197982132434,-0.0493537634611129,-0.127207413315773,0.1065920367836952
4.136222412109375,0.293725829764083,1.0498282018840313,0.7200801146894693,-0.0264475718140602,-0.1394386291503906,0.1632375419139862
4.14625048828125,0.3026632425226271,0.9977139837652444,0.5989917290657758,-0.0055561391636729,-0.1583827584981918,0.2164416313171386
4.1562783203125,0.2890960510715842,0.8859372510399669,0.5075555543839931,0.0037952517159283,-0.1844953894615173,0.2592162787914276
4.166306396484375,0.3056619128819555,0.7859612846150994,0.369826999604702,0.0027891094796359,-0.2086289525032043,0.2849927544593811
4.17633349609375,0.2969849776905029,0.7077834546308964,0.192975810226798,-0.0068053449504077,-0.2265251576900482,0.2979611456394195
4.186361572265625,0.3278456876393407,0.5736160263992846,-0.0489577999144792,-0.0221563372761011,-0.2194669693708419,0.3024219572544098
4.19638916015625,0.3193576991487294,0.4206929712280631,-0.360388140130043,-0.0278802029788494,-0.1846865117549896,0.3051353991031647
4.206417236328125,0.3804391406424343,0.2863804354373365,-0.59851768181324,-0.0232678744941949,-0.1423774063587188,0.295130968093872
4.2164453125,0.3558236817587167,0.1948645831154659,-0.7697089457333087,-0.0082328729331493,-0.1016471236944198,0.2702398896217346
4.226472412109375,0.3231717044789344,0.1686638643343001,-0.8751490958482027,0.0081873796880245,-0.0700931921601295,0.2339940071105957
4.236500244140625,0.2495730189785361,0.1312634504184126,-0.8783341556251049,0.0173736475408077,-0.0657294243574142,0.1961797028779983
4.2465283203125,0.2252774396989494,0.1489294189577922,-0.8514104928642511,0.0077433907426893,-0.0965110436081886,0.1661744117736816
4.256556396484375,0.1848553398743271,0.1848525999279692,-0.7536760948210954,-0.0166322588920593,-0.1428896188735962,0.1305083781480789
4.266584228515625,0.1286919924952089,0.2000311355657875,-0.7652718400686979,-0.053982026875019,-0.1879500299692154,0.0961823463439941
4.276611083984375,0.0470825806271284,0.2270831739466637,-0.8608499368607997,-0.09124406427145,-0.2155931442975998,0.0658056735992431
4.286639404296875,-0.0240928232491016,0.2770315192684531,-1.065429091119766,-0.1080083921551704,-0.2283193171024322,0.0441949293017387
4.296667236328125,-0.0718864747550338,0.3688255309445783,-1.3211357905477286,-0.0967495143413543,-0.2266587913036346,0.0350585505366325
4.3066953125,-0.0440036115732044,0.5028025146380066,-1.5289362449407575,-0.0702806189656257,-0.2272412180900573,0.0512199439108371
4.316723388671875,0.0914029299993068,0.6397573085658251,-1.6834873397052288,-0.0297133978456258,-0.2183170169591903,0.102353423833847
4.326750244140625,0.2885863479837775,0.7779482201598584,-1.860783350241184,0.0165824629366397,-0.1916923373937606,0.1730337142944336
4.3367783203125,0.408708518923819,0.8854952794261276,-2.0743600499480963,0.0666996464133262,-0.155995562672615,0.2535296380519867
4.346806396484375,0.5361707504283636,0.9552457650657744,-2.1767332137078044,0.112712949514389,-0.1364993602037429,0.3447708785533905
4.35746240234375,0.757917970174551,0.8779455946989357,-2.2207442048698662,0.1505340039730072,-0.1161792501807212,0.4382213950157165
4.3674892578125,0.7415418587826192,0.6139340082623064,-2.190529099348187,0.1697399169206619,-0.0697648823261261,0.4874110221862793
4.377517333984375,0.5793074429739267,0.1599290614757686,-2.091271437260509,0.1681486964225769,0.0038855699822306,0.4850964844226837
4.387545166015625,0.3054354837149381,-0.3723510381896048,-1.8032547058582304,0.1388789564371109,0.0976259112358093,0.4254906773567199
4.397573486328125,0.0318386150702834,-0.8502897452060133,-1.3884101683974266,0.0846195295453071,0.1769855916500091,0.3154707551002502
4.407601318359375,-0.2196165643930435,-1.2494513411708177,-0.9002221623063087,0.0076821353286504,0.2473140805959701,0.1789635270833969
4.417628662109375,-0.4295081458464264,-1.502252674546093,-0.3497024954646826,-0.0747832953929901,0.2981951534748077,0.0280465651303529
4.42765625,-0.5569689891114831,-1.6002068528197704,0.2431394787997007,-0.1542000919580459,0.3265604674816131,-0.1203775256872177
4.437684326171875,-0.6157136582206935,-1.5662410164624452,0.7964835554122924,-0.2184980362653732,0.3226211667060852,-0.2416520416736602
4.44771240234375,-0.6195648537561297,-1.3708292112603784,1.2595154929369687,-0.2602377831935882,0.2921607196331024,-0.3246220350265503
4.457740478515625,-0.590859495210275,-1.0966044199757277,1.630006509408355,-0.2817314565181732,0.2692799270153045,-0.3643938302993774
4.467767333984375,-0.572931332070753,-0.8017039204090833,1.8236732245087623,-0.2758714258670807,0.2405587881803512,-0.3647608160972595
4.477795166015625,-0.5490188338246196,-0.571281993961148,2.0140280385822056,-0.2497836351394653,0.192492201924324,-0.332149863243103
4.487823486328125,-0.5623975900314748,-0.3340801981147378,2.162533423441648,-0.2102556824684143,0.1228220388293266,-0.2784695923328399
4.497851318359375,-0.5786790819425135,-0.1502172668112441,2.227249933502078,-0.1715754717588424,0.0428881831467151,-0.2159892320632934
4.50787939453125,-0.6492969250012188,-0.0355695817595347,2.1613006667762997,-0.1325796097517013,-0.0442453883588314,-0.1382992267608642
4.51790625,-0.66353865471296,-0.0126501131387427,1.97578803203702,-0.0904852077364921,-0.1216854229569435,-0.0391371883451938
4.5279345703125,-0.6062752371374517,-0.0072771148635074,1.668909948298335,-0.0468269474804401,-0.1760820895433426,0.0615798346698284
4.53796240234375,-0.5421485827289522,0.0073344710739329,1.2712731507480144,-0.0028119327034801,-0.1978574097156524,0.1608301103115081
4.547990234375,-0.450817621987313,-0.0013234306234866,0.8684107275038957,0.0437718145549297,-0.1937212496995926,0.2515357732772827
4.558018310546875,-0.3119401894338429,-0.0341384529778733,0.5294768788129091,0.0905817002058029,-0.1761589795351028,0.3326428532600403
4.568045166015625,-0.2215918099887669,-0.1251702846424654,0.2433247722387313,0.1300827711820602,-0.1499974131584167,0.3878967761993408
4.578073486328125,-0.2153526964034885,-0.2892628224732354,0.0031570027261972,0.1541964411735534,-0.0967263132333755,0.4087981283664703
4.588101318359375,-0.3286542275432497,-0.4609313850488513,-0.1370569391280412,0.1566065996885299,-0.0291278325021266,0.3908574879169464
4.598129638671875,-0.4170041997127234,-0.6705667997840792,-0.1856932520031929,0.1373079866170883,0.04945869743824,0.352230042219162
4.6081572265625,-0.4917368576791137,-0.8716378728568553,-0.1477443373590707,0.0913024246692657,0.1367403417825698,0.2763352692127228
4.618184326171875,-0.6242191823679953,-0.9896503581665456,-0.0167816234529018,0.036929577589035,0.2067707926034927,0.1652000993490219
4.62821240234375,-0.73942596260719,-0.9923653162136672,0.1702262182801961,-0.0094554983079433,0.2602550685405731,0.0309685226529836
4.638240478515625,-0.7442472452837974,-0.8715982714988291,0.4442202695488929,-0.0460900217294693,0.2829350233078003,-0.0956628993153572
4.648268310546875,-0.6236702432483434,-0.6613812574833631,0.7504846053034067,-0.0721282735466957,0.2702908813953399,-0.1914655864238739
4.658296142578125,-0.5033334066443145,-0.3621688495343551,1.0711562365949154,-0.0868726000189781,0.2268653810024261,-0.2555359303951263
4.668323486328125,-0.3884489171620458,-0.0823386029254645,1.2996049267411232,-0.0952570289373397,0.1784959882497787,-0.2926431000232696
4.678351318359375,-0.3463721819981932,0.1546152825744822,1.4493214409559965,-0.0948595032095909,0.1521394401788711,-0.3121938407421112
4.688379638671875,-0.3185992089316248,0.3891618512043729,1.4851333435714245,-0.0881222411990165,0.1301896721124649,-0.3081274628639221
4.6984072265625,-0.2227946099072694,0.5678878214782104,1.5144149676352738,-0.0706910416483879,0.1128272339701652,-0.282612144947052
4.708435546875,-0.1791442687511444,0.71650028344132,1.4971581278860568,-0.0472261980175972,0.101837433874607,-0.2438554316759109
4.7184619140625,-0.1987267749689519,0.8063542304329574,1.431369604679942,-0.0217650849372148,0.1019023209810257,-0.2078807353973388
4.728489990234375,-0.284049581336975,0.8255122276283801,1.3043991752803326,0.0110599715262651,0.1063346192240715,-0.171555757522583
4.738517822265625,-0.3891472016245126,0.7941999745197593,1.2051719083309174,0.0319821499288082,0.1171142682433128,-0.1495432555675506
4.7485458984375,-0.506485294803977,0.735439011862874,1.151701014906168,0.0461826547980308,0.1132801175117492,-0.1347515285015106
4.758573974609375,-0.6073057492289692,0.6630287324294447,1.1339490851163865,0.0459949038922786,0.1000617817044258,-0.1258957237005233
4.76860107421875,-0.6704975339401513,0.6691081984736025,1.0802993279933928,0.0389939844608306,0.0828865244984626,-0.1191938817501068
4.77862890625,-0.725774526938796,0.7110384378388523,0.9775023858636616,0.0276217572391033,0.0504895895719528,-0.1120982319116592
4.78865673828125,-0.8050412481382488,0.7049751922771335,0.8285556869775056,0.0151075646281242,0.0372920259833335,-0.1016328111290931
4.79868505859375,-0.8833887356009333,0.7041108305327594,0.6311392639547586,0.0014322561910375,0.0299864541739225,-0.0915778949856758
4.808712890625,-0.9226789818514138,0.6577348638050258,0.4649187741845846,-0.0084019992500543,0.0349218249320983,-0.0798669084906578
4.818739990234375,-0.987037033862993,0.622690000039339,0.2916857753038406,-0.0212523490190505,0.0602941922843456,-0.073242001235485
4.828767822265625,-1.0082320167787373,0.6711301327552646,0.144437112507224,-0.038033191114664,0.0907575637102127,-0.0606681443750858
4.8387958984375,-0.9785855779904872,0.7085258704960345,0.0379892466545105,-0.0515015609562397,0.1242097243666648,-0.0482930727303028
4.848823974609375,-0.953530120254308,0.7490859905518591,-0.0379758026510477,-0.0637968406081199,0.150711640715599,-0.0376247130334377
4.858851806640625,-0.9121592683374882,0.817261408894509,-0.0761941818863153,-0.0681694075465202,0.1630695462226867,-0.0279862247407436
4.86887890625,-0.9242932851802556,0.846292273067683,-0.1097854858428239,-0.0700368136167526,0.1636772751808166,-0.0263835340738296
4.878906982421875,-0.9385441480465232,0.8229163659162819,-0.1283370415776968,-0.0767473131418228,0.1539376527070999,-0.0307637862861156
4.88893505859375,-0.9140446436926722,0.8066337780267,-0.1186240413367748,-0.0861192420125007,0.1288171261548996,-0.0356866382062435
4.898962890625,-0.8813298303097487,0.797368886879459,-0.158523505526781,-0.1002929881215095,0.105068564414978,-0.0434828922152519
4.9089912109375,-0.8887316309988498,0.7767812952723354,-0.258495453363657,-0.1181681305170059,0.0863308236002922,-0.0532732084393501
4.919017822265625,-0.9141368520207702,0.718714160098508,-0.3437427102774381,-0.1373538821935653,0.0624921508133411,-0.0648538544774055
4.9290458984375,-0.901983911281824,0.6472537287358194,-0.4508183526396751,-0.15988689661026,0.0395000167191028,-0.0775379538536071
4.939073974609375,-0.8827529949806631,0.5601227039020508,-0.5847405008733272,-0.1786437630653381,0.0396417416632175,-0.0943518429994583
4.94910205078125,-0.941274011401832,0.4717222436543554,-0.7462854000478982,-0.1909853816032409,0.0575275346636772,-0.1170435771346092
4.9591298828125,-0.9856855461888014,0.3628483196984976,-0.8678864113688468,-0.2089426666498184,0.0895026922225952,-0.146628588438034
4.969156982421875,-0.9870315539702772,0.2791281992867588,-0.839726484811306,-0.2351202070713043,0.1267965286970138,-0.1848484128713607
4.97918505859375,-0.9662439097464084,0.2572231684055179,-0.7104010167181491,-0.2708215117454529,0.1542949080467224,-0.2290183454751968
4.989212890625,-0.92668193388246,0.327604572359845,-0.5543722506165504,-0.3069555461406708,0.1786298006772995,-0.2761938571929931
4.999240966796875,-0.8930911413826048,0.4229457916561513,-0.4101777146935462,-0.3389389216899872,0.1793469190597534,-0.3288777768611908
5.009268798828125,-0.7867424981206655,0.5123703342545777,-0.2523462830841541,-0.360730767250061,0.1447945386171341,-0.3785105943679809
5.0192958984375,-0.6065464187616482,0.5813309846907854,-0.2143640506923198,-0.3572039902210235,0.0750302672386169,-0.4102802276611328
5.029323974609375,-0.3611458996947854,0.6937642816286533,-0.3873416135072708,-0.3263640701770782,0.0044663455337285,-0.403545081615448
5.03935205078125,-0.1209629691457375,0.8456051675863564,-0.6753449009060859,-0.2658062875270843,-0.0658978074789047,-0.3628672957420349
5.0493798828125,0.0093641502706334,0.8841641038876026,-1.0472294175624848,-0.18384750187397,-0.2545427978038788,-0.2813623249530792
5.05940771484375,0.3321736338410526,0.9598422260105608,-1.3280021691858768,-0.1111340373754501,-0.5482037663459778,-0.1620456278324127
5.06943505859375,0.540237890269421,0.9226675106093288,-1.7197206826031206,-0.0840978920459747,-0.8282106518745422,-0.0626418143510818
5.079463134765625,0.4050779804017395,0.5943384964324534,-2.337241171050072,-0.1114536598324775,-0.95621919631958,0.0062176827341318
5.089490966796875,0.2414278525762259,0.0575396772336214,-3.076995708024502,-0.1827778965234756,-0.8727184534072876,0.0543910674750804
5.099518798828125,0.0527834226172417,-0.5906835541214793,-3.677984748387337,-0.2542874813079834,-0.5896658301353455,0.0790041908621788
5.109546875,-0.1532126127023249,-1.2019540422629564,-3.998817123198509,-0.2970650792121887,-0.1806181222200393,0.0766464918851852
5.119573974609375,-0.4206988164469599,-1.6817247139468787,-3.9147880099028343,-0.2885560989379883,0.2257480025291443,0.0271657779812812
5.129601806640625,-0.6411721437998116,-2.010671129369736,-3.2722774571061133,-0.2419837862253189,0.5677876472473145,-0.0593755058944225
5.1396298828125,-0.7445231396157294,-1.9811976359955965,-2.161385422450304,-0.205943077802658,0.764917254447937,-0.1521085202693939
5.149657958984375,-0.7428036954119801,-1.738547986539453,-0.7315963649600744,-0.1931295394897461,0.8159295320510864,-0.2188470661640167
5.15968603515625,-0.6002133798152208,-1.465840614080429,0.6727297499716282,-0.2064863741397857,0.7230188846588135,-0.2470159083604812
5.169713134765625,-0.3898037658371031,-1.1627637492556124,1.8145418235480784,-0.242498442530632,0.5723941922187805,-0.2440637946128845
5.17974072265625,-0.2632404194010421,-0.8512555214982479,2.6093133143454788,-0.277019739151001,0.3863770365715027,-0.2142626643180847
5.189768798828125,-0.0765431779870763,-0.6021127836957574,2.979169540044665,-0.2873490750789642,0.1720871180295944,-0.1581932604312896
5.199796875,0.1367031207216903,-0.4260968760982155,3.004796733254194,-0.2635969519615173,-0.0280243996530771,-0.0772833749651908
5.209824951171875,0.3450326404901221,-0.3714987322092056,2.793811803606153,-0.1982845366001129,-0.1937294751405716,0.0171725489199161
5.219851806640625,0.4779035991704091,-0.4245424862630665,2.3362509909689426,-0.1024215146899223,-0.2953558564186096,0.1044181808829307
5.2298798828125,0.4805310981297865,-0.6061373630367219,1.7960019582509994,0.0048367669805884,-0.3149497807025909,0.1767522990703582
5.239907958984375,0.5212003045832738,-0.7825517684325576,1.3649118039101362,0.1026310920715332,-0.287343293428421,0.2398149520158767
5.24993603515625,0.5699376301474869,-0.9053675623707472,1.054500869870186,0.1823339164257049,-0.2370742857456207,0.2917452454566955
5.259964111328125,0.593343347915262,-1.0134431755557656,0.8324573705911635,0.2478479444980621,-0.1920516937971115,0.3337251842021942
5.26999072265625,0.6869986599512398,-1.0558932740766551,0.6767980223238468,0.3038811087608337,-0.1742279529571533,0.3620814681053161
5.28001904296875,0.7145784485332667,-1.1090420959401874,0.6118529642045497,0.3407692611217499,-0.185783639550209,0.3663977682590484
5.290046875,0.6782575734823941,-1.192809343429282,0.561530890199542,0.3648546040058136,-0.2097177356481552,0.3428192138671875
5.300074951171875,0.6057112465791404,-1.2883750921964645,0.4780547346115112,0.3727465867996216,-0.22769096493721,0.2922108173370361
5.310101806640625,0.4748604686148464,-1.3793641076326368,0.3432172250986099,0.3775149583816528,-0.2344689816236496,0.2208309173583984
5.3201298828125,0.3294614522729069,-1.4433704235970972,0.1807540420353412,0.3664465844631195,-0.2032936960458755,0.1370250582695007
5.330157958984375,0.3477962965171784,-1.3115794421732423,0.1101198323637247,0.3384934961795807,-0.2105073928833007,0.0498054735362529
5.34018603515625,0.3116823422152548,-1.1705126098167151,0.1205798515796661,0.3021575510501861,-0.1558937430381775,-0.052403699606657
5.350214111328125,0.15469284132272,-0.9933521352939308,0.0708995826095342,0.2563887238502502,-0.1068809255957603,-0.1436731517314911
5.36024072265625,0.2438189124312251,-0.7738982141166925,0.1280301675856113,0.215707927942276,-0.0622740611433982,-0.1956663131713867
5.37026904296875,0.3256584797933697,-0.4906628717720508,0.1980962219804525,0.1871452629566192,-0.0291869509965181,-0.2254881262779235
5.380296875,0.3630159313503652,-0.1854519905932247,0.3552601295918226,0.164691537618637,-0.0254127923399209,-0.2410365492105484
5.390324951171875,0.4129454258412122,0.0992106811407953,0.5316413633704186,0.1541304886341095,-0.0440242961049079,-0.2418203055858612
5.400352783203125,0.4293723175723105,0.3148231975242495,0.6558171936154366,0.1476447135210037,-0.0708421319723129,-0.2261197417974472
5.410380126953125,0.4074350649219006,0.4736114184018224,0.7460457460731268,0.1434105634689331,-0.095740295946598,-0.1967229843139648
5.420407958984375,0.3973993355326354,0.5808879901636391,0.7901070061177015,0.131123274564743,-0.106674700975418,-0.1621301174163818
5.43043603515625,0.3699053986031562,0.6745929865602404,0.8127075449824332,0.1160891950130462,-0.1114963516592979,-0.1268469542264938
5.440464111328125,0.3264894507247954,0.715630734065175,0.7644283749818801,0.1048901379108429,-0.1019521281123161,-0.0941605046391487
5.45049169921875,0.3296154007256031,0.7000562944449484,0.7353092480033636,0.1006362736225128,-0.085829883813858,-0.0647733211517334
5.46051904296875,0.313963877281174,0.6513429708108306,0.6923544878959655,0.1005713567137718,-0.0742527097463607,-0.0433622449636459
5.470546875,0.2739486046917736,0.5999405542232096,0.6943371861457824,0.0932010635733604,-0.0632583796977996,-0.0262200105935335
5.4805751953125,0.3336576618537306,0.6656805621124804,0.6286199746102095,0.0826956182718277,-0.0415425784885883,-0.0075276116840541
5.490602783203125,0.2749617272570729,0.6275976458251475,0.6525047080665827,0.0626904815435409,-0.0311053842306137,0.0026904048863798
5.500630859375,0.281915711113438,0.6139400726769119,0.6422235525488853,0.0447809137403965,-0.0269594117999076,0.0173199716955423
5.510657958984375,0.2949054680027067,0.6216673059280962,0.6568722556263208,0.0226894598454237,-0.0300388261675834,0.0326302163302898
5.52068603515625,0.3297038827266544,0.6705330436449497,0.6032897185206413,0.0029470676090568,-0.0313268117606639,0.0494289435446262
5.5307138671875,0.3288052533864974,0.6090383451752365,0.5594575910568237,-0.0102739287540316,-0.028505727648735,0.0674161985516548
5.54074169921875,0.3470288923412561,0.5616447258375584,0.4910217682123184,-0.0188903994858264,-0.0275219902396202,0.0830380544066429
5.55077001953125,0.3592152969583869,0.5331037640731782,0.4807055413812399,-0.0328440330922603,-0.030503399670124,0.0894493535161018
5.560796875,0.3282115983422845,0.4517814255181699,0.4798199907183647,-0.0492188557982444,-0.0292312931269407,0.087296225130558
5.5708251953125,0.2379265664570033,0.3984946564886719,0.378142992529273,-0.0709582418203353,-0.0078418496996164,0.0951064825057983
5.580852783203125,0.4260054714877158,0.367078723809868,0.3423708374023437,-0.100499652326107,-0.0497059933841228,0.1256380379199981
5.590881103515625,0.5544365480244159,0.3572370556879788,0.3995744876146316,-0.1274551004171371,-0.0338924080133438,0.1345788091421127
5.600908935546875,0.2721655206672847,0.2172195862539112,0.1781622719764709,-0.1310414969921112,0.011819452047348,0.1335284411907196
5.61093603515625,0.2621654471132904,0.033695421918109,0.0220733001202344,-0.111677661538124,0.0435640662908554,0.1529183834791183
5.6209638671875,0.3407346145026385,0.0144015964485704,-0.047337505236268,-0.0884795561432838,0.0432261526584625,0.1776957511901855
5.63099169921875,0.4188751081511378,0.116446624232456,-0.0121066173791885,-0.0735397562384605,0.030528200790286,0.1928227692842483
5.64102001953125,0.3123006933093071,0.1023236985947936,-0.0324468100965023,-0.0630634054541587,0.0346863493323326,0.199539452791214
5.6510478515625,0.2177688906997442,0.0635155367728322,-0.1247007309019565,-0.0592364482581615,0.0299848075956106,0.2160052508115768
5.661074951171875,0.4825552609011531,0.1238674218829721,-0.1683762064993381,-0.056400503963232,0.029892249032855,0.2583546638488769
5.671102783203125,0.4379389242570847,0.116389414152503,-0.2462596566468477,-0.0553389675915241,0.0400343649089336,0.2838991582393646
5.681131103515625,0.304512523651123,0.0867038123976439,-0.3716811030387878,-0.0409957841038703,0.0650020465254783,0.2950747013092041
5.691158935546875,0.2252660415221005,-0.0139965227790176,-0.4853887307614087,-0.0216492488980293,0.0830428376793861,0.2989410758018493
5.70118701171875,0.122615229864791,-0.0509679706931114,-0.4803109891057014,-0.0165859665721654,0.1064880043268203,0.2786176800727844
5.7112138671875,-0.0910572583667933,-0.0708824853442609,-0.45308454400599,-0.0260172858834266,0.1260952651500702,0.2424852401018142
5.7212431640625,-0.1836841041378676,-0.0474817360125482,-0.3516612283170223,-0.0460489317774772,0.1022756621241569,0.2132768929004669
5.731271240234375,-0.1531554026223719,0.0603822802484035,-0.3434732456862926,-0.0632524192333221,0.0587833076715469,0.1998883932828903
5.741299072265625,-0.0892054930202662,0.2295878502439707,-0.4434621446579694,-0.064689964056015,0.0107873380184173,0.2159299254417419
5.7513271484375,0.0593671849217265,0.3827261556010693,-0.588174566975236,-0.0415207296609878,-0.0396771654486656,0.2603176236152649
5.76135400390625,0.2547314977202564,0.5615181037832051,-0.8452163143992424,0.0103447968140244,-0.1077779084444046,0.3333035409450531
5.771382080078125,0.4446918325833976,0.7460982799779623,-1.192197275945544,0.0861695185303688,-0.1954909861087799,0.4264172315597534
5.78141015625,0.6141417327288538,0.8629138105880468,-1.6063398026168343,0.1646178513765335,-0.2773979604244232,0.5195373892784119
5.791438232421875,0.6159159758597612,0.7823087534569203,-2.055896172496676,0.2163313776254654,-0.312044084072113,0.6042354702949524
5.80146630859375,0.5451011489242314,0.4419165957164019,-2.3983137716501948,0.2209625244140625,-0.2770187258720398,0.659608781337738
5.811492919921875,0.3028294659350067,-0.0452886829476803,-2.5104946281969545,0.1850806772708892,-0.1612284630537033,0.6695125102996826
5.821521240234375,0.0374756711091846,-0.5453815733008086,-2.501431616297364,0.1208062544465065,0.0176239591091871,0.6266412734985352
5.831549072265625,-0.2373865412961691,-0.9911169235877691,-2.2637971646547315,0.0581340864300727,0.2386410236358642,0.5384917259216309
5.8415771484375,-0.6014713439870626,-1.444848825586587,-1.9371137257277964,0.0304693933576345,0.439106673002243,0.406300812959671
5.85160400390625,-0.8251846761744469,-1.6627765601098536,-1.222985212919116,0.0184990167617797,0.556617021560669,0.2582048177719116
5.86163232421875,-0.8963276390857994,-1.5817404911503194,-0.2392792962402105,-0.0020787811372429,0.5789679288864136,0.1052220538258552
5.87166015625,-0.949793052617833,-1.3573258788257836,0.6921756241977215,-0.0406429506838321,0.5463892221450806,-0.0231511015444993
5.881688232421875,-0.894409238243848,-1.0507948549591004,1.338264620003104,-0.0962782353162765,0.4710158109664917,-0.1080877557396888
5.89171630859375,-0.9025770548693836,-0.8193974710751324,1.8085533967882397,-0.1506836712360382,0.3849347233772278,-0.1503459960222244
5.901742919921875,-0.8958109217353165,-0.6180456813648343,2.0918840162009,-0.1883813142776489,0.2698808908462524,-0.1620791405439376
5.911771240234375,-0.9304093569077552,-0.4468991333693266,2.216627417200804,-0.2001197338104248,0.1207920908927917,-0.159325435757637
5.921799072265625,-1.0284081049755216,-0.3656190265208482,2.172479647916555,-0.1802764683961868,-0.0071812300011515,-0.1424238681793213
5.931827392578125,-1.0209000674329698,-0.232410798710212,1.9213865797638887,-0.1338533163070678,-0.1151186153292656,-0.0868013501167297
5.941855224609375,-0.8495293552927672,-0.0929733941864222,1.6207862611204384,-0.0776159167289733,-0.179421529173851,0.0016040620394051
5.95188232421875,-0.7683559236891567,-0.0060981707446277,1.2080401572436092,-0.0058296080678701,-0.1959397941827774,0.1240127980709075
5.96191015625,-0.5295327737186104,0.0848802502322942,0.8251683826267718,0.0787527710199356,-0.1818687319755554,0.2691666483879089
5.971938232421875,-0.3876142929688095,0.1154413927126675,0.4946078100055456,0.1703298240900039,-0.1374517381191253,0.4014413356781006
5.98196630859375,-0.3627376258656382,0.0222056212630122,0.2307224802970886,0.2474080175161361,-0.1107803285121917,0.50505530834198
5.991994140625,-0.3458413265245035,-0.146408047254011,0.1421411105245351,0.3005964159965515,-0.0898904949426651,0.571556568145752
6.002021240234375,-0.4228575653834268,-0.3684198362205177,0.0421305842429399,0.3266478478908539,-0.0725854039192199,0.5824394822120667
6.012049072265625,-0.5059082255683839,-0.6480795120354741,-0.0459755692332983,0.3257879316806793,-0.0660761073231697,0.5495103001594543
6.022077392578125,-0.5681694148985669,-0.8762620985914021,-0.096366616821289,0.3041742444038391,-0.0533795915544033,0.4824156165122986
6.03210498046875,-0.6461730208270251,-1.0686661733448504,-0.1396615686684846,0.2687115967273712,-0.0352245569229126,0.3874632716178894
6.04213330078125,-0.7246614511303603,-1.2149374424766748,-0.1751256807595491,0.2247379720211029,-0.0099009200930595,0.2673956751823425
6.05216015625,-0.854515034750849,-1.293902769576758,-0.1250274786382913,0.1758135706186294,0.0409734472632408,0.1360815614461898
6.062188232421875,-0.9137871618002652,-1.2246337107785046,-0.0042196635216474,0.1306030005216598,0.0999226570129394,0.0154919484630227
6.07221630859375,-0.8200251014541834,-0.9638017042260616,0.220111654433608,0.10160543769598,0.1395869702100753,-0.0744472593069076
6.082243896484375,-0.6659735537096858,-0.625729075474292,0.5246364530444145,0.0891829133033752,0.1582458317279815,-0.1258363723754882
6.092272216796875,-0.5880632886204868,-0.2610562437623739,0.8190829252332449,0.0923094674944877,0.142404556274414,-0.154338851571083
6.102299072265625,-0.4849764966987073,0.0641796267047524,1.0502835444360972,0.1042916551232338,0.1120975911617279,-0.1572975367307663
6.112327392578125,-0.4120971384488046,0.3125183546479791,1.2743629334568976,0.1166519150137901,0.0837327912449836,-0.1489405483007431
6.12235498046875,-0.4029160165948793,0.4763177547510713,1.4200953464716672,0.1306595355272293,0.0522949397563934,-0.130401462316513
6.13238330078125,-0.3740658427508547,0.6214010562073439,1.5447691893666982,0.1354905068874359,0.0236004441976547,-0.1113830283284187
6.1424111328125,-0.3432262851879,0.7398742908965796,1.6202473319381474,0.139308288693428,-9.03671607375e-05,-0.085914209485054
6.152438232421875,-0.336202998954989,0.8569784291896969,1.5823217981696127,0.1399660855531692,-0.0212760791182518,-0.0638917312026023
6.162466064453125,-0.3219262709951028,0.9073628278411924,1.487428176510334,0.1460774689912796,-0.0413787811994552,-0.0406253673136234
6.172494140625,-0.3283226209687069,0.9356932155948132,1.345950498330593,0.1580326706171035,-0.0556687712669372,-0.0220855083316564
6.182522216796875,-0.3223003284718841,0.9204957195281982,1.2180477565169334,0.1635794341564178,-0.0680660381913185,-0.012699345126748
6.192550048828125,-0.3509704695738851,0.8844294768255203,1.0730208614230154,0.1638564020395279,-0.0742565542459487,-0.0088161900639534
6.202577392578125,-0.3843571908690035,0.8725950274512171,0.9107149147480724,0.1539530456066131,-0.0720327943563461,-0.004621319938451
6.21260498046875,-0.3817948661003261,0.8871165239524096,0.7636164740771054,0.1409291177988052,-0.0640166848897934,0.0077975327149033
6.22263330078125,-0.4066531938292086,0.8587762723919004,0.6116717624187469,0.1202399805188179,-0.0481181144714355,0.0189073011279106
6.2326611328125,-0.403264903097786,0.8331020251702517,0.4633142615973949,0.099209263920784,-0.0166009366512298,0.0254221931099891
6.242688232421875,-0.4251959086704999,0.8073971636146307,0.3077040131688118,0.0761373788118362,0.0228218603879213,0.0270907878875732
6.252716064453125,-0.4684948791056871,0.7610486694157124,0.22521803766191,0.0580129697918891,0.0611838996410369,0.0198123678565025
6.262744140625,-0.4887038101261481,0.7031256919529288,0.2145335620403289,0.0416794270277023,0.1018279120326042,0.007439094595611
6.272772216796875,-0.5282825909944251,0.66430109045282,0.2633475695699453,0.0264285672456026,0.1270046383142471,-0.0155959166586399
6.282800048828125,-0.541612393493019,0.6264493525728583,0.3401104912549257,0.0033412904012948,0.1358245015144348,-0.0430599153041839
6.2928271484375,-0.5799280590903013,0.5753311962867156,0.3916062852144241,-0.0265934392809867,0.1332156807184219,-0.0773795396089553
6.302855224609375,-0.6245102012038231,0.5151241995399818,0.4210732027173042,-0.0598874762654304,0.135118767619133,-0.1232865750789642
6.31288330078125,-0.6706282476477324,0.5377003346158191,0.4647451711833477,-0.0879587903618812,0.1366913616657257,-0.1738195270299911
6.3229111328125,-0.7229010173290967,0.572096780942753,0.5063064311057329,-0.1136655360460281,0.1291782259941101,-0.2250188738107681
6.332939208984375,-0.754536511042714,0.6842486305907368,0.5780091467916965,-0.1396979391574859,0.1070191264152526,-0.263226181268692
6.342966064453125,-0.6699212684221565,0.8544056560922414,0.6195207223534583,-0.1596411615610122,0.0796620398759841,-0.2660010457038879
6.352994140625,-0.6058547101704403,0.9830611159693448,0.5740156932413578,-0.162217229604721,0.0470202155411243,-0.2390650510787964
6.363022216796875,-0.5701779782420024,1.0763926759436726,0.4146621666312217,-0.1457547545433044,0.0112019432708621,-0.1928407847881317
6.37305029296875,-0.4755592645339667,1.18959863775447,0.2401373743742704,-0.1165324226021766,-0.0315519124269485,-0.1246833056211471
6.383078369140625,-0.3744630619075149,1.2270830036267637,-0.005020458510518,-0.0847333818674087,-0.0582450069487094,-0.0570013262331485
6.393105224609375,-0.4014973454359918,1.1206414213843643,-0.3806833246618509,-0.057115864008665,-0.0496453940868377,0.007239977363497
6.403133056640625,-0.4731435816943645,0.9399379404924808,-0.6980640977144241,-0.036589078605175,-0.0264765191823244,0.065010629594326
6.4131611328125,-0.5366673748388886,0.6775643305212259,-0.7899877636522055,-0.0332737118005752,-0.0336220487952232,0.0937743633985519
6.423189208984375,-0.562213977092877,0.4878298037705942,-0.8450859660178422,-0.0446264296770095,-0.0068203806877136,0.0882592871785163
6.433217041015625,-0.7572719273559748,0.2820086500938981,-0.9973591789782048,-0.0629665553569793,0.0518650375306606,0.0566238649189472
6.443244140625,-0.7952372816782445,0.09682860830985,-1.116183711323142,-0.0767460837960243,0.1394920945167541,0.0240106470882892
6.453272216796875,-0.7717330719720572,0.0663083092965185,-1.1766688674241303,-0.0783066973090171,0.2051414102315902,-0.0098328040912747
6.46330029296875,-0.7734034163370728,0.1894363840542733,-1.149005784472823,-0.0659052655100822,0.2148987352848053,-0.0331846065819263
6.473328369140625,-0.6552118481334298,0.407560664062947,-1.0339899967610835,-0.0506621338427066,0.1684340238571167,-0.0324170850217342
6.483355224609375,-0.5166318276239559,0.5738697088994086,-0.9852765269964932,-0.0407950468361377,0.1117683872580528,-0.0087842149659991
6.493383056640625,-0.3842627905838191,0.6463447241321205,-1.0529723451286557,-0.0276688560843467,0.0610753819346427,0.0381848886609077
6.503411376953125,-0.263320791160874,0.6722260382331907,-1.3068933301836252,0.0085300980135798,-0.0150188878178596,0.1036868542432785
6.513439208984375,-0.1535726781863719,0.6219624164171517,-1.6693208671867847,0.0555649846792221,-0.098067969083786,0.1800745725631714
6.523467041015625,-0.1760258810022845,0.4238715281989425,-1.9753589929699895,0.0895530954003334,-0.1680023074150085,0.2357988059520721
6.533494140625,-0.2368277383696287,0.0840412421248853,-2.1623802787065505,0.0830254256725311,-0.1779236495494842,0.2567434906959533
6.543522216796875,-0.3587995192317292,-0.3277543560940772,-2.2913941966325044,0.0357169844210147,-0.086633525788784,0.2305760085582733
6.55355029296875,-0.5206078185828402,-0.7684753853503614,-2.383709492236376,-0.0309019871056079,0.0975895747542381,0.1657679826021194
6.563578125,-0.6223060422230512,-1.0875733375843617,-2.3773639226019383,-0.0681801885366439,0.331803411245346,0.0805709064006805
6.573606201171875,-0.7086394869383424,-1.2622453562922775,-2.1390824052274224,-0.0689373239874839,0.5172193646430969,-0.0188773851841688
6.583633056640625,-0.7398705645695328,-1.2366468046553432,-1.4648299757331609,-0.0661849081516265,0.5899882912635803,-0.1190429702401161
6.593661376953125,-0.6579186959393322,-0.9839026813600212,-0.4061871837526559,-0.0849109217524528,0.5452927350997925,-0.2084942907094955
6.603689208984375,-0.6215032744728028,-0.7322835435066372,0.5869897411048411,-0.1197384223341941,0.4142666459083557,-0.2892289757728576
6.613717041015625,-0.6151392193336039,-0.5475094521749765,1.2625433163255453,-0.156449556350708,0.2540077567100525,-0.3456624448299408
6.6237451171875,-0.5984211991688236,-0.4481026639401912,1.585605642145872,-0.177272081375122,0.0923054069280624,-0.374888926744461
6.6337724609375,-0.5280010706393048,-0.3681113547932356,1.6439122851639985,-0.1847513020038604,-0.0297890789806842,-0.375232994556427
6.64380029296875,-0.4371291787767782,-0.2587183753993362,1.5138444742709398,-0.1642831116914749,-0.1130026206374168,-0.3523986935615539
6.653828125,-0.3241403303153812,-0.2219349243380129,1.3002134140282868,-0.1230949386954307,-0.1571357399225235,-0.3138116002082824
6.663856201171875,-0.2382159778576344,-0.2488674279924482,0.9890385098785162,-0.0603387653827667,-0.1619182527065277,-0.271766722202301
6.673884033203125,-0.1737336053466424,-0.3200625594824552,0.7821990094721317,0.0087697282433509,-0.1356040984392166,-0.2257651388645172
6.683911376953125,-0.0932417445327155,-0.4529630365181714,0.6564116523772477,0.071030393242836,-0.0915190279483795,-0.1908895224332809
6.69393896484375,0.0074766560235992,-0.5357734216738492,0.645286447250843,0.1167241111397743,-0.0545479543507099,-0.1613132655620575
6.70396728515625,0.106486133770179,-0.5859913046520203,0.7706190463155508,0.1416860222816467,-0.0521714240312576,-0.1402787566184997
6.7139951171875,0.1821667035785503,-0.6576954085774719,0.9625959086328744,0.151579663157463,-0.0906133577227592,-0.1253434866666793
6.72402294921875,0.29622530016331,-0.7680096675347536,1.0630313823282718,0.1574455946683883,-0.164127841591835,-0.1094724833965301
6.7340498046875,0.3920195787230506,-0.8441210665084421,1.0311439596801997,0.1672878414392471,-0.241081491112709,-0.1033006086945533
6.744078125,0.3956206354223192,-0.9246681829072536,0.8758791636884212,0.168912872672081,-0.2943229377269745,-0.101273663341999
6.75410595703125,0.4679612836856395,-1.0202240678675472,0.626886282685399,0.1751446574926376,-0.3221508264541626,-0.1006025522947311
6.764134033203125,0.4856046750670298,-1.150866171517223,0.3897346461236476,0.1776804476976394,-0.3100666999816894,-0.1096100360155105
6.7741611328125,0.4643809044482186,-1.2376546665236352,0.176990890109539,0.1885613203048706,-0.2643346190452575,-0.1219194307923317
6.784188720703125,0.4429547065924852,-1.3328170221216975,-0.0189472770541906,0.1993989050388336,-0.1951637864112854,-0.1413438618183136
6.794217041015625,0.3939295039976015,-1.4114973217353224,-0.0455032755464315,0.2061201930046081,-0.1093378365039825,-0.17684406042099
6.804244873046875,0.3299670637074858,-1.3959556153409185,0.052609892681241,0.2092735916376114,-0.0363871306180954,-0.2154526114463806
6.814273193359375,0.3115025652015581,-1.2858216083213687,0.2983154225766659,0.2071438580751419,0.002255865605548,-0.2450744062662124
6.8242998046875,0.3577535538427531,-1.0696905479565262,0.600160772845149,0.2037202417850494,-0.0012876065447926,-0.2629019320011139
6.834328125,0.4289947894968092,-0.8057548032350837,0.8816378733456134,0.1979316025972366,-0.0400331392884254,-0.2639693319797516
6.84435595703125,0.458872297094576,-0.5541860438620672,1.0440478649169207,0.1879959255456924,-0.0761881172657013,-0.2524915635585785
6.8543837890625,0.4377313824536278,-0.3841160025242716,1.1005594412118196,0.1868952363729477,-0.1191672757267952,-0.2263116240501403
6.864412109375,0.4125187613943591,-0.2970136923283338,1.0845546473503112,0.188918188214302,-0.1593908071517944,-0.1969821453094482
6.87443896484375,0.3784862164763733,-0.2138648324659094,1.069530681219697,0.1913304775953292,-0.1861188262701034,-0.1738986670970916
6.884467041015625,0.331879180939123,-0.123244613809511,0.950507411432266,0.189455509185791,-0.1943499445915222,-0.156081810593605
6.894494873046875,0.312712744708918,-0.064680963823013,0.8061217368513345,0.1828833520412445,-0.179907888174057,-0.1372974663972854
6.904523193359375,0.3094739454507828,0.0016839710315689,0.6873468888670206,0.1762802749872207,-0.1512955129146576,-0.1172319576144218
6.914551025390625,0.3432656673502177,0.0957075683906674,0.608005056604743,0.1617956012487411,-0.1210409328341484,-0.0933684334158897
6.924577880859375,0.3969811466531828,0.1751118714299052,0.5969453179299831,0.1486994326114654,-0.1016542315483093,-0.0678097903728485
6.93460595703125,0.4690916759550571,0.2892403183804825,0.569110385543108,0.1319745033979416,-0.1019852608442306,-0.0356912687420845
6.944634033203125,0.5144917103227228,0.4186711830768734,0.5236398432224989,0.1207160279154777,-0.1183954551815986,0.0007585165440104
6.954662109375,0.5268542386917398,0.4638236724242567,0.4764934766441583,0.103043295443058,-0.1359182596206665,0.0326088555157184
6.964689697265625,0.498780346449837,0.4536326794080436,0.3784796771377325,0.0863378122448921,-0.1399984806776046,0.0546137578785419
6.974717041015625,0.4612216732323169,0.4181800750916823,0.2664882056832313,0.0682158023118972,-0.1333416402339935,0.0714169740676879
6.984744873046875,0.42157289586775,0.3772973354853689,0.1996715084731578,0.0470224730670452,-0.1234925463795661,0.0825652778148651
6.994773193359375,0.3508399019967764,0.3104976990079507,0.1156570082247257,0.0241829380393028,-0.1076906844973564,0.0878750905394554
7.00480078125,0.2782496628865599,0.2117389263531193,0.0287006093055009,0.005406342446804,-0.085859477519989,0.089047685265541
7.014827880859375,0.2030965875510126,0.1768136338464915,0.0230792622923851,-0.0204963609576225,-0.0679393336176872,0.0879616513848304
7.02485595703125,0.1593416169766336,0.1832413836053572,0.0349754517912864,-0.0465143807232379,-0.0578299723565578,0.0850169882178306
7.034884033203125,0.1494715995430946,0.2260960626054555,0.0759153649449348,-0.0727252066135406,-0.0426198653876781,0.0904069617390632
7.044912109375,0.1111539246518164,0.2735614137387834,0.0742518156468868,-0.0946471467614173,-0.0242529734969139,0.1024683639407157
7.05493994140625,0.0820878430347889,0.339462841001153,0.0856710352838039,-0.1093238294124603,-0.0091624371707439,0.1161897704005241
7.064967041015625,0.1000180520009249,0.4205042437229305,0.1569651701688766,-0.1158519983291626,-0.0060215657576918,0.1359750926494598
7.0749951171875,0.099524569395557,0.479084333387576,0.2233037284731864,-0.115136407315731,-0.0072072055190801,0.1583927869796753
7.085023193359375,0.0695022830322384,0.4617614426648244,0.2732756738662719,-0.1054177656769752,-0.0237287040799856,0.1818770766258239
7.09505078125,0.0826189542368054,0.4431286749199032,0.3220750683486461,-0.0923743993043899,-0.047146413475275,0.2039778530597686
7.1050791015625,0.084634824103862,0.4486290624344721,0.3293120338648557,-0.0802811160683631,-0.0670184195041656,0.2309794127941131
7.11510595703125,0.1246258390348404,0.4387742060374468,0.2991623947948217,-0.0677349641919136,-0.0902760699391365,0.2607365250587463
7.125134033203125,0.182614356014505,0.4043132065743208,0.1925853496044874,-0.0565242245793342,-0.1056022197008133,0.287341445684433
7.135161865234375,0.2069416456066072,0.3452451141970232,0.0425572852224111,-0.0451405420899391,-0.1171909645199775,0.3030644953250885
7.14518994140625,0.2133083310943097,0.2503975236365571,-0.0764507869958877,-0.0323481932282447,-0.1407082974910736,0.3036364018917084
7.155218017578125,0.1914759270578622,0.1560977762171998,-0.2008025583297014,-0.0201631691306829,-0.1498373597860336,0.2840427458286285
7.1652451171875,0.0908924962591379,0.0575177941953763,-0.341031113231182,-0.0200201570987701,-0.1506416201591491,0.2477992326021194
7.17527294921875,-0.0074898442987352,0.0094785704305395,-0.3612754443585872,-0.0362816825509071,-0.1426412314176559,0.2034919559955597
7.18530078125,-0.0757039141513407,0.0520028666988015,-0.3386415877461433,-0.0677259638905525,-0.1397704780101776,0.1652238667011261
7.195328857421875,-0.0151659318845719,0.2120743688525632,-0.3503144898831844,-0.1002503558993339,-0.1504707932472229,0.1530430912971496
7.205356201171875,0.0912871215999126,0.4780378200093284,-0.4555599942088127,-0.1134715378284454,-0.152991697192192,0.1699136644601822
7.215384033203125,0.2102269508875906,0.645467356775701,-0.6608750615268946,-0.0934762582182884,-0.1379477679729461,0.2235079258680343
7.225411865234375,0.335679011613503,0.7010472051784395,-0.9701116910904646,-0.0294935535639524,-0.1390470266342163,0.3002611100673675
7.23543994140625,0.5157542776044458,0.8073559548214078,-1.242193186736107,0.0573382824659347,-0.169571116566658,0.3856875896453857
7.245468017578125,0.6193610748123377,0.905943170301616,-1.4191642031013965,0.1335758417844772,-0.2232707142829895,0.4612309038639068
7.2554951171875,0.6187840786419808,0.7556970792546868,-1.5787211433291437,0.1749863922595977,-0.2675319314002991,0.5139462947845459
7.265522705078125,0.5456685004834085,0.4094618580417707,-1.7698825976103545,0.1797567754983902,-0.2627787292003631,0.5399342775344849
7.275551025390625,0.3919284298408776,-0.0309223770081996,-1.9792671063244345,0.1546753942966461,-0.1990421116352081,0.5176411867141724
7.285578857421875,0.1286808865793049,-0.4520783626381308,-2.0668097806990144,0.1018403396010398,-0.0552814602851867,0.4466350674629211
7.29560693359375,-0.1597033629611134,-0.8811563734389841,-2.091477773487568,0.0369372479617595,0.1334746032953262,0.3334781527519226
7.305634033203125,-0.4135308975789695,-1.2407821508944037,-1.8017805416524408,-0.0335051789879798,0.3069896399974823,0.1950797885656356
7.315661865234375,-0.5789520536649971,-1.465713480569422,-1.22663262951076,-0.092042788863182,0.4165270626544952,0.0407730378210544
7.32568994140625,-0.6773804983869195,-1.428762344790995,-0.5652537101149558,-0.1278994083404541,0.467742383480072,-0.1016116961836814
7.335718017578125,-0.7389023771245032,-1.1721855845302342,0.0384141940683126,-0.155531570315361,0.4761752784252167,-0.2196198254823684
7.34574609375,-0.8101599063262342,-0.9414834163688124,0.5738666401594877,-0.1751885712146759,0.4386854469776153,-0.2891817092895508
7.355772705078125,-0.7701279748629778,-0.6699793552849441,1.0858002634972332,-0.1890609711408615,0.3453983664512634,-0.306864857673645
7.365801025390625,-0.7464902749702333,-0.4171487958151847,1.4867144752830266,-0.1991084367036819,0.2091758847236633,-0.2955983579158783
7.375828857421875,-0.7881598906379192,-0.2512242202516645,1.6704571777403354,-0.2047167867422104,0.0706624835729599,-0.2636103332042694
7.385857177734375,-0.8449008917745202,-0.1449777221899479,1.6696721648424864,-0.209252193570137,-0.0347168743610382,-0.2137352526187896
7.3958837890625,-0.8747466525271534,-0.1745981862867251,1.4024497996658083,-0.1934756338596344,-0.0811498835682869,-0.1446011811494827
7.405912109375,-0.8838164594937116,-0.2668046877538785,1.0320938077509405,-0.1546830981969833,-0.0758869796991348,-0.0631042644381523
7.41593994140625,-0.8967758943099527,-0.369625997139886,0.6793395235002041,-0.0948937907814979,-0.0400730594992637,0.0084245121106505
7.425968017578125,-0.9319239261891692,-0.4252461775530129,0.4451356308281421,-0.0291716419160366,0.0058250641450285,0.0610536858439445
7.43599609375,-0.8815495374750345,-0.4395184485334902,0.3680512221038341,0.0267448890954256,0.0289966948330402,0.1019808799028396
7.446022705078125,-0.78378985886015,-0.4429662874324247,0.3978460563868284,0.0637862011790275,0.0297557134181261,0.1217248737812042
7.456051025390625,-0.7034020246762782,-0.4269258012030273,0.4357055391818284,0.0784229338169097,0.0285703409463167,0.131153255701065
7.466078857421875,-0.6179851833492517,-0.3810310421209782,0.470087701255083,0.0758600607514381,0.0097425058484077,0.1334244459867477
7.476107177734375,-0.4666670060914009,-0.3884614113174379,0.4714712645679712,0.0692591518163681,-0.02413210272789,0.1267087459564209
7.486135009765625,-0.4102941806800663,-0.4433241609593853,0.3577145370066166,0.0723137259483337,-0.0457600429654121,0.0984200537204742
7.496162109375,-0.4613583052240312,-0.4848990840809419,0.178801738923788,0.0768405646085739,-0.0459094457328319,0.0595078133046627
7.50618994140625,-0.4636156556967645,-0.5471002868521958,0.0502536849439144,0.0826982781291008,-0.0276124384254217,0.0108487997204065
7.516218017578125,-0.4289491967894137,-0.5431477863667532,-0.0018266309052705,0.0775434672832489,0.0001507494598627,-0.0382313951849937
7.52624609375,-0.3815095463529229,-0.5113415757287293,0.0064595514029264,0.0670253634452819,0.0411932505667209,-0.0884977728128433
7.53627294921875,-0.3453664390217512,-0.5069496243800967,0.0774094028949737,0.0589948706328868,0.0891746282577514,-0.1445740908384323
7.546301025390625,-0.4070207850325852,-0.4399789056520908,0.1626858859032392,0.0438129492104053,0.136818915605545,-0.1995663940906524
7.556328857421875,-0.3998197676125913,-0.3504246722593903,0.33419045355618,0.0240152776241302,0.1712922006845474,-0.2446358650922775
7.566357177734375,-0.3145009798325598,-0.2030524196157231,0.571861145555973,0.0009726898279041,0.1842191964387893,-0.2865821123123169
7.576385009765625,-0.2812569549437612,-0.0312159531272947,0.8615192144244909,-0.0225699208676815,0.1859329342842102,-0.3334590792655945
7.586411865234375,-0.2618079389125108,0.1506790025714784,1.0416513251692057,-0.0376295261085033,0.1830508112907409,-0.3754998445510864
7.59643994140625,-0.2847703333595767,0.3065042089249938,1.1632423996180294,-0.029120460152626,0.1900176405906677,-0.4059512317180633
7.606468017578125,-0.2869681356647983,0.5107060908367858,1.2394821742117403,0.017440028488636,0.2051053643226623,-0.4255131483078003
7.61649609375,-0.3784452999440953,0.7140900074291974,1.2002438042789696,0.1072074621915817,0.183402732014656,-0.4576487243175506
7.626523681640625,-0.4537309521507471,0.886205911913514,1.28314245223999,0.179208755493164,0.1108395680785179,-0.4770122766494751
7.636551025390625,-0.3705292661225423,1.0397206493675708,1.4979805501848458,0.1998272240161895,0.0540404692292213,-0.4640200436115265
7.6465791015625,-0.2463437547337263,1.2184152746550738,1.6461393135637044,0.1773647665977478,-0.0087646367028355,-0.4377473890781402
7.656607177734375,-0.2921685903847217,1.353797266308218,1.5868921748250722,0.127097874879837,-0.0405816882848739,-0.4148881733417511
7.666634765625,-0.3152690781282261,1.4255446979187427,1.3481892171680927,0.0858944281935691,-0.0645297765731811,-0.3984746634960174
7.676661865234375,-0.3363914707317948,1.4480045131385326,1.0069880080670115,0.0482810102403163,-0.0806850418448448,-0.3808274865150451
7.68668994140625,-0.3600357099631801,1.419095375648886,0.6461638146072626,-0.0037464313209056,-0.0627732723951339,-0.3693925738334656
7.696718017578125,-0.3619163726106286,1.4067232392013072,0.3695429219663143,-0.0592618882656097,-0.0294986777007579,-0.3604227900505066
7.70674609375,-0.413583394951187,1.3270455991134047,0.0857739111363887,-0.0897400602698326,0.0076016364619135,-0.3711409866809845
7.71677392578125,-0.4656816483158618,1.2821686387717723,-0.2664285844504833,-0.0752540603280067,0.0686279684305191,-0.4019623100757599
7.726800048828125,-0.580279356746003,1.219954466921091,-0.5507973147392272,-0.031567495316267,0.1341053694486618,-0.4491032063961029
7.736828125,-0.613392887122929,1.1167957057416438,-0.5465905106991529,0.0074084009975194,0.200229525566101,-0.4942400455474853
7.746855712890625,-0.5900216196140274,1.1274378035262227,-0.3553554066598415,0.032459195703268,0.2492929100990295,-0.533477246761322
