seconds_elapsed,ax,ay,az,gx,gy,gz
0.08492822265625,-0.2079013940168544,-0.0022449293825775,-0.0549824670314788,-0.0885746926069259,0.0206998828798532,0.0915277153253555
0.094956298828125,-0.3758221848988905,0.0558343346204608,-0.0258107330828905,-0.0288761723786592,0.0086030736565589,0.084637776017189
0.104984375,-0.5013176463751122,0.0948616190858185,0.0993430022835731,0.0143471974879503,0.0021595552098006,0.0642691180109977
0.115012451171875,-0.5647627482602372,0.1177780189666897,0.2181640274971723,0.0362493135035038,0.0106021482497453,0.0293183252215385
0.12504150390625,-0.6189900495428592,0.1157256164815276,0.3695984515458345,0.0315504297614097,0.0220428202301263,-0.0131055647507309
0.1350693359375,-0.634692791717872,0.0920114172864705,0.4541290846228599,0.0201589427888393,0.0444145463407039,-0.0545340739190578
0.14509765625,-0.6157152656558901,0.0555673542473465,0.4298866237699985,0.0138065041974186,0.0668476819992065,-0.0853053033351898
0.155125244140625,-0.5460055869506671,0.0470386684201657,0.3720832540988922,0.0128943659365177,0.0830613523721695,-0.0980722308158874
0.1651533203125,-0.4895731768392026,0.0407380339059978,0.3056751376897096,0.0077086584642529,0.0909578874707222,-0.0915208533406257
0.175181396484375,-0.4552078563028946,-0.0362795931924134,0.2439478725731372,-0.0016090860590338,0.0820282027125358,-0.0775458812713623
0.18520947265625,-0.4061408238602801,-0.1908982002351432,0.1435439630597829,0.0023715407587587,0.0526612550020217,-0.0544450879096984
0.195237548828125,-0.2860578524194657,-0.3221862005729228,0.0732838473975658,0.0151914656162261,0.0039733443409204,-0.0155909014865756
0.2052666015625,-0.1431074713386595,-0.3394837376587092,0.0573392592906951,0.027039336040616,-0.049098927527666,0.0384837873280048
0.215294189453125,-0.0888906549174338,-0.2393691664807498,0.1236146892309188,0.0242009069770574,-0.0848884209990501,0.0893009677529335
0.225322265625,-0.1221877617003396,-0.1372761348366737,0.2381172667235135,0.0177914761006832,-0.1047042086720466,0.1162929013371467
0.235350341796875,-0.2706040435042232,-0.0192298203226178,0.3804454242527484,0.0084549598395824,-0.1112515032291412,0.1196175962686538
0.24537841796875,-0.3757514212176203,0.0707551326375454,0.4517331293970346,0.0054911281913518,-0.1014755740761756,0.1138633042573928
0.255406494140625,-0.3421646107731387,0.1415452635232359,0.4644225151002407,0.0095661804080009,-0.0794360190629959,0.113070972263813
0.265434326171875,-0.3636780119882896,0.2180016034770756,0.4349894998669624,0.0220769122242927,-0.0438673682510852,0.1087159067392349
0.275462158203125,-0.48365905742459,0.3086496965210885,0.3878793736457824,0.0307038072496652,0.0035139601677656,0.1018564477562904
0.285490478515625,-0.5718468613022938,0.3089733755175024,0.2781991017431021,0.0436116158962249,0.0386080332100391,0.0867283567786216
0.295519287109375,-0.5743688540605828,0.3082589436378329,0.1694733540862798,0.0533162541687488,0.055397905409336,0.077683575451374
0.30554736328125,-0.5209637558810413,0.301758329572156,0.0424485641509294,0.0668064951896667,0.0573891513049602,0.0723205059766769
0.315575439453125,-0.4385310814639553,0.2864727168306708,-0.0634264702498912,0.0806943923234939,0.0525714010000228,0.0728168413043022
0.325603271484375,-0.4151738424804061,0.2389043254479765,-0.1529711320966482,0.0958112925291061,0.0513727106153965,0.0822755917906761
0.335631103515625,-0.4716255783468485,0.2267402787931263,-0.2394832943797111,0.1065479665994644,0.04702103510499,0.0921622663736343
0.345659423828125,-0.4499018223166465,0.2422537089411169,-0.2945417492568493,0.1098452284932136,0.0219953097403049,0.1051238775253295
0.355687255859375,-0.3944749725185334,0.2491602734591811,-0.3048538844347,0.1074214130640029,-0.0045266333036124,0.1109435707330703
0.365715576171875,-0.4056587028991431,0.260546467609331,-0.3058306205123662,0.1000335365533828,-0.0301172155886888,0.1094759032130241
0.375743408203125,-0.4070309776330366,0.2846840067829936,-0.2802332379192114,0.0921591520309448,-0.0485810860991478,0.1100241616368293
0.3857724609375,-0.3939875908603891,0.3451344568967819,-0.2563175248026847,0.0873995497822761,-0.0630569607019424,0.1195678636431694
0.39580029296875,-0.3586728241121396,0.4132803568840026,-0.2237742685943841,0.0886102244257927,-0.0710357949137687,0.1298689693212509
0.405828369140625,-0.3437143609657883,0.4608654802057891,-0.2369873859107494,0.0999587476253509,-0.0839510560035705,0.1379146426916122
0.415856201171875,-0.3130339029546827,0.5080963832624257,-0.2122182708352804,0.1137052476406097,-0.095613807439804,0.1468835026025772
0.425884521484375,-0.2814541580162942,0.5714203429859132,-0.1151338611334562,0.1119560822844505,-0.0980023965239524,0.1482262760400772
0.435912353515625,-0.3390611283324659,0.6622885815866291,0.0197281982988119,0.0978474393486976,-0.0836876854300499,0.1379214972257614
0.445940185546875,-0.4145183377137407,0.7332506349731236,0.115635965436697,0.07700926810503,-0.0547172874212265,0.1186442077159881
0.45596826171875,-0.4100973429337143,0.7827487523093819,0.1530617329895496,0.0549798160791397,-0.0254184249788522,0.1034464240074157
0.4659970703125,-0.3346753509962931,0.8254998065382242,0.1684755752205848,0.0377206690609455,-0.0067195720039308,0.0968644246459007
0.47602490234375,-0.2642336682220921,0.8311357665985822,0.1369482180565595,0.0255383942276239,0.0044665704481303,0.096489816904068
0.48605419921875,-0.2628697959903627,0.8114886707119643,0.1009223804295063,0.0152780320495367,0.0124991964548826,0.0975068807601928
0.496082275390625,-0.2460428355583921,0.8030269126411527,0.1124351235687732,0.0028082700446248,0.0115173906087875,0.0969341173768043
0.506110107421875,-0.2292210262255743,0.8503624451160431,0.1536363180071115,-0.011443636380136,-0.0025544855743646,0.0883901640772819
0.51613818359375,-0.2708148001780733,0.854284221669659,0.142488316527009,-0.017066229134798,-0.0151981739327311,0.0701730400323867
0.526166015625,-0.351057745998539,0.9022766106180846,0.1375713183909654,-0.0125479102134704,-0.0242007225751876,0.0438421070575714
0.5361943359375,-0.3873743102004751,0.9708765379831196,0.1322258657097816,0.0046181972138583,-0.0251515097916126,0.0162096321582794
0.54622216796875,-0.4200481339858845,1.043660911425948,0.1583364585220813,0.0195713154971599,-0.0176222193986177,-0.015420732088387
0.55625,-0.4601164519367739,1.053139591454342,0.1814011077672243,0.0377755761146545,0.0038841506466269,-0.0477024279534816
0.5662783203125,-0.5041635373255238,1.0312722622349857,0.179475108140707,0.0486029237508773,0.0241396203637123,-0.0780262425541877
0.576307373046875,-0.4521857685353607,1.0071691367875784,0.1589969682574272,0.0570312589406967,0.0335294939577579,-0.0987325087189674
0.5863349609375,-0.405458723347634,0.962566609473154,0.1286211192160844,0.0583175644278526,0.0327760875225067,-0.115387387573719
0.59636328125,-0.4467373669363558,0.9034215428695084,0.1118763206422329,0.0535583794116973,0.0365120060741901,-0.1365659385919571
0.60639111328125,-0.4714906633881852,0.8248833551403134,0.1265998425215482,0.0472714528441429,0.0305912662297487,-0.1547915488481521
0.616419189453125,-0.4508393588950857,0.7895642775431275,0.1213011515915393,0.0384164415299892,0.0288631413131952,-0.1590291708707809
0.626447265625,-0.4060421127261593,0.7740888413179665,0.1102466736137866,0.0272226445376873,0.0265168957412242,-0.1479837149381637
0.63647509765625,-0.3580188171828165,0.7090873037710785,0.0549380433678627,0.0216548629105091,0.0148140396922826,-0.1343229264020919
0.646503173828125,-0.3174217626500875,0.6515327942945063,0.0254752175182104,0.0208391360938549,-0.0029593640938401,-0.1096274405717849
0.656531005859375,-0.2394620689285919,0.6321775940265506,-0.0008031330764293,0.0217690952122211,-0.0231310240924358,-0.0817838087677955
0.66655908203125,-0.2169467241292819,0.6514565872531384,0.0260953952431678,0.021859910339117,-0.0314757749438285,-0.062135275453329
0.676588134765625,-0.3111981754275039,0.6933544587187469,0.1079004027485847,0.0205583255738019,-0.0309550017118453,-0.0492959581315517
0.6866162109375,-0.4081317784817889,0.7074344219975173,0.1621761828154325,0.0227040350437164,-0.0267972759902477,-0.0474751554429531
0.69664404296875,-0.4592450759297236,0.7585452352274209,0.1983960817098617,0.0252129510045051,-0.0016210605390369,-0.0502668619155883
0.706672119140625,-0.5423850583659484,0.8547837686896324,0.2575210553735494,0.0235173162072896,0.0343036502599716,-0.0603178963065147
0.7167001953125,-0.6444972696345299,0.8876495348505675,0.2897632828086614,0.0238716732710599,0.0713699162006378,-0.0776420682668685
0.72672802734375,-0.6283407192774116,0.8605567260678857,0.2625917827665806,0.0289167668670415,0.0991658642888069,-0.0921853259205818
0.736756103515625,-0.5472828038122505,0.8387269523799419,0.2470353171944618,0.0291876140981912,0.1207661405205726,-0.1016885489225387
0.7467841796875,-0.5321909235445782,0.8575590786218643,0.2488034959107637,0.0168856736272573,0.1362454891204834,-0.1057373508810997
0.75681201171875,-0.5205864470012486,0.8470245328649878,0.2007365073561668,0.0065082041546702,0.1412582546472549,-0.1019089445471763
0.766840087890625,-0.4131897559911012,0.7825487727578729,0.1058639284849166,0.0024274422321468,0.1348911821842193,-0.0940251871943473
0.776869140625,-0.3515002290690318,0.7837851826850324,0.0347965880930423,-0.0018032877705991,0.135935753583908,-0.0828840509057045
0.786897216796875,-0.400673607962951,0.8601979026928543,-0.0077922613114118,-0.0056459628976881,0.1517117917537689,-0.0782418921589851
0.79692529296875,-0.4537753392817452,0.8911457064032554,-0.0668780720084905,-0.0165477357804775,0.1705038100481033,-0.0752269551157951
0.806953125,-0.4733190113265067,0.9405296227753162,-0.0800081872165203,-0.032098464667797,0.1903707236051559,-0.0739984437823295
0.816981201171875,-0.4580311335626989,0.9475588638249784,-0.1465425603538751,-0.0490522533655166,0.1973719298839569,-0.0723475888371467
0.827009033203125,-0.3947203255817293,0.918468159223348,-0.1963379801362753,-0.071200430393219,0.193919688463211,-0.0747359171509742
0.837037109375,-0.3615985023004934,0.9291823723960668,-0.2268476846903562,-0.0950491279363632,0.1850630193948745,-0.0839628130197525
0.847065185546875,-0.3681010525949299,0.9424930318027734,-0.2297100883841514,-0.1113330274820327,0.1804727911949157,-0.0979271009564399
0.857093017578125,-0.3614897446963936,0.9513383092984556,-0.2414852818518877,-0.1235648766160011,0.1806741952896118,-0.1168710440397262
0.867121337890625,-0.3877046016007661,0.9597088819544762,-0.2780477105736732,-0.1337559819221496,0.189568355679512,-0.1372189223766327
0.877150390625,-0.3670475980192422,0.9732321611985564,-0.2841945427656173,-0.1463750749826431,0.1787158846855163,-0.1498652845621109
0.887177978515625,-0.2867894363633357,0.958026554890722,-0.2765489964485168,-0.1604418903589248,0.1546521037817001,-0.1554387509822845
0.897206298828125,-0.2604821336688473,0.9561864799819886,-0.2734235579043627,-0.1654487997293472,0.1384802758693695,-0.1596867144107818
0.907234130859375,-0.3302151932496577,1.0336163411431014,-0.3073229048967361,-0.1600686758756637,0.1443751752376556,-0.1678311973810196
0.91726220703125,-0.4302310532934963,1.129984200073406,-0.3796072198629379,-0.1476683914661407,0.1811483502388,-0.1891456842422485
0.927290283203125,-0.5787932829067111,1.2002866935726255,-0.4254401657551527,-0.142583355307579,0.2345103770494461,-0.2354191839694976
0.93731787109375,-0.8205854387506842,1.2047024641882629,-0.4979021753758191,-0.1446346640586853,0.2888111174106598,-0.3141456544399261
0.94734619140625,-1.1011086725924164,1.1529520378805695,-0.676767627185583,-0.147752434015274,0.3316438198089599,-0.4095187783241272
0.9573740234375,-1.2643106182590127,1.06289277757518,-0.8973422229558229,-0.1442634314298629,0.3388407528400421,-0.5041965246200562
0.967403076171875,-1.325084089782089,0.922926161545515,-1.1348907498806715,-0.1280988305807113,0.2995985150337219,-0.5848386883735657
0.97743115234375,-1.244624067144841,0.6937696153908968,-1.3952087424963713,-0.08975600451231,0.1964630931615829,-0.639836311340332
0.987459228515625,-1.0081838667880745,0.405026542475447,-1.5662912853449582,-0.0293682999908924,0.037530168890953,-0.6490767002105713
0.997487060546875,-0.7110287932276725,0.1458992209490388,-1.5791618728339671,0.0327243208885192,-0.1404295265674591,-0.6126722693443298
1.00751513671875,-0.4437276271937415,-0.0284673120062798,-1.3686878153175115,0.0754478126764297,-0.3034503757953644,-0.5390414595603943
1.017543212890625,-0.2551225245981477,-0.1120570840366184,-0.93449852591753,0.0874729081988334,-0.4360637962818146,-0.4605860412120819
1.027571044921875,-0.2031495598472654,-0.1500956497255712,-0.4685404718130826,0.0880894288420677,-0.5085693597793579,-0.3898021578788757
1.03759912109375,-0.1976385230745188,-0.1181947100088,-0.0170434892594814,0.0781621187925338,-0.5174039006233215,-0.3216409683227539
1.047626953125,-0.1439884371579624,0.036933088665083,0.4523071298927068,0.0578235536813735,-0.4671564102172851,-0.2483260035514831
1.057655029296875,-0.0631074491622857,0.1091869354277849,0.8212000635176897,0.0321187265217304,-0.3709812462329864,-0.1761607229709625
1.06768310546875,-0.0290845123228617,0.1184676817312836,1.1018255156248806,-0.0014253850094974,-0.245506152510643,-0.11520417034626
1.077712158203125,-0.0116524986698292,0.0902477686148136,1.2991677043676375,-0.0395720824599266,-0.1205246821045875,-0.063211590051651
1.087740234375,0.1329887581073679,0.0258681623585522,1.4077332930266857,-0.0769519433379173,-0.019604193046689,-0.0112999184057116
1.097768310546875,0.3460700572464615,-0.0401824458498507,1.3894342507481574,-0.1088838279247284,0.0521916411817073,0.0481091625988483
1.107796142578125,0.5722452495027334,-0.1307609807889908,1.3060633091002702,-0.1290921568870544,0.0931475982069969,0.1053452864289283
1.11782421875,0.7496627675265073,-0.1793858954872935,1.246806818011403,-0.1445420533418655,0.1095747202634811,0.1485209465026855
1.12785205078125,0.7900694505862891,-0.1970700207378715,1.2087293085515498,-0.1526665687561035,0.1204681172966957,0.1698262393474578
1.137880126953125,0.7775400046851485,-0.1618744233898818,1.161699261829257,-0.1547941267490387,0.1321800500154495,0.1746693849563598
1.147908203125,0.7829257163114846,-0.0913537570953369,1.1475766284525393,-0.1488113403320312,0.1508663892745971,0.1666655242443084
1.15793603515625,0.7536671808622777,-0.0147082877775654,1.1421043345212936,-0.1444498002529144,0.1765887886285781,0.1465915292501449
1.167964111328125,0.6569526273861527,0.0562264757432043,1.15277887327075,-0.1450532674789428,0.2082961201667785,0.1153822094202041
1.1779931640625,0.5618407598663121,0.0890406578473746,1.1037614521235226,-0.1501264870166778,0.2286042720079422,0.0806580856442451
1.18802099609375,0.5393552256833761,-0.0019794833794236,0.9285410788178444,-0.1431897431612014,0.2184954434633255,0.0532568283379077
1.19804931640625,0.5899636423490942,-0.0828815506957471,0.7069061603397131,-0.124716006219387,0.1783490031957626,0.0305806826800107
1.2080771484375,0.5691874693673104,-0.074525700684823,0.4675292489439249,-0.0945229455828666,0.142865315079689,0.0088375704362988
1.218105224609375,0.4065246720787137,-0.0158537314856424,0.249614227771759,-0.0615381859242916,0.1232240200042724,-0.0170889385044574
1.22813330078125,0.19216551675722,0.0462836488017812,0.1257832654416561,-0.034888993948698,0.1348907947540283,-0.0615991465747356
1.238160888671875,-0.0492293103322386,0.050871853374876,0.0151718501687049,-0.0244353208690881,0.1718502938747406,-0.1181486472487449
1.248189208984375,-0.1843607978230342,0.0086737933862954,-0.0924625951200723,-0.029854854568839,0.2033206075429916,-0.1718286573886871
1.258217041015625,-0.2078002717299386,-0.0923937676675617,-0.2729430809110403,-0.0463202707469463,0.215495079755783,-0.2094193994998932
1.2682451171875,-0.1208581113986205,-0.2345043003907427,-0.4825859483003616,-0.0547225438058376,0.2075812220573425,-0.2206901609897613
1.278273193359375,0.0404218075636774,-0.3755303623454645,-0.7142611992776393,-0.051667857915163,0.1575999706983566,-0.1992709636688232
1.28830224609375,0.2580395262897014,-0.4881341204794123,-0.785993725579977,-0.0527810603380203,0.0777046084403991,-0.1546185463666916
1.298330078125,0.4403758325478061,-0.5469491879437118,-0.7462140883773565,-0.0589135214686393,-0.0209170449525117,-0.1057426035404205
1.308358154296875,0.5921174593821168,-0.610062317928113,-0.6291594883143902,-0.0667344182729721,-0.1389448791742324,-0.0581247545778751
1.31838623046875,0.7586411698825657,-0.6066539707893506,-0.3839741829007864,-0.0738919824361801,-0.2502144873142242,-0.0127116506919264
1.3284140625,0.7839752253644168,-0.5107466055102646,-0.1000964509993791,-0.0674127787351608,-0.326896458864212,0.019309664145112
1.338442138671875,0.7097953059099614,-0.3226309851983562,0.2105558905810117,-0.058298259973526,-0.3661727905273437,0.0334646701812744
1.348469970703125,0.6239706144344062,-0.1266221274185925,0.588933276388049,-0.0418388545513153,-0.3738262057304382,0.0357446037232875
1.358498046875,0.5802711003743112,0.0015419322123751,0.9356915350943804,-0.0298172682523727,-0.3465569913387298,0.0250385347753763
1.368526123046875,0.5898830879261717,0.1030488345315679,1.2657248689711094,-0.0224088858813047,-0.2974656224250793,0.0165260061621665
1.378553955078125,0.6367449750073254,0.1620589131113141,1.5180968710184095,-0.0221318397670984,-0.22860187292099,0.0071733649820089
1.388582275390625,0.6550671789657324,0.2118642332332208,1.6470897461563347,-0.019800242036581,-0.1550461649894714,0.0022971171420067
1.398611328125,0.663636708259955,0.2829656950904056,1.6718980241984127,-0.0168108455836772,-0.0894217938184738,0.0014318588655442
1.40863916015625,0.6720796885650605,0.3437145436288789,1.6598790851026772,-0.01657728664577,-0.0212544538080692,-0.0025530289858579
1.418667236328125,0.5926542696725576,0.3979297160822898,1.5962416024506092,-0.0160737968981266,0.0494826063513755,-0.0102485362440347
1.428695068359375,0.5691607274908572,0.4203706074059009,1.5068641138643026,-0.0195622723549604,0.1115973740816116,-0.0146648557856678
1.438722900390625,0.5407707185044884,0.4694742455318569,1.3986410550326107,-0.029343944042921,0.1762625873088836,-0.0195514634251594
1.448751220703125,0.4665403109718113,0.5366510082259774,1.2749971397072075,-0.0388141460716724,0.2370990365743637,-0.0326044149696826
1.458779052734375,0.3419012471292167,0.5877511904640123,1.1132675316154956,-0.0414066575467586,0.2814257144927978,-0.0550408996641635
1.468806884765625,0.3071989862561226,0.6107972446065396,0.918597776952386,-0.0424434281885623,0.3066013753414154,-0.0825766548514366
1.4788349609375,0.293986106401775,0.622968305524066,0.7446621827602387,-0.0430463291704654,0.3161700367927551,-0.113004669547081
1.48886279296875,0.2550389562342315,0.6181398624543101,0.5423334377765655,-0.0386643633246421,0.3003524541854858,-0.1477714329957962
1.49889111328125,0.2474740008726716,0.5927337646495551,0.2903244238227606,-0.0234117191284894,0.266753077507019,-0.1722894161939621
1.508920166015625,0.358049139255844,0.5982940291251987,0.0606003069132566,-0.0050177974626421,0.2158331722021103,-0.1873410642147064
1.518947998046875,0.4268529551625251,0.6556289775669575,-0.0980436101227998,0.020075000822544,0.1517090648412704,-0.1896677911281585
1.528975830078125,0.4071586226006969,0.6859781577970833,-0.2384060205370187,0.0420306324958801,0.0788857266306877,-0.1902981549501419
1.53900390625,0.4030287927869707,0.7088108249172568,-0.2665998493641615,0.050788477063179,-0.0033668135292828,-0.195303127169609
1.549031982421875,0.3530860369557514,0.7111406561043113,-0.2795493473082781,0.0578783452510833,-0.0855913758277893,-0.2075968086719513
1.55906005859375,0.328884821428731,0.7087425089213997,-0.3064461220622062,0.0672979429364204,-0.1610721945762634,-0.21753890812397
1.569087890625,0.3353311845565214,0.7319068922139704,-0.2739975584000348,0.0742237567901611,-0.2257808744907379,-0.2144967764616012
1.5791162109375,0.4117207063518464,0.7370126178551465,-0.1792243482500314,0.0755798444151878,-0.2781277596950531,-0.2056891769170761
1.589143798828125,0.4448865514378994,0.730830641284585,-0.0561076716691255,0.0747236385941505,-0.2930001616477966,-0.1872651576995849
1.599172119140625,0.4296813835214823,0.7367706257928163,0.0274216754108667,0.0737235471606254,-0.2796703279018402,-0.1579848974943161
1.609199951171875,0.4637178739622235,0.7948260705288499,0.1014858595311641,0.063927374780178,-0.2598036527633667,-0.1138283535838127
1.61922802734375,0.4667880751878023,0.776638744996488,0.1513420695900917,0.0461316742002964,-0.2261839210987091,-0.0736602991819381
1.6292568359375,0.4423731803774833,0.7386695182166994,0.1568441741377115,0.0218732040375471,-0.1967408061027526,-0.03860405087471
1.63928515625,0.3928807621296495,0.7725881544314325,0.1659364121317863,-0.0113821821287274,-0.1728770285844802,-0.0121970204636454
1.649312744140625,0.3089165672963485,0.7709880257584154,0.1133931549459695,-0.0383948907256126,-0.1479314714670181,0.0082981344312429
1.659341064453125,0.2374768864607438,0.75363956220299,-0.0608370382785797,-0.0503010042011737,-0.1261109858751297,0.0275140162557363
1.669368896484375,0.215012194136437,0.7462072202451526,-0.2573153036683798,-0.0465776398777961,-0.1009784713387489,0.0596503838896751
1.67939697265625,0.2464382280841469,0.746661686014384,-0.4804337387025356,-0.03572229295969,-0.0864613279700279,0.1002680361270904
1.689425048828125,0.2897864262222312,0.7335616736836731,-0.5992857435762882,-0.0346317291259765,-0.0901306346058845,0.1474515199661255
1.699452880859375,0.3181523054143413,0.7359587979532778,-0.6368886212617159,-0.0421301275491714,-0.0957247614860534,0.192353755235672
1.70948095703125,0.2476110712558031,0.7470091842778026,-0.6692150198489427,-0.0568936243653297,-0.0838715657591819,0.2239391058683395
1.719509033203125,0.0626135646981187,0.8514858231227844,-0.6487175907433033,-0.0775936841964721,-0.0356194078922271,0.2321844846010208
1.729536865234375,-0.2768167440066114,0.9659864278540016,-0.7220768414646387,-0.0975564792752265,0.0534026101231575,0.2051627188920974
1.73956591796875,-0.6812075823944062,1.020184466509521,-0.8498796300351619,-0.1202772408723831,0.1451105177402496,0.1516182720661163
1.749593994140625,-0.9856376884590834,1.051796287086606,-0.9627326867550612,-0.1425292789936065,0.2168116122484207,0.0804895088076591
1.7596220703125,-1.1339338875472544,0.923832462735474,-1.256422787618637,-0.1387440860271453,0.2183531075716018,0.0059227780438959
1.76964990234375,-1.0695110997363924,0.6919163156744093,-1.6212503715008495,-0.1008811295032501,0.1591744720935821,-0.0593909807503223
1.779677978515625,-0.9064711396984756,0.3894519932573661,-1.9438281286746264,-0.0336413346230983,0.0656303837895393,-0.0971062108874321
1.789705810546875,-0.6569871872428804,0.0568476398488506,-2.1594740358710287,0.0475366078317165,-0.0600734874606132,-0.098845787346363
1.799734130859375,-0.3733580963402986,-0.2240249554198235,-2.127880627733469,0.1209607943892479,-0.1942775398492813,-0.0653662011027336
1.809761962890625,-0.1524936873106286,-0.408795174293965,-1.8849515768140552,0.1694210171699524,-0.3133240342140198,-0.0125506548210978
1.8197900390625,-0.0131498245554976,-0.5741404521321878,-1.5302870750278237,0.180457130074501,-0.4122549295425415,0.0552259981632232
1.82981787109375,0.0853391181820072,-0.597824183123745,-1.0684148289322852,0.1557517945766449,-0.484986662864685,0.1222481727600097
1.839845947265625,0.1575491440692916,-0.5702017975090071,-0.5909083758533,0.1029528453946113,-0.5137036442756653,0.1845060735940933
1.8498740234375,0.1860560209009796,-0.5167003628155217,-0.203365686815977,0.056606650352478,-0.4856842756271362,0.2362859100103378
1.859903076171875,0.1925592653151601,-0.4079760399308055,0.0870890853881835,0.0289698038250207,-0.3979827761650085,0.2909276187419891
1.869930908203125,0.2592924854928627,-0.2940409966604784,0.2714338453918695,0.0128797851502895,-0.2700413167476654,0.3554365932941437
1.879958984375,0.3394599914569407,-0.1834799233352765,0.5105927301228046,-0.0166695117950439,-0.1438297927379608,0.4256602525711059
1.88998681640625,0.3366935954835265,-0.1057848353667184,0.7738216417491436,-0.0688847750425338,-0.0487461425364017,0.4725846350193023
1.900014892578125,0.2287460656575858,-0.1025087728381156,0.9875777896761894,-0.1452465802431106,0.0001308964565396,0.4810554385185241
1.91004296875,0.0716179965445771,-0.1276277242645621,1.0946470022976398,-0.2092034667730331,0.0122376270592212,0.4525370001792907
1.920071044921875,-0.1555438321288675,-0.1410057498190552,1.0228969403386114,-0.2282119989395141,0.0043222210370004,0.3997104167938232
1.93009912109375,-0.3591753302741796,-0.1060264255702495,0.8130109118431806,-0.1865593641996383,-0.0160395093262195,0.3549706637859344
1.940126953125,-0.4097346105685457,-0.0772442389285191,0.6247153683871031,-0.1010896563529968,-0.0434820838272571,0.3254051506519317
1.95015478515625,-0.4797440394053235,-0.0834017021123319,0.559341271200776,-0.0043103834614157,-0.0760730504989624,0.2984771430492401
1.96018310546875,-0.627009324543178,-0.1057057787811383,0.6048357789188623,0.0755447298288345,-0.0932181999087333,0.2613775432109833
1.9702109375,-0.7581564551055431,-0.1582201751986518,0.69848203086555,0.1349907368421554,-0.0992281511425972,0.2302475571632385
1.980239990234375,-0.7504568405136466,-0.1834577480360865,0.8935404925853013,0.1589390784502029,-0.0952549800276756,0.2095319479703903
1.99026806640625,-0.73860529387407,-0.2038316603599116,1.053459836384654,0.1611561626195907,-0.0622155368328094,0.2026980072259903
2.0002958984375,-0.7649753413401543,-0.2668346079681069,1.1087082608759402,0.1548256129026413,-0.0120215825736522,0.1940995752811432
2.010323974609375,-0.7862270959444344,-0.3441918057518079,1.0894815823584794,0.1449921578168869,0.0505919978022575,0.1866038292646408
2.02035205078125,-0.7962436091765761,-0.3834928656572476,0.9793640880823136,0.1395971775054931,0.1183676719665527,0.1775671243667602
2.0303798828125,-0.8204695572860539,-0.4372602943431585,0.8337263676136731,0.1298580020666122,0.1850045025348663,0.1640369445085525
2.040408203125,-0.8565989283528178,-0.4802583456030115,0.7025088021636009,0.1081545278429985,0.2372785657644271,0.1559074372053146
2.050435791015625,-0.8734903688557446,-0.5430173283874988,0.5464052172601223,0.0816784501075744,0.2576991617679596,0.1579298377037048
2.0604638671875,-0.7657204606190323,-0.6069157269980758,0.3919055604219436,0.0491811446845531,0.249588593840599,0.1785170286893844
2.070491943359375,-0.6235157833389937,-0.6093356476213783,0.2532300801813602,0.0193473510444164,0.2087351679801941,0.2135525196790695
2.08052001953125,-0.4937698978766798,-0.5815113096937536,0.1464087048411369,5.8873090893e-05,0.1469443291425705,0.2514745891094208
2.090548095703125,-0.4039495974263176,-0.5100237711284309,0.0938151787728071,-0.0082549825310707,0.0805123150348663,0.2882571220397949
2.1005771484375,-0.3009718188369646,-0.3609918051116168,0.1145721355974674,-0.0169773660600185,0.0105911865830421,0.3177377879619598
2.11060498046875,-0.2230614076172933,-0.1634756115088239,0.3130278385400772,-0.0334183946251869,-0.0457378625869751,0.3313260376453399
2.120633056640625,-0.2335288429547101,0.0676830317158252,0.5628641846299172,-0.0595323219895362,-0.0762822329998016,0.3121963441371918
2.130660888671875,-0.3230101937742903,0.2711667554209008,0.7868319299697876,-0.0778705850243568,-0.0789166316390037,0.2676200866699219
2.14068896484375,-0.3676836674330755,0.4568260320892557,0.9429588957488536,-0.0804059132933616,-0.0483480170369148,0.2032347172498703
2.150717041015625,-0.3990818817920982,0.6253408068090677,1.0319289725780487,-0.0691343545913696,0.0102298110723495,0.1294904500246048
2.1607451171875,-0.4803941008118912,0.7450782892804593,1.0497814401328562,-0.047218095511198,0.0911033973097801,0.0474026873707771
2.17077294921875,-0.5545864778891205,0.755769559969008,0.9861690919220448,-0.0207824930548667,0.1620004624128341,-0.0307086259126663
2.180801025390625,-0.5290039275389165,0.6986253848589956,0.9424497771829368,-0.0090715065598487,0.2038285583257675,-0.1039245054125785
2.190828857421875,-0.5374592924015597,0.6056191113162785,0.873057676526904,-0.0111666154116392,0.2194322943687439,-0.1670941710472107
2.200857177734375,-0.5495094303531571,0.4502372282834723,0.7259861238628625,-0.0132942534983158,0.2103355228900909,-0.2343682050704956
2.210885009765625,-0.5950825927980243,0.3147165222793817,0.5075502936869859,-0.0008929769974201,0.1840413361787796,-0.2927087545394897
2.2209140625,-0.5616842541303485,0.2067190523644909,0.2531108377158642,0.031251985579729,0.1499622762203216,-0.3242859840393066
2.23094189453125,-0.5305541526556015,0.0983409491015598,0.0604676204442977,0.074214369058609,0.1225040182471275,-0.332215815782547
2.240969970703125,-0.4977837000953033,0.0212207384115085,-0.0449392119228839,0.1098957359790802,0.093179166316986,-0.3174152076244354
2.250997802734375,-0.4269793214885518,-0.0226829199185594,-0.0324912337601184,0.1233859807252883,0.0790122151374816,-0.2941932380199432
2.261026123046875,-0.3854176597073674,-0.0677468541996553,0.0564011016577482,0.1005544364452362,0.0791808515787124,-0.275532454252243
2.271053955078125,-0.4031321070309728,-0.0553248141957446,0.186323366600275,0.0500736869871616,0.0909831821918487,-0.2622552514076233
2.281082275390625,-0.3757209530141204,-0.0377843351995572,0.253851426950097,-0.0081760380417108,0.1088593900203704,-0.2485698014497757
2.29110986328125,-0.3200537185888737,-0.0167793949631974,0.2097287921071052,-0.0511432103812694,0.12391397356987,-0.2320297062397003
2.301137939453125,-0.2362283842369913,0.0165239223647862,0.098595398786664,-0.0710556656122207,0.1375076919794082,-0.2109641134738922
2.311166015625,-0.1344110094628296,0.0337878859745338,-0.0388315426975488,-0.0752304345369339,0.1383742839097976,-0.1805151253938675
2.321194091796875,-0.0696715751845389,0.0921624065971001,-0.064642860302329,-0.0774426162242889,0.129787728190422,-0.1604228764772415
2.33122216796875,-0.0979647179340012,0.1410838930891826,-0.0506850620985031,-0.0814083293080329,0.1180716827511787,-0.1559647470712661
2.34125,-0.1902239542353898,0.1870013023944571,-0.0370581032842397,-0.0830031782388687,0.1049057245254516,-0.1700586825609207
2.35127880859375,-0.2793262791421264,0.2548603117316961,-0.0216968680232763,-0.0718091130256652,0.0956118255853653,-0.1998791694641113
2.361306884765625,-0.356864569113776,0.2971566444629803,-0.0640472324967384,-0.0492287054657936,0.0968482196331024,-0.2307092547416687
2.3713349609375,-0.4069383674461394,0.3372300769804045,-0.1159405013412237,-0.0259995497763156,0.0960881486535072,-0.2620916664600372
2.381363037109375,-0.4337971117446199,0.3472040297124534,-0.1236450843691825,0.0003491586539894,0.1084058433771133,-0.2887425720691681
2.39139111328125,-0.4724650979109108,0.260824078974314,-0.1719990731716155,0.0209298003464937,0.1236580312252044,-0.3092387914657593
2.401419189453125,-0.459244856734015,0.2281327560648322,-0.1582902812927961,0.0218814238905906,0.143487200140953,-0.3197296559810638
2.41144677734375,-0.43951421074979,0.1939963123809546,-0.1459025088846683,0.0071011474356055,0.1486529409885406,-0.3190127313137054
2.42147509765625,-0.3801534190362319,0.1115793104570359,-0.181783969604969,-0.0169839467853307,0.1410207003355026,-0.3097183108329773
2.4315029296875,-0.2841365107017569,0.050328065354377,-0.2407885317593812,-0.0423404350876808,0.1226009428501129,-0.2856965959072113
2.44153125,-0.2320009940666146,0.0369776219265535,-0.2638163561254739,-0.0610923618078231,0.0941030159592628,-0.2496979534626007
2.45155908203125,-0.2066911962431855,0.0680972750725224,-0.2754378203362226,-0.0744023099541664,0.0707388371229171,-0.2059960067272186
2.4615869140625,-0.1818828816684894,0.1685309586696326,-0.2934662289798259,-0.0856516510248184,0.068471647799015,-0.1608258336782455
2.471614501953125,-0.2468702080269344,0.3190135984187945,-0.2674526668012142,-0.1014873385429382,0.1040677204728126,-0.1414484083652496
2.4816435546875,-0.4879665088275447,0.5140692471269518,-0.274110955646634,-0.1349354684352874,0.1598415672779083,-0.1596343070268631
2.49167138671875,-0.8293808857552707,0.6673628891762345,-0.2579050862550735,-0.1724466234445572,0.213288813829422,-0.2109518200159073
2.50169970703125,-1.077441235148534,0.7523217576026916,-0.3761778299361467,-0.1928409188985824,0.2667997479438782,-0.2876816093921661
2.5117275390625,-1.2301739553794264,0.8161158921211957,-0.6465618740141391,-0.1893676370382309,0.3171633183956146,-0.3804296553134918
2.521755615234375,-1.342744688026607,0.8579431825686246,-0.9755015674352644,-0.1667747348546981,0.3596314191818237,-0.4781521260738373
2.531783447265625,-1.4465114981018006,0.8101502617150544,-1.330004741179943,-0.1337027996778488,0.3799593150615692,-0.5721029043197632
2.541811279296875,-1.389882871298492,0.6161007578421384,-1.6201292585164309,-0.0974006801843643,0.3464667499065399,-0.6373721957206726
2.551839599609375,-1.1522248926497995,0.3299879603650421,-1.804566957500577,-0.0757960528135299,0.2391347140073776,-0.6739144921302795
2.561867431640625,-0.7894266957033426,-0.0199180583151057,-1.9152520225316283,-0.058486346155405,0.065897062420845,-0.6684653759002686
2.5718955078125,-0.368094184462726,-0.360084188747406,-1.8700035985291004,-0.0436967499554157,-0.1367540508508682,-0.6167606115341187
2.58192333984375,0.0267525074450299,-0.561103896959126,-1.620160238176584,-0.0448391288518905,-0.3281452655792236,-0.5300334095954895
2.591951416015625,0.3152222798444331,-0.6765105836845934,-1.1073416486978531,-0.0619994737207889,-0.4721293449401855,-0.4345529675483703
2.6019794921875,0.3965552493913098,-0.748219875241816,-0.5140215355277061,-0.0827899724245071,-0.5627956986427307,-0.359635591506958
2.612008544921875,0.3835968009557575,-0.7509347602237015,0.033750878432393,-0.0941997542977333,-0.5936635732650757,-0.3022356629371643
2.62203662109375,0.4143904735503718,-0.7156124677561223,0.5167091671764851,-0.0962098687887191,-0.5747079849243164,-0.2634430527687073
2.632064697265625,0.4447554724041372,-0.6845236481398344,0.8806909478843211,-0.0874960124492645,-0.4971601963043213,-0.2309514433145523
2.64209228515625,0.5048773116180673,-0.6736394121624529,1.1452595836818218,-0.0694484189152717,-0.3894567191600799,-0.1922221928834915
2.652120361328125,0.6827933902811258,-0.6897867562998086,1.3518734586387873,-0.0597885958850383,-0.2752241790294647,-0.1405909657478332
2.6621484375,0.8435362523578107,-0.7074319377794861,1.442607038009167,-0.066408984363079,-0.1742998361587524,-0.0895460695028305
2.672176513671875,0.9174616125293076,-0.7376054691817611,1.5013175856530665,-0.0889899209141731,-0.0991030782461166,-0.052069004625082
2.68220458984375,0.8376496785372495,-0.7711410974282771,1.4485487030178308,-0.1082276105880737,-0.0423750542104244,-0.0346134305000305
2.692232421875,0.7485631357215344,-0.7719826628189533,1.259723582729697,-0.1124985218048095,0.0039764642715454,-0.0227993819862604
2.70226025390625,0.7096224335610866,-0.7049374906152487,1.0480693755179642,-0.1032264679670333,0.0404642075300216,-0.0159071274101734
2.71228857421875,0.6785681738015263,-0.6459846586480736,0.850664642933011,-0.0776156485080719,0.0797327831387519,-0.0172048863023519
2.72231640625,0.662155456726253,-0.6038649976579472,0.6565624590247869,-0.0407380126416683,0.1157948598265647,-0.0177871230989694
2.7323447265625,0.6263532717872411,-0.4887013624407351,0.5651069951206446,-0.0186151359230279,0.1422783881425857,-0.0263672955334186
2.74237353515625,0.5392045286336914,-0.3904558730702847,0.5290139374762773,-0.0049923062324523,0.1643726825714111,-0.0405762530863285
2.7524013671875,0.4473471693977713,-0.3802433258093893,0.4604261389404535,0.00743586756289,0.1695530712604522,-0.0597696527838707
2.762429443359375,0.3889905497580766,-0.385914868639782,0.3518360003620386,0.0223687812685966,0.1596990972757339,-0.0728565007448196
2.77245751953125,0.3776621136771514,-0.3618476547559723,0.256333891415596,0.0402010418474674,0.1201189160346984,-0.0718314498662948
2.7824853515625,0.3905241160009056,-0.3407841892654076,0.211308754774928,0.0535513535141944,0.0451719127595424,-0.0533707253634929
2.792513671875,0.4359568470617756,-0.3677832188174128,0.1833767917543649,0.0650277137756347,-0.0552228689193725,-0.0226426403969526
2.802541259765625,0.4390697183853015,-0.3709177905160933,0.2777081033557653,0.0819376111030578,-0.1664316803216934,0.0042195697315037
2.812569580078125,0.3598606821898371,-0.3247395383175462,0.3688602003991603,0.1104765757918357,-0.2546187937259674,0.0246103294193744
2.822597412109375,0.3436806778918951,-0.1999874973534606,0.5242758030384779,0.1419236660003662,-0.3147924244403839,0.0422969833016395
2.83262548828125,0.3168753808137029,-0.0433093639650382,0.7704384290516376,0.169935867190361,-0.3318079113960266,0.0589918047189712
2.842653564453125,0.25069172081016,0.0904790383537299,1.0014666142970323,0.1859565824270248,-0.3045272827148437,0.0714752599596977
2.852681640625,0.2188007910307496,0.2278109950308688,1.242795244282484,0.178660586476326,-0.2411118447780609,0.0799023061990737
2.86270947265625,0.2427475934052839,0.2831019069570116,1.4184294590860604,0.1489884704351425,-0.157783105969429,0.0956526845693588
2.872737548828125,0.3848913708109408,0.3135079502072185,1.5151894591391086,0.1048447042703628,-0.0670854225754737,0.1282969266176223
2.882766357421875,0.5004360777676106,0.3090257998244837,1.5425924298495053,0.0571102909743785,0.0251604337245225,0.1741212457418441
2.89279443359375,0.5654119694165886,0.2913999258334748,1.4618769711464643,0.0104186842218041,0.1027638837695121,0.222266137599945
2.902822509765625,0.5356641160804778,0.343610279536806,1.32189742256999,-0.0279525574296712,0.1516537219285965,0.2485776841640472
2.9128505859375,0.4387867732580751,0.3733327427033335,1.0855588559567928,-0.045752327889204,0.178231805562973,0.2551716566085815
2.92287841796875,0.376011241197586,0.3951921078119427,0.8357821310997009,-0.046537235379219,0.1801252216100692,0.2421502918004989
2.932906494140625,0.3093771340128034,0.5058943431735038,0.639670945456624,-0.0402274094521999,0.1689538061618805,0.2190697491168975
2.942934326171875,0.2620340027533471,0.5481633860390633,0.4984054487228393,-0.029937831684947,0.1606472879648208,0.1888936161994934
2.952962646484375,0.253522176729422,0.5219711062926798,0.3807102126687764,-0.0180926229804754,0.1522244960069656,0.1534038037061691
2.962990478515625,0.2654250882300548,0.5069233939602971,0.2877782464712858,-0.0064112385734915,0.1345940232276916,0.1271842569112777
2.973018798828125,0.3256942086938768,0.5029109799811616,0.1857885290712118,-0.0007144706323742,0.1054667532444,0.1086694225668907
2.98304638671875,0.3914681188527494,0.4648713548462838,0.0934486835479736,-0.0005579520948231,0.0637638196349144,0.0989927127957344
2.993074462890625,0.4523454891417175,0.3906347367685288,0.0234738145679235,0.0005504556465893,0.0084976349025964,0.0942070186138153
3.0031025390625,0.5009362458420917,0.3165009214781225,-0.0230921217739582,-0.0003903624601662,-0.0466069765388965,0.0956673473119735
3.013131591796875,0.5050133590878918,0.2852551394681446,-0.0139162971496582,-0.004638104699552,-0.089756041765213,0.1101765185594558
3.023159423828125,0.5168687051197514,0.2857580840216018,0.0622702859520912,-0.0206622313708066,-0.1013826057314872,0.1334150284528732
3.033187744140625,0.4900536538325249,0.2974579472308047,0.1721662464320659,-0.0437933839857578,-0.0890380591154098,0.1551336348056793
3.04321533203125,0.4211271248616278,0.2908755914321169,0.2372521743267774,-0.0633368790149688,-0.0597542934119701,0.1738855242729187
3.053243408203125,0.41644294910077,0.3429856813650578,0.2967658550471067,-0.0881159901618957,-0.0174459852278232,0.1932938545942306
3.063271484375,0.3879889715000987,0.4008155371842906,0.2958124998450279,-0.1143396124243736,0.0284623056650161,0.2075470685958862
3.073299560546875,0.3278299055483192,0.4399097128733992,0.2586322314858436,-0.1362419873476028,0.0774309113621711,0.2171192765235901
3.08332763671875,0.282396425568778,0.4618910603938624,0.1813029080897569,-0.157494843006134,0.1147604286670684,0.2142103910446167
3.09335546875,0.1818712642959319,0.4439510606860741,0.0345931744754314,-0.1738269478082656,0.1325974762439727,0.2074733823537826
3.10338330078125,0.1310109734946861,0.431230804920569,-0.1185585748851299,-0.1852056682109832,0.1316678076982498,0.1927860230207443
3.11341162109375,0.1260453047781717,0.3964018489278852,-0.2707119608581066,-0.1871694922447204,0.1173804849386215,0.1788076162338256
3.123439453125,0.1113841988768894,0.3470221703395247,-0.4486871858298778,-0.1786430031061172,0.0892315134406089,0.1777967065572738
3.1334677734375,0.2095538739316165,0.3204202503463253,-0.5787140801906585,-0.1700969189405441,0.0648950114846229,0.1928568929433822
3.14349560546875,0.26463671433134,0.3261339518180117,-0.6092956809371709,-0.1802113354206085,0.0416486971080303,0.2252550423145294
3.153524658203125,0.2051589269082993,0.363612983928062,-0.5556745653867721,-0.2041126787662506,0.0270915925502777,0.246339276432991
3.16355224609375,0.0694760982782114,0.4181687499800697,-0.552802809342742,-0.2353621274232864,0.0425183027982711,0.2501061558723449
3.17358056640625,-0.0545332802255637,0.4904265057329088,-0.6428636040180922,-0.2657754421234131,0.0856047868728637,0.237467348575592
3.1836083984375,-0.2440135947531089,0.5503666317043826,-0.7710989387869834,-0.2833846807479858,0.1401867568492889,0.2134645879268646
3.19363671875,-0.3962054861055686,0.5552964527893811,-0.9785416657835244,-0.2794831395149231,0.1821358054876327,0.1750359684228897
3.20366455078125,-0.5288376675939187,0.4861361150626093,-1.250555356889963,-0.2547051608562469,0.2099045813083648,0.1176071837544441
3.2136923828125,-0.6523979597564786,0.3408618941441178,-1.576663041755557,-0.2169878780841827,0.2206882536411285,0.0455367229878902
3.223720458984375,-0.8118516588054597,0.1618681032469496,-1.8679653706997632,-0.1703445166349411,0.2024679034948349,-0.0377578362822532
3.23374853515625,-0.9045403177663685,-0.0960196574139874,-2.125477073723077,-0.120608389377594,0.1273374706506729,-0.1096804961562156
3.243776611328125,-0.8028281751986592,-0.3860518659576773,-2.264299268957972,-0.0671261399984359,-0.006852492224425,-0.1531360447406768
3.2538046875,-0.5758429086685181,-0.694673578493297,-2.3084920464277268,-0.0113923028111457,-0.1924492418766021,-0.1586911380290985
3.263832275390625,-0.2897203204497695,-0.9923634165175258,-2.145568260115385,0.0536713488399982,-0.3879148960113525,-0.1266979724168777
3.273860595703125,-0.0333935620278585,-1.1750453578755258,-1.812790011444688,0.1217366904020309,-0.5421372056007385,-0.0563281960785388
3.283888427734375,0.1765122397471219,-1.173826483605057,-1.2443565022498368,0.1668023616075515,-0.6252989172935486,0.0379481166601181
3.29391650390625,0.2586155543456785,-1.0725929183345286,-0.5093547127604484,0.1792347878217697,-0.631476104259491,0.1469688862562179
3.303945556640625,0.2651067429958842,-0.911129194637388,0.3007119623243808,0.147129625082016,-0.565501868724823,0.2454714030027389
3.3139736328125,0.2491146442191675,-0.7569924528274685,1.0487100115090608,0.0767406746745109,-0.4519891738891601,0.326404333114624
3.32400146484375,0.2260436382984742,-0.6285812500350177,1.6270055740267038,-0.0142444716766476,-0.3175540864467621,0.3986390829086303
3.334029541015625,0.2602322140283882,-0.5507041565630585,1.945690415415168,-0.105485700070858,-0.1863007247447967,0.4543761312961578
3.344057373046875,0.237264157025516,-0.4536387803552672,2.050749457257986,-0.1706631034612655,-0.0746419951319694,0.4907911121845245
3.354085693359375,0.0830081362174823,-0.3574665901275351,1.9665116696476932,-0.1962579488754272,0.0050616241060197,0.5093280673027039
3.364113525390625,-0.0961252458134666,-0.2426233094384893,1.7793752330988644,-0.1756346225738525,0.0509398207068443,0.5119715929031372
3.3741416015625,-0.311323701503314,-0.1757402689939364,1.5582465105772016,-0.1226347833871841,0.0639102160930633,0.4879706799983978
3.38416943359375,-0.5194661742670461,-0.122685573420953,1.3651736697167158,-0.0515056289732456,0.0599808283150196,0.4487990736961365
3.394197265625,-0.7507764278568327,-0.0610102394210174,1.264371700796485,0.0260408259928226,0.0626282766461372,0.3923797309398651
3.4042255859375,-0.989438395916298,-0.0085296265420969,1.180021100461483,0.0953376069664955,0.0793417766690254,0.3311896026134491
3.41425341796875,-1.136973839765042,0.0231350019344594,1.1456453681290149,0.1462724208831787,0.1043656393885612,0.2744397819042206
3.424281494140625,-1.2904773251727222,0.0107393750134389,1.1327964079499244,0.1714519709348678,0.1428855061531067,0.2098122984170913
3.434309326171875,-1.4876568706996738,-0.0951528571173548,1.018175757035613,0.1873254776000976,0.1962366104125976,0.1506736129522323
3.44433837890625,-1.561662748761475,-0.2182716891227289,0.8496475748449563,0.1992291212081909,0.2490758448839187,0.1142173558473587
3.454366455078125,-1.4796867686033248,-0.3556845655489712,0.6054582947313785,0.2048244178295135,0.2982966601848602,0.101653091609478
3.46439501953125,-1.4610685773730276,-0.5327032935135066,0.3253571587592363,0.1927776336669922,0.3452216386795044,0.0941162705421447
3.4744228515625,-1.4876410886086522,-0.667349883564189,0.0425070163398981,0.1637182980775833,0.3821016252040863,0.0978745222091674
3.484450927734375,-1.4512671681962903,-0.8211478218737989,-0.2508136666893958,0.1222995594143867,0.3703792989253998,0.1164049059152603
3.49447900390625,-1.3451933963529763,-0.9341979355357588,-0.5413537790894508,0.0789715275168418,0.3013802766799927,0.1491415500640869
3.5045068359375,-1.199047799427435,-1.0560236955232918,-0.8199936103373765,0.0534129403531551,0.1748575866222381,0.1877690404653549
3.514534912109375,-1.0124144170299172,-1.1257215011276305,-1.031486489507556,0.0584452524781227,0.0163134783506393,0.2375616282224655
3.52456298828125,-0.8018309808548539,-1.0732167493212967,-1.0370996532142165,0.0799944475293159,-0.1495282053947448,0.3016418814659118
3.5345908203125,-0.5981461816197261,-0.9560292435936628,-0.8087269509136676,0.1138892918825149,-0.2851147949695587,0.3530414402484894
3.544618896484375,-0.4921374743692576,-0.8208978657007217,-0.4490577727079391,0.1411478519439697,-0.3675634860992431,0.3813328742980957
3.554646728515625,-0.4646655300758778,-0.5823484546376392,0.0775187084883451,0.1467500776052475,-0.3943860530853271,0.3842104375362396
3.5646748046875,-0.4298133758706972,-0.3119286816591397,0.613954320397973,0.1314741969108581,-0.3728167414665222,0.3701044917106628
3.574702880859375,-0.3683430446572601,-0.0908551416571252,1.0737298864752054,0.0973899960517883,-0.3204462230205536,0.3472511172294616
3.584730712890625,-0.3312488106137141,0.0943717075438704,1.378429457131028,0.0605618506669998,-0.2386670857667923,0.3142964839935303
3.594759765625,-0.340570838775672,0.2447343650420196,1.496624459400773,0.0317227467894554,-0.1366064995527267,0.2709458172321319
3.6047880859375,-0.3588315948704257,0.372554524872452,1.4818208580225705,0.0112414471805095,-0.0319958440959453,0.2208618968725204
3.61481591796875,-0.4033546272078528,0.4472793648585677,1.366797471526265,-0.0003683364484459,0.0620885752141475,0.1626617014408111
3.624843994140625,-0.4833355976238846,0.4413986362569034,1.1977128244966269,-0.0045463773421943,0.1245298385620117,0.1023529842495918
3.634871826171875,-0.5019404909811913,0.4134415387950837,0.96396544342041,0.0017493355553597,0.1552573889493942,0.05099418759346
3.644899658203125,-0.4841869537562132,0.3751066205080598,0.7496914090991019,0.0103094112128019,0.1595402956008911,0.001110996119678
3.654927978515625,-0.5468759765770286,0.307198109473288,0.5150315893530846,0.0292825698852539,0.1550659090280532,-0.0468645207583904
3.664955810546875,-0.5933136103641241,0.2637454463137313,0.3392658571243286,0.0442792512476444,0.1422327160835266,-0.0890429019927978
3.67498388671875,-0.6657059888146817,0.1986099436562508,0.2196913831949234,0.0608505047857761,0.1285589933395385,-0.1274198442697525
3.68501171875,-0.6960987889908253,0.1091897393062245,0.0774397980332374,0.0823047757148742,0.1053360253572464,-0.1514223515987396
3.695039794921875,-0.6382593250930308,0.02422744594682,0.0274175837576389,0.0930556952953338,0.0751429721713066,-0.1576184630393982
3.70506787109375,-0.534053319882974,-0.0021983411613386,0.0132329910606145,0.0900495946407318,0.0546568408608436,-0.1515308916568756
3.715095947265625,-0.4826182066021486,-0.0604411525624804,0.07997136233747,0.0674806386232376,0.0423831269145011,-0.1350446045398712
3.7251240234375,-0.481176592959091,-0.0790992739443667,0.1482189691334962,0.0398638807237148,0.0420768782496452,-0.1173821687698364
3.73515185546875,-0.456202310700342,-0.0827447177746333,0.1831318770825862,0.0133920619264245,0.0411735400557518,-0.0943929627537727
3.7451806640625,-0.3706988140031695,-0.0413581385657191,0.2426210078835487,-0.0195077527314424,0.0365877784788608,-0.0714324042201042
3.755208740234375,-0.3495088725887239,0.0194330695434473,0.2998907090693712,-0.0410354137420654,0.0282382331788539,-0.0596612244844436
3.76523681640625,-0.3731435037415474,0.0607794902719091,0.2857867803931236,-0.05030432716012,0.0222216844558715,-0.0608697086572647
3.775264892578125,-0.3992215094584971,0.1444001323645468,0.2855933036476373,-0.0544743053615093,0.0183097682893276,-0.0702557489275932
3.78529296875,-0.4131939937748015,0.2149271644677966,0.2639882055610418,-0.0427277907729148,0.0149021977558732,-0.0866812989115715
3.79532080078125,-0.3961582859629765,0.2508854898165911,0.2393693126112222,-0.0265858378261327,0.0168428421020507,-0.0987749770283699
3.8053486328125,-0.3420088356895372,0.279766643320769,0.2156248644083738,-0.0123808365315198,0.0121411774307489,-0.1064967364072799
3.815376953125,-0.3021064123574644,0.302965075013414,0.2587438751667738,-0.0089253848418593,0.0047136219218373,-0.121839202940464
3.82540478515625,-0.365315002072975,0.3336344271086156,0.3036667204767465,-0.0175811126828193,0.0178793147206306,-0.1474160850048065
3.83543310546875,-0.4799586685366928,0.4013168012373149,0.3022533465474843,-0.0328082665801048,0.0447926856577396,-0.1789915859699249
3.845460693359375,-0.5673982478629798,0.4581626509878784,0.239255915364623,-0.0435570143163204,0.0772788301110267,-0.2058770656585693
3.85548876953125,-0.5850128880739212,0.4945970694158226,0.1023883613288402,-0.0415926650166511,0.102958358824253,-0.2296106219291687
3.865516845703125,-0.5485442385828122,0.4749198341192677,-0.0518242952615022,-0.0342034213244915,0.1185484901070594,-0.2499649822711944
3.875544921875,-0.5173504242220893,0.4701846953561529,-0.1524707813590765,-0.0291612595319747,0.1260143965482711,-0.2646161019802093
3.885572998046875,-0.4724962967667728,0.4394456024929881,-0.2606061619073152,-0.0326326563954353,0.131109282374382,-0.2668553590774536
3.89560205078125,-0.396152915668115,0.3813201612606644,-0.2906447418183088,-0.0512343049049377,0.1142525449395179,-0.2589628100395202
3.905629638671875,-0.3387822383258491,0.2970150075025856,-0.312778247693181,-0.0766721293330192,0.075369507074356,-0.2431812286376953
3.91565771484375,-0.243916235325858,0.2082160129239782,-0.3348006944090128,-0.0961856395006179,0.0281213000416755,-0.2187957316637039
3.925685791015625,-0.1906175201302394,0.2735942930950783,-0.3580558977901935,-0.1053816527128219,0.0025681969709694,-0.1974563896656036
3.9357138671875,-0.266877278066054,0.4057379421478137,-0.3953922334939241,-0.1042229160666465,0.0134418830275535,-0.1867057383060455
3.945741943359375,-0.410507202376239,0.4848400108374655,-0.452321742939949,-0.0989728644490242,0.0454845577478408,-0.1941711455583572
3.95577001953125,-0.5811206664083525,0.5751460489781574,-0.4360585904031991,-0.1065833866596221,0.0827898532152175,-0.2312016040086746
3.965797607421875,-0.7288239776372909,0.5729153307840228,-0.4965402393728494,-0.1134596690535545,0.1217813119292259,-0.2861093282699585
3.975825927734375,-0.8035809663273393,0.5783779070388525,-0.6617588586241007,-0.110078252851963,0.1814736723899841,-0.3507138788700104
3.99023974609375,-0.9392058998908848,0.5782494583535939,-0.9230115017414092,-0.0897450894117355,0.260966420173645,-0.4411776065826416
4.000267822265625,-0.9865635711323468,0.50505639451202,-1.29541448931396,-0.0673455148935318,0.2643302381038666,-0.4968933165073395
4.0102958984375,-0.8915591095097363,0.2476494853037409,-1.7156179234594109,-0.0449211299419403,0.1884454786777496,-0.5353169441223145
4.020323974609375,-0.6518702095553278,-0.0315147762436652,-1.900603319454193,-0.0153134381398558,0.0523494184017181,-0.5463418960571289
4.0303515625,-0.3887656549610197,-0.2697494359688833,-1.9552134460419412,0.0121191767975687,-0.1055941060185432,-0.5228923559188843
4.0403798828125,-0.1326588594327215,-0.4149683830361813,-1.7593004133194683,0.037661287933588,-0.2534061968326568,-0.464032232761383
4.05040771484375,0.071795380671788,-0.4617975734241306,-1.3623241255044936,0.0522102154791355,-0.3612891733646393,-0.3993018567562103
4.060436767578125,0.1694558366958983,-0.4552257207531481,-0.9084767804324626,0.0530547052621841,-0.4103182256221771,-0.3395394384860992
4.07046484375,0.1975029687950387,-0.4110764170989394,-0.385666373771429,0.0338912084698677,-0.396859735250473,-0.2998838126659393
4.080492919921875,0.1519359164305496,-0.3339447716994211,0.1686065081238746,-0.0059728482738137,-0.3348040878772735,-0.2690987288951874
4.09052099609375,0.1773987402580678,-0.263764388476219,0.5807295116662978,-0.0519079677760601,-0.2342957854270935,-0.2520670592784881
4.100548828125,0.2576690490094944,-0.2892255592027679,0.8315157058268785,-0.0984419137239456,-0.1192882359027862,-0.2431100457906723
4.11057666015625,0.3493696467811241,-0.3420003235895186,0.9618564884424208,-0.1430701464414596,-0.0266413949429988,-0.234020322561264
4.12060498046875,0.4926026807282119,-0.4170520574424415,0.9856155496925116,-0.1719862073659896,0.0239661242812871,-0.2272673398256302
4.1306328125,0.5963877571124583,-0.5560134419523179,0.90898531447649,-0.1835518926382064,0.0308548547327518,-0.2270796447992324
4.140660888671875,0.6602328911658376,-0.6876985518489033,0.756285985058546,-0.1690821349620819,0.0011539501138031,-0.2289710193872451
4.150688720703125,0.742260236185044,-0.7893442781168967,0.6624579468041658,-0.1424577981233596,-0.0456968769431114,-0.2342124879360199
4.160716796875,0.7567673388347029,-0.8747386153511703,0.6664040540814399,-0.1191189214587211,-0.0916119068861007,-0.2387763559818267
4.170744873046875,0.7059932102132588,-0.9008809184759856,0.8308347378253936,-0.1176281198859214,-0.112301580607891,-0.2500803172588348
4.18077294921875,0.6211147135466337,-0.8694811332143842,1.0140811811983583,-0.137510746717453,-0.0922921821475029,-0.2757547795772552
4.19080078125,0.4343502521153539,-0.8280022908784449,1.1006886205494404,-0.1634302735328674,-0.0411008670926094,-0.3161841928958893
4.2008291015625,0.2414063165978528,-0.7979562583133578,1.121829023733735,-0.1827959865331649,0.025901336222887,-0.3636361360549927
4.210856689453125,0.1182496733327396,-0.7733224600553512,1.011983916658163,-0.1941956430673599,0.0972704291343689,-0.417414903640747
4.2208857421875,0.0323795900791883,-0.8188435635194182,0.8157640099436044,-0.1814196556806564,0.1716104298830032,-0.483319878578186
4.230913818359375,-0.0937194633133709,-0.9735038177467882,0.5005681797146797,-0.1436378061771392,0.2344476729631424,-0.5590735077857971
4.24094189453125,-0.1806885755836963,-1.0655737602874635,0.192067463210225,-0.095311552286148,0.2718565762042999,-0.6328046917915344
4.250969970703125,-0.2285561325760558,-1.155170590712875,-0.0259960265219211,-0.0519520565867424,0.2797879874706268,-0.7040587067604065
4.260998046875,-0.2941541381787508,-1.3345418000876903,-0.2816068643599748,-0.0012364159338176,0.2426139712333679,-0.7658317685127258
4.271025634765625,-0.2220405401369556,-1.5893017201848327,-0.507600562569499,0.0516967140138149,0.1566207110881805,-0.7955593466758728
4.281053955078125,-0.0029587493408937,-1.77343415261209,-0.6616244185894727,0.103324756026268,0.0496750921010971,-0.7824017405509949
4.291081787109375,0.2699651245461776,-1.8872442177958784,-0.7029793422847986,0.1455146819353103,-0.054549790918827,-0.7374073266983032
4.30110986328125,0.4003609618172049,-1.949990742957592,-0.5884668279200792,0.1674024015665054,-0.1548657417297363,-0.6731425523757935
4.311137939453125,0.5558010413106531,-1.9518302333444355,-0.3191974670857191,0.1621679961681366,-0.2228345721960067,-0.5913071632385254
4.321165771484375,0.7828129766520112,-1.8807868583500384,0.0826245071947574,0.123931661248207,-0.265087753534317,-0.5067688226699829
4.33119384765625,0.9115140292365104,-1.7270321746602653,0.5102887787401675,0.0685047134757042,-0.2804787158966064,-0.4329114258289337
4.341221923828125,0.9760473647497594,-1.5489206099577246,0.8423352060049771,0.0157200694084167,-0.2548939883708954,-0.3724704384803772
4.351249755859375,0.9926501245044173,-1.2914751040384174,1.0649608890861273,-0.0267504584044218,-0.1938155740499496,-0.3288589715957641
4.361278076171875,0.9885520415358244,-1.0154544423129408,1.225713761100173,-0.053352240473032,-0.114295981824398,-0.3105928897857666
4.380708984375,0.8429675125591456,-0.6472557745624333,1.3131956451982258,-0.0697108507156372,0.0259093809872865,-0.3339317142963409
4.390737060546875,0.7747508854232728,-0.5091378186067566,1.2873217837512492,-0.0656787231564521,0.0647833794355392,-0.3731656372547149
4.4007646484375,0.7455543092943727,-0.4230779666684567,1.1708499520123004,-0.0534303151071071,0.0895704850554466,-0.4175724983215332
4.41079296875,0.6947698784746229,-0.341522184683755,1.0640127945810556,-0.037689808756113,0.1063810735940933,-0.4718304574489593
4.42082080078125,0.6232083978902548,-0.274322698701173,0.9422714980065822,-0.0231449548155069,0.1302448511123657,-0.5286527276039124
4.430848876953125,0.5240208053641021,-0.2048045422463677,0.8334533958911895,-0.0190920531749725,0.1593020260334015,-0.5853521823883057
4.440876953125,0.4634170643847435,-0.2398505750558339,0.7533943552702664,-0.0208755731582641,0.1783697307109832,-0.6372354030609131
4.450904541015625,0.4635543539635837,-0.3280779254926368,0.5770978771656752,-0.0271219331771135,0.1745770722627639,-0.6813076138496399
4.460933837890625,0.4926728964202105,-0.407381508103758,0.3788905960261821,-0.0288710966706275,0.143466830253601,-0.7198792695999146
4.4709619140625,0.5164597589926794,-0.4427743085242807,0.1496358501940965,-0.0167085491120815,0.0962502285838127,-0.7477109432220459
4.480989990234375,0.5697885770656168,-0.4935097856357693,-0.0687491265773773,0.0046217739582061,0.0412596836686134,-0.7657604813575745
4.49101806640625,0.5843454736737534,-0.5121103316115215,-0.184670923218131,0.0298286341130733,-0.0121935820206999,-0.7796942591667175
4.501046142578125,0.4816565219631418,-0.5545959033045917,-0.24675883834064,0.0551038980484008,-0.0639414638280868,-0.8001396059989929
4.51107421875,0.43455337347202,-0.6157052557185292,-0.2461976973265409,0.0720869973301887,-0.1172797158360481,-0.8160451054573059
4.52110205078125,0.4627760265348479,-0.6182319246519357,-0.1931914988040924,0.0787369087338447,-0.1589898765087127,-0.8240109086036682
4.5311298828125,0.5247931414434686,-0.6059481240749359,-0.1332335814476013,0.0719818696379661,-0.1779659986495971,-0.8224122524261475
4.541158203125,0.6023912718435749,-0.6040839011056348,-0.0788923349291086,0.0530952662229537,-0.186303824186325,-0.8080439567565918
4.55118603515625,0.7341039638668299,-0.6332379897996783,-0.016563012266159,0.0256910659372806,-0.1999037712812423,-0.7762213349342346
4.561214111328125,0.9299781258836388,-0.6584514876417815,0.0206873987197875,-0.0012124544009566,-0.2023418992757797,-0.7331840991973877
4.571241943359375,1.0650170031875372,-0.6277368351001292,0.0728361036300659,-0.0297215171158313,-0.193309023976326,-0.6845993995666504
4.581269775390625,1.1241663075748831,-0.5407946108367294,0.1849620151191949,-0.0543389804661273,-0.1700266003608703,-0.6370941996574402
4.591298095703125,1.137488511288911,-0.4192437588004395,0.2673351779013872,-0.0819847211241722,-0.1343176066875457,-0.6013931632041931
4.601325927734375,1.1324974250033495,-0.3084923870675266,0.3136854256659745,-0.1090911701321601,-0.107951246201992,-0.5803717970848083
4.61135400390625,1.1041346693500875,-0.2105689509919844,0.3652659752994776,-0.1253712326288223,-0.1040021032094955,-0.5787451267242432
4.6213818359375,1.07263975315094,-0.1332643693115096,0.3039823622971773,-0.1328778862953186,-0.1071022897958755,-0.5934705138206482
4.631410888671875,1.036200585482642,-0.0192865737448446,0.2857400186419487,-0.1297347545623779,-0.1163952946662902,-0.6204344034194946
4.64143896484375,0.96953272215873,0.0881330962820909,0.2255617365330457,-0.1055551096796989,-0.1222670301795005,-0.6582217216491699
4.651467041015625,0.9756010092217474,0.126294082774315,0.1633119088470935,-0.0734624564647674,-0.1201061233878135,-0.6869906783103943
4.661494873046875,1.0068680349491537,0.1872099767090752,0.1840010611325502,-0.048566959798336,-0.1195695027709007,-0.7011951804161072
4.671523193359375,1.1168142643116414,0.1671906499765813,0.2321025364786386,-0.0371888317167758,-0.1117443591356277,-0.7007779479026794
4.681551025390625,1.1249697329122572,0.155793897899799,0.294006911727786,-0.0499861203134059,-0.0916047245264053,-0.6958410143852234
4.691578857421875,0.9968832320295272,0.2025294369212351,0.3672030808418989,-0.0894399434328079,-0.0484152361750602,-0.6893356442451477
4.70160693359375,0.7638847696244716,0.2886186062855645,0.4029951097130775,-0.1437457799911499,0.0255484692752361,-0.6862748861312866
4.711635009765625,0.4306159974904731,0.3402950540415942,0.3004325608611106,-0.1975070536136627,0.1097617670893669,-0.6956787109375
4.7216630859375,0.1235025340933352,0.3057730633725412,-0.0235334358006715,-0.2265554815530777,0.1878168731927871,-0.7254813313484192
4.731691162109375,-0.1628949255440384,0.2148135845581069,-0.4631418276399374,-0.2283467054367065,0.2446877509355545,-0.7741647958755493
4.74171875,-0.3266380288826301,0.0927681356715969,-0.8365425940781831,-0.2117272466421127,0.2637980580329895,-0.8259598612785339
4.7517470703125,-0.3353547115625813,-0.100219438058231,-1.208059446465969,-0.1725288480520248,0.2203507721424102,-0.8715227246284485
4.76177490234375,-0.2797820600856095,-0.3396761914908885,-1.5231769507616757,-0.1052912250161171,0.1159034743905067,-0.9085965752601624
4.771802978515625,-0.1481712210016325,-0.5964686768615618,-1.7197119147747757,-0.0228943973779678,-0.0435636602342128,-0.9252330660820008
4.7818310546875,0.0382553137121722,-0.8107393136493861,-1.713552223101258,0.0668528005480766,-0.2546420693397522,-0.922970414161682
4.79185888671875,0.1958663440365344,-0.9629745326869188,-1.4834943441927433,0.1495071500539779,-0.4584344625473022,-0.9077168703079224
4.8018876953125,0.3773953159671276,-1.101092305979505,-1.090159043228626,0.2176742255687713,-0.6152869462966919,-0.8709551095962524
4.811916015625,0.5280771315502003,-1.081141916297376,-0.5645686504602432,0.2577703595161438,-0.6789136528968811,-0.8159048557281494
4.82194384765625,0.6250698809131979,-0.9124111972719432,0.0371241542577743,0.2582915425300598,-0.6386011242866516,-0.7365753650665283
4.83197216796875,0.7309456459663808,-0.723913409242034,0.5848667576014995,0.2226831167936325,-0.5313675403594971,-0.649153470993042
4.842,0.791404060190916,-0.5172998996112496,1.0301830056935548,0.1424407511949539,-0.3847911357879638,-0.567487359046936
4.852028076171875,0.7343715287618339,-0.3227179693620652,1.2469073557764292,0.0364877022802829,-0.209449827671051,-0.511577308177948
4.862055908203125,0.5880225912839174,-0.1903171489441767,1.2484838113129135,-0.0633526071906089,-0.0615306757390499,-0.4970625042915344
4.872083984375,0.4801680004384368,-0.1050691979106515,0.9812047475129364,-0.1341754049062729,0.044052317738533,-0.5149697661399841
4.882112060546875,0.5013404061961919,-0.0152102094177156,0.5523568191409111,-0.1473460644483566,0.0903308615088462,-0.5384063720703125
4.89214013671875,0.5560463213086128,0.0074428450855426,0.0791945327460765,-0.1043863669037818,0.0850167050957679,-0.560321033000946
4.90216796875,0.535749456276372,0.043049379588291,-0.2717921573102474,-0.0397029742598533,0.0493836104869842,-0.5878360271453857
4.912196044921875,0.5100897490367293,0.0071170654635876,-0.4219213439792394,0.0260250940918922,-0.0191709101200103,-0.6328722834587097
4.922223876953125,0.3883811856880784,-0.07986877874583,-0.3491156354874372,0.0629852414131164,-0.1061079427599906,-0.7040186524391174
4.932251953125,0.3174307496741413,-0.2309266976322978,-0.1759106936573982,0.0750948190689086,-0.1967626959085464,-0.7925068140029907
4.942280029296875,0.2320852200176566,-0.3940488560609519,0.1127104333788156,0.0736769512295723,-0.2863471806049347,-0.8768430352210999
4.95230810546875,0.1193031096421182,-0.5348561241658404,0.3457797690629959,0.0750681236386299,-0.3366301655769348,-0.9498690962791444
4.962336181640625,0.0168720051500946,-0.6397909185744821,0.509409657818079,0.101281352341175,-0.3413050770759582,-1.0006664991378784
4.972364013671875,-0.0164145437061786,-0.7112737078994512,0.6676712975382805,0.1330385953187942,-0.3055818676948547,-1.0228238105773926
4.982392822265625,-0.0669846011228859,-0.8129464683048426,0.775723091456294,0.1641664206981659,-0.233100488781929,-1.023618221282959
4.992421142578125,-0.1918869190115481,-0.8835968253936618,0.9002139789998531,0.1656133532524109,-0.1539886444807052,-1.015699028968811
5.002448974609375,-0.3175398360718041,-0.8997259032219648,1.0995277600765228,0.1328348964452743,-0.0879875272512435,-1.009359359741211
5.01247705078125,-0.3855850521635264,-0.90130118971467,1.1997586511105298,0.081983096897602,-0.0505196116864681,-1.0096348524093628
5.022505126953125,-0.4806006197020411,-0.9341527812197804,1.1362164455264807,0.0351056046783924,-0.0339960306882858,-1.020391821861267
5.032532958984375,-0.5087465907994657,-0.96735976203382,0.9501064294159411,0.0133337313309311,-0.0213438831269741,-1.0250071287155151
5.04256103515625,-0.5824189991232007,-0.8960311403572558,0.6944932534903288,0.0163417719304561,-0.0143893044441938,-1.0283387899398804
5.052589111328125,-0.5939232666950672,-0.8429945466965436,0.4810100772857665,0.0439848899841308,-0.0004753717221319,-1.0283091068267822
5.062616943359375,-0.5096046689335256,-0.800070766249299,0.3892617679148912,0.0808483660221099,0.0468551255762577,-1.022640824317932
5.072645263671875,-0.4852947688676416,-0.6358173387683927,0.439212670519948,0.0852434411644935,0.1339990496635437,-1.0149585008621216
5.0826728515625,-0.5368969458110631,-0.5125500016704201,0.4937070617735385,0.0657150149345398,0.2261742502450943,-1.0252825021743774
5.092700927734375,-0.5847014840371907,-0.483915552936308,0.4408727126866579,0.0293336566537618,0.2964654266834259,-1.0560694932937622
5.10272900390625,-0.6173590873401612,-0.4526895533390342,0.2795610377460717,-0.0030040417332202,0.344538152217865,-1.102973699569702
5.1127568359375,-0.6980360406637192,-0.4475341798698529,0.0267027134865522,-0.0071333860978484,0.362274020910263,-1.1530320644378662
5.12278515625,-0.630539836756885,-0.449176284521073,-0.2276566629856824,0.0205443147569894,0.3425480127334595,-1.1866872310638428
5.132812744140625,-0.5762644950814545,-0.450377148210816,-0.4812865561395883,0.068232461810112,0.285904198884964,-1.2106443643569946
5.1428408203125,-0.5043728326946497,-0.5122909123428165,-0.7521686128675937,0.1473235636949539,0.1774013936519622,-1.219973087310791
5.152868896484375,-0.3309844971217215,-0.5286137957101688,-0.8532651808202266,0.2266945093870163,0.0424699708819389,-1.214746594429016
5.16289794921875,-0.1888219054177403,-0.5053823750633746,-0.7689303625762463,0.2916183769702911,-0.0936378017067909,-1.2010395526885986
5.172926025390625,-0.1034524834290146,-0.4906674748819321,-0.585419715309143,0.334922194480896,-0.1987277418375015,-1.1774606704711914
5.1829541015625,0.0610411825485527,-0.3825910945119336,-0.303533449485898,0.3487160205841064,-0.2613402605056762,-1.129491925239563
5.192982177734375,0.3139115625720471,-0.2161441390421241,0.0109422497749328,0.3394289910793304,-0.2788667678833008,-1.067823052406311
5.203010009765625,0.3874118291992693,-0.0239969251265749,0.2669546541512012,0.3118764460086822,-0.2532649934291839,-1.0106617212295532
5.213037841796875,0.3645827422756701,0.2010396915538236,0.4579395828217267,0.2766709625720978,-0.1722377389669418,-0.9694222211837769
5.22306591796875,0.3504492952439934,0.4350929602414369,0.5828980878770351,0.2274762690067291,-0.0529108121991157,-0.9447312355041504
5.233093994140625,0.3070057287063449,0.5784320849115029,0.6330962432414293,0.1730274856090545,0.059521559625864,-0.9353398084640504
5.2431220703125,0.3298934870146214,0.629311902397126,0.5957347730964422,0.1170925796031951,0.147643432021141,-0.928862988948822
5.25314990234375,0.3877298091072589,0.641851577431336,0.4257569766193628,0.0736848711967468,0.1854609996080398,-0.9191972613334656
5.263177978515625,0.4043706358499824,0.5993103665608912,0.1762491318315267,0.0539114326238632,0.1791075021028518,-0.9209070205688475
5.273205810546875,0.3331863910801708,0.5688103431506082,-0.1789203968673944,0.0648389980196952,0.1433083266019821,-0.9264950156211852
5.283234130859375,0.3503525568712503,0.5499717141026631,-0.4151724542409181,0.0880409851670265,0.0796750113368034,-0.9284015893936156
5.293261962890625,0.3807660345092415,0.5659717587238178,-0.4976356333941221,0.1046460196375846,0.0031753319781273,-0.9291569590568542
5.3032900390625,0.4547578840456903,0.5439721448943019,-0.48699032073915,0.1169540882110595,-0.0597578287124633,-0.9305601716041564
5.31331787109375,0.560688009634614,0.4952135938789695,-0.4191746756196022,0.1248033493757247,-0.1039213687181472,-0.926112174987793
5.323345947265625,0.7100793835483491,0.4985758368536829,-0.2443038464039564,0.1158186495304107,-0.1210012957453727,-0.9070892333984376
5.3333740234375,0.771410708149895,0.519093578094989,-0.0167255093514919,0.0930327326059341,-0.1195588186383247,-0.8881701231002808
5.343402099609375,0.7132086945500224,0.4390715815488248,0.1080477022647857,0.0790205150842666,-0.1089165657758712,-0.8851034641265869
5.353430908203125,0.6464985264543444,0.398946272713691,0.182850722053647,0.0728729516267776,-0.0905585065484047,-0.8870373368263245
5.363459228515625,0.6457184819925577,0.4081791612874716,0.1834697307348251,0.0720180794596672,-0.0595491901040077,-0.8851611614227295
5.37348681640625,0.6963187884170562,0.4219216362401843,0.1403103879660368,0.082571841776371,-0.0133125465363264,-0.8746811747550964
5.383514892578125,0.7686505227215588,0.4458930250667035,0.1488975990474224,0.0790846943855285,0.0372558236122131,-0.8419685363769531
5.39354296875,0.8712363063186407,0.4984419813409447,0.1929407389134168,0.04664983227849,0.0782546326518058,-0.8016693592071533
5.403571044921875,0.9883925401251764,0.4983742498669773,0.1611748968183994,-0.0059976689517498,0.0951233655214309,-0.7629227638244629
5.41359912109375,1.006419341333583,0.4544861544322222,0.0824088186174631,-0.0623543411493301,0.0833173990249633,-0.7336089611053467
5.423626953125,0.9977165410485118,0.4352837335731834,-0.0158873049616813,-0.1019584760069847,0.0495679564774036,-0.7045879364013672
5.43365478515625,1.0340896577432752,0.4644784830711781,-0.1040823057651519,-0.1127320304512977,0.0046942252665758,-0.6732622981071472
5.44368310546875,0.9539566751033068,0.5343671350724994,-0.1325274790048599,-0.0987786650657653,-0.0228444579988718,-0.6517758965492249
5.4537109375,0.7254211103912442,0.7047605996783822,-0.0586269610136747,-0.0861944705247879,-0.0060984813608229,-0.6462867856025696
5.4637392578125,0.5280138935882598,0.8023514245323836,0.0937187326610088,-0.0955032855272293,0.0435444414615631,-0.641843318939209
5.4737666015625,0.3926450171450152,0.824031999007985,0.1090992571443319,-0.125554084777832,0.1305636018514633,-0.6386526226997375
5.483794677734375,0.2078351238476112,0.8173918303411454,0.0199374571353197,-0.1716254502534866,0.2283421009778976,-0.6205705404281616
5.49382275390625,0.2335015530889853,0.8012916863463818,-0.1015232689321041,-0.2315606623888015,0.2933550477027893,-0.588180422782898
5.503850830078125,0.2597630986792966,0.6743965872053057,-0.3085159140735865,-0.287586361169815,0.3152765929698944,-0.5577383041381836
5.51387890625,0.1511964505743235,0.4505042451892048,-0.5545493607491254,-0.3324929177761078,0.2911346554756164,-0.5411701798439026
5.523906982421875,0.0236420472742989,0.2922568531900644,-0.7548077291995287,-0.3564011752605438,0.227113589644432,-0.532006025314331
5.5339345703125,-0.1151809882108122,0.2891446759862825,-0.8473024730235338,-0.3646436333656311,0.1397865265607834,-0.528401255607605
5.543963623046875,-0.2368141847683116,0.3314710019970313,-0.9306365897923708,-0.3564845025539398,0.1054663807153701,-0.546787440776825
5.55399169921875,-0.4252004387151449,0.2570117541445419,-1.139004030418396,-0.3260330855846405,0.1310229897499084,-0.6152442693710327
5.564019775390625,-0.6969342169016599,0.0732430039305239,-1.2983710010319949,-0.2794488072395324,0.1488837450742721,-0.727438747882843
5.5740478515625,-0.922521672397852,-0.0828505710355937,-1.3378887724280355,-0.2242356091737747,0.1593081504106521,-0.876710832118988
5.584075927734375,-1.1672086729004978,-0.2574750242747366,-1.4594365922570227,-0.1582036018371582,0.1643279492855072,-1.0405000448226929
5.594103515625,-1.2953072295472026,-0.5088365706378594,-1.5641560268819332,-0.0877290517091751,0.1463424861431121,-1.1670767068862915
5.6041318359375,-1.0540692004546524,-0.8991331249605864,-1.6423212165802716,-0.0060102175921201,0.0624696984887123,-1.212896466255188
5.61415966796875,-0.3299582228139042,-1.3852009970925747,-1.5802631120741366,0.0722381994128227,-0.0973832011222839,-1.1455339193344116
5.62418798828125,0.4801311024941503,-1.729132654070854,-1.2529735239475963,0.1254337728023529,-0.2703261971473694,-0.973874807357788
5.6342158203125,1.0100625932067633,-1.879284344832599,-0.6805155815422534,0.1260889917612075,-0.4099153280258178,-0.7421764731407166
5.644243408203125,1.156535741586238,-1.7744957904942331,0.0231879833638668,0.0807286873459816,-0.4991245865821838,-0.5167239308357239
5.654271728515625,0.9554936754122376,-1.402580294177681,0.7617986110001802,0.0050794035196304,-0.5072278380393982,-0.345252126455307
5.664299560546875,0.5715416678106412,-0.8958202740855514,1.3319862703859806,-0.0748447179794311,-0.4088533520698547,-0.2389139831066131
5.674327880859375,0.2117687735021114,-0.4023477151876315,1.7399188365012406,-0.1457887440919876,-0.2422380745410919,-0.1879577040672302
5.684355712890625,-0.09903415553011,-0.0360682885292917,1.949427263855934,-0.2048267573118209,-0.0279769171029329,-0.1853065192699432
5.6943837890625,-0.4762195185409859,0.2492574867559596,1.9157260697841645,-0.2522293925285339,0.1801332533359527,-0.2267485857009887
5.70441162109375,-0.684842358700186,0.4094954315178096,1.7574615074545143,-0.2866409122943878,0.3201548159122467,-0.2798315286636352
5.714439697265625,-0.6032048167161643,0.403112415949814,1.4649176540166138,-0.2951095700263977,0.3804692029953003,-0.3300250172615051
5.7244677734375,-0.4672398740759119,0.3276922141106799,1.0456459477633238,-0.2702492177486419,0.3757013380527496,-0.3702411651611328
5.734496826171875,-0.4138123814014717,0.2546369878372177,0.6803881557703018,-0.2234929352998733,0.3279496729373932,-0.3981401026248932
5.744524658203125,-0.4383675979979336,0.2193741704719141,0.4769289454519748,-0.171778604388237,0.2558621764183044,-0.4237831234931946
5.754552734375,-0.6018394466470927,0.1911818029494956,0.3441968837857246,-0.1218353956937789,0.1885155439376831,-0.4560380280017853
5.76458056640625,-0.7672334224652498,0.1925763260478153,0.2573123810589313,-0.0799001976847648,0.1357974708080291,-0.4973058402538299
5.774608642578125,-0.8371344224914908,0.2030194671941921,0.2062181536376476,-0.0476802513003349,0.1043902933597564,-0.548317015171051
5.78463671875,-0.9040857058666646,0.1943355542726814,0.1917997521847486,-0.0251504406332969,0.1075972691178321,-0.5981996655464172
5.794664794921875,-0.9358043478190898,0.1119874528665095,0.187379013133049,-0.0191397201269865,0.1222426742315292,-0.6295276284217834
5.804692626953125,-0.7854139529306441,-0.0357283707841299,0.1519797829717397,-0.0273007098585367,0.1131961792707443,-0.628068745136261
5.814720947265625,-0.4997229245295748,-0.2225759621879085,0.0502478397250175,-0.0374718531966209,0.0706862732768058,-0.6075722575187683
5.82474853515625,-0.2635593308907933,-0.4524178237255662,-0.064027358752489,-0.0428141541779041,-0.0042225872166454,-0.5662235021591187
5.83477685546875,-0.090409060123749,-0.6481406676381826,-0.1422773041248321,-0.0346327908337116,-0.0935967564582824,-0.5072579979896545
5.8448046875,0.0810466268861666,-0.7686381016314029,-0.1387894620090723,-0.0094227716326713,-0.1811686754226684,-0.4323914647102356
5.854832763671875,0.1924197837792337,-0.787416744120419,0.0080582187712192,0.009835691191256,-0.2520816326141357,-0.3539082705974579
5.86486083984375,0.1622066510189324,-0.6836204887550323,0.2450403439849615,0.0223474875092506,-0.2907161116600036,-0.2976870536804199
5.874888671875,0.0266266891082748,-0.6315829891342669,0.4620972870230674,0.0284546799957752,-0.3002799749374389,-0.2683223187923431
5.884916748046875,0.0396046094292774,-0.5984662438869476,0.6458312216520309,0.0385624431073665,-0.2897724509239197,-0.2531809210777282
5.89494482421875,0.1326270303891971,-0.5646040505671873,0.8060194455206394,0.0552439503371715,-0.2597186863422394,-0.2338780760765075
5.90497265625,0.2551144326232373,-0.5287620816070586,0.9405144252061844,0.0657770186662674,-0.2011144906282425,-0.206501305103302
5.9150009765625,0.3028989144420251,-0.4370014972764998,1.1132336293458938,0.0575837083160877,-0.1259700059890747,-0.1757013350725174
5.925028564453125,0.3064616849575191,-0.3971093030774966,1.2700024001598358,0.0257323011755943,-0.0518750064074993,-0.1328273713588714
5.935056884765625,0.4005965241387486,-0.4112628430491313,1.3477099092185496,-0.0206792242825031,0.0047227991744875,-0.0891372710466384
5.945085693359375,0.4800714447287842,-0.4159616318572312,1.272521689504385,-0.06265489757061,0.0374373346567153,-0.0505126491189003
5.95511376953125,0.4776758182965219,-0.3222319759434089,1.134402674102783,-0.0950817391276359,0.0479537211358547,-0.0200382452458143
5.9651416015625,0.4028295073552057,-0.1679501631069928,0.9761597390830516,-0.111477218568325,0.0489548034965992,0.0048910737968981
5.975169921875,0.373404675428383,-0.0698848526090383,0.80864804045856,-0.1010364219546318,0.0497524738311767,0.0154533917084336
5.98519775390625,0.3546732330819592,-0.0060175615227781,0.6892454159647226,-0.0783217921853065,0.0462677292525768,0.0204220507293939
5.995225830078125,0.3088094901926815,0.0804945642276667,0.6356050111919641,-0.060694120824337,0.0432848930358886,0.015149425715208
6.005253662109375,0.2681970919603482,0.1169295854438096,0.5464139850884676,-0.0476603396236896,0.0262076370418071,0.0016378781292587
6.01528173828125,0.2496512353138998,0.1191120623157359,0.5178694431275129,-0.0477404706180095,0.0004408741369843,-0.0180807802826166
6.025309814453125,0.1949491195937618,0.1227419980496168,0.46364042481184,-0.0510758124291896,-0.0236442219465971,-0.0405136495828628
6.035337890625,0.2053164190249517,0.0721398284615948,0.3751753748953342,-0.0398164764046669,-0.0556192211806774,-0.0526939705014228
6.04536572265625,0.2850568952159956,0.0300295928869396,0.2889338462471962,-0.0190595313906669,-0.0844798982143402,-0.0478081330657005
6.055393798828125,0.3522175470255315,-0.0123114923015236,0.1986374892503023,0.0099308770149946,-0.1022794172167778,-0.031434565782547
6.065421630859375,0.3947073199696839,-0.0253218535874038,0.2246241634219885,0.0223212353885173,-0.1168841943144798,-0.0076911533251404
6.075449951171875,0.4248584203444421,-0.0529564410965889,0.3419727779954671,0.0145705314353108,-0.1223267093300819,0.0178290903568267
6.085477783203125,0.4620674033414572,-0.128019682724215,0.4394733672827482,-0.0252032466232776,-0.1180749684572219,0.0487483888864517
6.095505615234375,0.495927696965076,-0.1049947809675708,0.5522212100625038,-0.0879178345203399,-0.1166626587510109,0.0772654041647911
6.10553369140625,0.5166877225296571,-0.0780673918796703,0.533904632127285,-0.1624165773391723,-0.1159723624587059,0.0924622043967247
6.1155615234375,0.4916846525678411,-0.1274776848020032,0.4088642940074205,-0.227682963013649,-0.1213710978627204,0.1111976206302642
6.12558984375,0.4677416861182078,-0.111745022412762,0.2732172216773033,-0.2587670981884002,-0.139789268374443,0.1449483782052993
6.13561767578125,0.4426328907595947,-0.0391582904338836,0.0341349093139171,-0.1509596109390258,-0.1145675703883171,0.2080877870321273
6.14564599609375,0.2083507086869329,0.1716738780715502,-0.5769762966126203,0.0402356423437595,0.0228246487677097,0.2668128907680511
6.155675048828125,0.0411901981202885,0.414446331923455,-0.6366378613710403,0.174728512763977,0.1294751763343811,0.2540892958641052
6.16570263671875,-0.1745270207466557,0.3282910202540457,-0.0907160437136888,0.1860418766736984,0.1674736887216568,0.1752512007951736
6.175730712890625,-0.4581728435883298,0.0298747859177179,0.151919577217102,0.0911244750022888,0.2321155071258545,0.0349121317267417
6.1857587890625,-0.6944126625347882,-0.1211349099128507,0.3226309486657381,-0.0524566583335399,0.2319109886884689,-0.0975601524114608
6.19578662109375,-0.5560225751068443,-0.1832772951689548,0.1331780518680811,-0.174225628376007,0.1979828029870987,-0.1714491695165634
6.20581494140625,-0.2484973891036584,-0.3352563292220235,-0.3659662325233221,-0.2211835533380508,0.1310913860797882,-0.194840520620346
6.215842529296875,0.0032046047275885,-0.5863988990722224,-0.8979086246669292,-0.2060510069131851,0.0581841990351676,-0.1832569688558578
6.22587060546875,0.1454117296930402,-0.7930358261112124,-1.062441599741578,-0.170960932970047,-0.0266073886305093,-0.1437721401453018
6.235898681640625,0.1412252012560144,-0.8256015864122659,-0.9182552471250296,-0.1367415338754654,-0.1120167896151542,-0.0877193659543991
6.2459267578125,0.0742093282120302,-0.784174912654981,-0.652132952144742,-0.0967821255326271,-0.1465382725000381,-0.0218186434358358
6.255954833984375,-0.0806737749857827,-0.7774703735150397,-0.3765513394236564,-0.0343203917145729,-0.1222543567419052,0.0374186523258686
6.265982666015625,-0.2901304721532389,-0.7088557600375265,-0.1105757594376802,0.0210813470184803,-0.05183931812644,0.0892221927642822
