seconds_elapsed,ax,ay,az,gx,gy,gz
0.062445068359375,0.0052645694646984,0.6233662918657064,-0.2091080298602581,-0.0059957047924399,-0.1681536883115768,0.5551204085350037
0.07247216796875,0.0994007238201797,0.604166099496372,-0.4739075518041848,0.0271081309765577,-0.0935467109084129,0.5150797367095947
0.082499267578125,0.1243267830230295,0.5740265799615532,-0.548580223211646,0.0539216361939907,0.0251104347407817,0.4737171232700348
0.092527099609375,0.0880845261663198,0.5947437527650967,-0.3527776651263237,0.0587668120861053,0.0889550447463989,0.4376834332942962
0.10255419921875,0.1518351868692785,0.6450101145274937,-0.0351923094123601,0.0436235442757606,0.131627932190895,0.3958774209022522
0.11258203125,0.1617998237837105,0.7058930377744138,0.2460416299819946,0.0181481298059225,0.1117340177297592,0.3456060588359833
0.122609130859375,0.3010317323306575,0.7918283500175922,0.3941688291788101,0.0188133884221315,0.1791607290506363,0.284171998500824
0.13263720703125,-0.1655984488816931,0.7736880054321139,0.213664377990365,0.0303775612264871,0.2064074873924255,0.21531543135643
0.1426640625,-0.0954310895368456,0.8928958380062133,0.4876613518685102,0.0474745221436023,0.147474393248558,0.1793822050094604
0.152692138671875,0.3138042662726715,1.1492568366244436,0.5225491253763437,0.0779055953025817,0.1330823600292205,0.1583980917930603
0.16271923828125,0.0723548594517633,1.289783059298247,0.404663335186243,0.1055225729942321,0.0985164046287536,0.1232387870550155
0.172746826171875,-0.0783241796523332,1.3543567998871209,0.4324976830512285,0.1251692622900009,0.0391187369823455,0.0973272249102592
0.182774169921875,0.0306385550981387,1.4438291271500288,0.4748831188380717,0.126600444316864,-0.0136310243979096,0.0868793725967407
0.192802001953125,-0.0141199299629777,1.4608657482773064,0.361992068195343,0.1223356127738952,-0.0459145084023475,0.0828834921121597
0.2028291015625,-0.1220698709417134,1.405175717498362,0.1364431911438703,0.1224288195371627,-0.0497100464999675,0.0794040709733963
0.21285693359375,-0.153352642227523,1.4096158919028936,-0.1203098024666309,0.1335216611623764,-0.0253956168889999,0.0788393393158912
0.222884033203125,-0.1503201791964471,1.4518549049563705,-0.330620778375864,0.1541808545589447,0.0109306992962956,0.0835091918706893
0.232912109375,-0.1527203356733545,1.4726380191355943,-0.4767436520129442,0.1929151266813278,0.0480973608791828,0.083195261657238
0.24293896484375,-0.2172436977818608,1.45882635140419,-0.5118278248757123,0.2181989103555679,0.0887113660573959,0.069796897470951
0.252967041015625,-0.2772549162281676,1.4823928126916288,-0.3656698799252509,0.2086578607559204,0.1261224597692489,0.0468625351786613
0.262994140625,-0.3338343701275065,1.393413091251254,-0.1616927832126617,0.1728460639715194,0.1644197851419448,0.0165877230465412
0.273021240234375,-0.4190544467734172,1.267361968653649,0.0089198040366172,0.1288056224584579,0.2018382251262664,-0.0221712533384561
0.283049072265625,-0.4934726684957742,1.2130170688733457,0.2104506766408681,0.0901951119303703,0.2142879664897918,-0.0718426704406738
0.293076171875,-0.5490105043876916,1.2258445478729902,0.3914975641429424,0.0732386931777,0.2044005244970321,-0.1356131583452224
0.30310400390625,-0.6069233257826417,1.2764319948159155,0.5449988575935364,0.0650537386536598,0.1771010011434555,-0.1981407105922699
0.313131103515625,-0.5884241212895139,1.3895325965560972,0.6795850226938724,0.0630621835589408,0.1299922168254852,-0.2428975999355316
0.323158935546875,-0.5442326589940115,1.559081500096619,0.7341933957159519,0.0511120446026325,0.090486891567707,-0.2750901579856872
0.33318603515625,-0.5580221148936078,1.6907663907974957,0.7627741780340671,0.0296146292239427,0.0838642567396164,-0.2899317741394043
0.34321435546875,-0.6004417452109977,1.7095292511954905,0.7602876219153404,0.0090028261765837,0.0777666866779327,-0.2977771759033203
0.353240966796875,-0.5845180172290653,1.696139316007495,0.713920423015952,0.0048465700820088,0.0832358226180076,-0.2911363244056701
0.363269287109375,-0.5899179035112262,1.776768557731807,0.7079840187042952,0.0069547286257147,0.093950517475605,-0.2798359990119934
0.373296142578125,-0.6241120687317103,1.8355773050531743,0.7487690335571765,0.0168736428022384,0.1031088307499885,-0.2769247889518738
0.383323974609375,-0.603110781757161,1.8908470645934343,0.7460422389417887,0.0265033654868602,0.0996701568365097,-0.2607993483543396
0.39335107421875,-0.5637120701635256,1.9104948911324144,0.7711398553192615,0.0354438349604606,0.0913627296686172,-0.2374624609947204
0.403379150390625,-0.5997140519909561,1.8716557496502997,0.7994915050566196,0.0355855152010917,0.074135810136795,-0.2202627062797546
0.41340625,-0.6562549274455756,1.8488164335936308,0.7878092505693435,0.0230258740484714,0.0573860853910446,-0.2135609686374664
0.42343408203125,-0.7422606015112251,1.816243659029901,0.7598813792020082,0.0058237179182469,0.0487699583172798,-0.210469052195549
0.433461181640625,-0.7175660129766911,1.7779941540040074,0.6968751801908015,-0.0137505400925874,0.045173168182373,-0.2029795944690704
0.4434892578125,-0.6219364051930606,1.7823688619568945,0.6139116503000259,-0.0262825768440961,0.0417960137128829,-0.1892552673816681
0.45351611328125,-0.5223670833403244,1.812591127871722,0.4788549450784921,-0.0263462662696838,0.0433256588876247,-0.1742103695869445
0.4635439453125,-0.4625906965631991,1.80460758177191,0.361033452296257,-0.0154552673920989,0.0538603253662586,-0.1635590642690658
0.4735712890625,-0.4840530982434749,1.7734269922189414,0.2498731709688901,-0.0032695431727916,0.0725293532013893,-0.1519360989332199
0.483597900390625,-0.5090027209850028,1.7127675024643538,0.1860544865310192,-0.0013661819975823,0.0830038338899612,-0.1426890790462494
0.4936259765625,-0.4754496301470324,1.6422824920050798,0.1803109744429588,-0.0120011437684297,0.097051054239273,-0.1350824534893036
0.503653076171875,-0.4855245590355247,1.558058002267778,0.1673731669366359,-0.0309263635426759,0.1050850078463554,-0.1309585571289062
0.51368115234375,-0.465585713660717,1.441121767887473,0.1101081419259309,-0.0513157919049263,0.1180580705404281,-0.1396918594837188
0.523708251953125,-0.5040015882294625,1.359545162310451,0.0219990658402442,-0.0706159844994545,0.1366802155971527,-0.1643175780773162
0.533736083984375,-0.5368038607001304,1.2817377000086008,-0.0736409902721643,-0.0899964720010757,0.1337989121675491,-0.1919872760772705
0.54376318359375,-0.523067011770606,1.1798084075588733,-0.1177338144987821,-0.1183138638734817,0.148955225944519,-0.22430419921875
0.553791259765625,-0.5617394183836877,1.050596044451371,-0.15397475618124,-0.1543292999267578,0.170827716588974,-0.256056934595108
0.563818115234375,-0.538068693004176,0.9346304086688906,-0.2370014144361019,-0.1852400749921798,0.19674614071846,-0.2719373404979706
0.57384619140625,-0.4436950035657733,0.8752126626037061,-0.3021697599172592,-0.2082000076770782,0.2240987569093704,-0.2782667875289917
0.583873291015625,-0.3934809565125033,0.8491719201572239,-0.3400380105406045,-0.2187668979167938,0.2636291086673736,-0.2831246852874756
0.59390087890625,-0.4052235994175076,0.8274184996411204,-0.3277069367557764,-0.2233065068721771,0.2967230677604675,-0.291255384683609
0.60392822265625,-0.4684152379982173,0.7129932251684368,-0.3145651311099529,-0.2125976681709289,0.3164514899253845,-0.3081685900688171
0.6139560546875,-0.4658486389132216,0.6158196758784353,-0.2470294719755649,-0.1981392502784729,0.3168319463729858,-0.3220039308071136
0.623983154296875,-0.392956859573163,0.5797915366964415,-0.1713333027392625,-0.1767173111438751,0.2953245341777801,-0.327503889799118
0.634010986328125,-0.3602653905332088,0.4997207325724884,-0.1900765816539525,-0.1497011184692382,0.2573825418949127,-0.3292730450630188
0.6440380859375,-0.3542730547832325,0.4334115830257535,-0.2780734295368194,-0.1228921487927436,0.2028060853481292,-0.3247400820255279
0.654066162109375,-0.3151275872983038,0.3896947890372946,-0.371257324668765,-0.1068359836935997,0.1482869684696197,-0.311547189950943
0.664093017578125,-0.2844378682685084,0.3247808567086234,-0.5411661475628614,-0.0963428616523742,0.1167221143841743,-0.2911034226417541
0.6741201171875,-0.2623872549041174,0.2899201538708061,-0.8154875310897827,-0.0823683217167854,0.1127719134092331,-0.262407898902893
0.684148193359375,-0.217931734844949,0.2535971964607015,-1.120115205553174,-0.0586416870355606,0.1172958314418792,-0.2152148336172104
0.694175048828125,-0.1346556958057451,0.2048454770449548,-1.4144137937039136,-0.0135026145726442,0.1152106970548629,-0.1505679935216903
0.704202880859375,-0.0841297606585547,0.2305164728635922,-1.679611375054717,0.0333426557481288,0.1128135845065116,-0.0884228646755218
0.714230224609375,-0.1179641891885548,0.1855775897342711,-1.7731290321856736,0.0652597919106483,0.0917792841792106,-0.0424906052649021
0.724258056640625,-0.1423642152233049,0.0939694194864481,-1.6950708099931475,0.0672702118754386,0.0737877711653709,-0.0140845300629735
0.734284912109375,-0.1441380290959496,-0.0218945825524628,-1.6765812135785818,0.0578819401562213,0.0441039092838764,-0.0083460807800292
0.74431298828125,-0.2182926223129034,-0.1965516594195738,-1.5966156964600084,0.0455999709665775,0.0204808730632066,-0.0271352138370275
0.754340087890625,-0.2309561794551089,-0.2078375715330243,-1.4208201536148786,0.0062879528850317,-0.0104418508708477,-0.0664079338312149
0.7643681640625,-0.2375646560757421,-0.258854861260578,-1.1292413458168509,-0.0478770174086093,-0.0615401901304721,-0.1228973120450973
0.77439501953125,-0.2144451165718957,-0.3424881071064621,-0.8296469893455505,-0.1102289259433746,-0.1274525225162506,-0.1881778240203857
0.78442333984375,-0.2407459347266703,-0.3947534241337329,-0.4927881933629512,-0.1828527897596359,-0.1741521060466766,-0.2622270286083221
0.7944501953125,-0.1309396800904534,-0.3642432446556166,-0.3674754680424928,-0.2477924525737762,-0.1182620152831077,-0.3271327316761017
0.80447802734375,-0.1063200199556537,-0.3620191753979772,-0.47000002297163,-0.2764390110969543,0.0342095419764518,-0.3708045780658722
0.814505126953125,-0.0712774851443711,-0.4550878831850364,-0.5221206708312034,-0.2507944107055664,0.2025102078914642,-0.3821652829647064
0.824533203125,0.069193153150985,-0.3826474643416702,-0.2871808651000261,-0.18804632127285,0.3422476053237915,-0.3678500056266784
0.834559814453125,0.042682701700367,-0.2941086550692096,0.083971830150485,-0.102711834013462,0.4352203011512756,-0.3725654482841491
0.844588134765625,-0.1399598026963882,-0.3578950446726754,0.7030243504703044,-0.0301337726414203,0.4353566467761993,-0.4099109470844269
0.854614990234375,-0.1771333855864592,-0.38605624987185,1.4870657729387282,-0.0026091265026479,0.3453253507614136,-0.4612844288349151
0.86464208984375,-0.2152276452517136,-0.388532174998708,2.1862264337182045,-0.0284652225673198,0.2237603068351745,-0.5224146246910095
0.874670166015625,-0.2258761362444609,-0.4552843190725892,2.5940093622297047,-0.0889180675148963,0.0880031585693359,-0.5757893919944763
0.884697509765625,-0.1613032724384218,-0.4535768575675785,2.656187878245115,-0.1464024037122726,-0.0303349383175373,-0.611221969127655
0.8947255859375,-0.0760231361683458,-0.4034446070462465,2.378798339319229,-0.166787713766098,-0.1131479144096374,-0.6266711354255676
0.90475244140625,-0.0013373130183666,-0.3239913502987474,1.930064976260066,-0.1364961266517639,-0.1647237539291381,-0.6210893988609314
0.914780517578125,0.071638052951917,-0.1976274354249239,1.4405372459977863,-0.072278156876564,-0.1945227086544037,-0.5915766954421997
0.924807373046875,0.1559090304457582,-0.0950601373326033,1.033043655821681,0.0071578118950128,-0.1954798549413681,-0.5371928215026855
0.934835693359375,0.302542611817643,0.0235338741920888,0.7220856092929839,0.0804115086793899,-0.1783773303031921,-0.4567192196846008
0.9448623046875,0.4751592323657125,0.1322286421887576,0.513374469795823,0.1326145231723785,-0.1393026262521743,-0.3488406836986542
0.954890380859375,0.609115502064675,0.2284390455350279,0.4592530035078525,0.1548938602209091,-0.1046872064471244,-0.2289134562015533
0.96491748046875,0.7045211648993194,0.2828414476562291,0.3991612306386232,0.1587631553411483,-0.0796050280332565,-0.1157493367791175
0.974945556640625,0.6974253614194691,0.2305599101465195,0.3551870643556117,0.1574126034975052,-0.073752112686634,-0.0291608311235904
0.984972412109375,0.6363964538305997,0.0969852236436679,0.2713958514690399,0.160509318113327,-0.0898053795099258,0.0227875877171754
0.99500048828125,0.6048263535033911,-0.0551049243673682,0.1521405264914035,0.1665286123752594,-0.1064918041229248,0.0468401238322258
1.005027587890625,0.5277788792559877,-0.2043569628756493,0.030619594669342,0.1600462049245834,-0.1046060174703598,0.0375624671578407
1.0150556640625,0.4476418414954096,-0.3186114838913083,-0.0135199913084506,0.1346096396446228,-0.079941339790821,0.0093504954129457
1.02508251953125,0.4199289280530065,-0.4008511199543252,0.0097404727697372,0.0925860181450843,-0.0495908893644809,-0.0246037412434816
1.035110595703125,0.420611138163507,-0.4261464143283665,0.0405085359990596,0.0464992187917232,-0.0139463422819972,-0.0585856772959232
1.0451376953125,0.3924882556807249,-0.3874174186898395,0.0698363372921943,0.0114099411293864,0.0174845494329929,-0.0855437964200973
1.055164306640625,0.3748667473375797,-0.2670154809603467,0.0861339766204357,-0.0075125149451196,0.0355335921049118,-0.1047088354825973
1.065192626953125,0.3734239281181246,-0.1397689015004783,0.1768909368664026,-0.0105043109506368,0.0493418164551258,-0.1116940379142761
1.075219482421875,0.3573211903074756,0.0126861343001946,0.3146311820834875,-0.0055104061029851,0.0557311177253723,-0.1039501577615737
1.085247314453125,0.3363417498385533,0.1817620135014876,0.5047668004482985,-0.0018213954754173,0.0522450394928455,-0.0901776179671287
1.095274658203125,0.3244814353706315,0.2783523195434361,0.6994079135388136,0.0001114173792302,0.0335676483809948,-0.0680774599313736
1.105302490234375,0.28491701182127,0.3764455409616232,0.8248053945332765,0.0075054178014397,0.0066625294275581,-0.0460690930485725
1.11532958984375,0.2138441915366798,0.4261501406554132,0.8838128792971373,0.0106075890362262,-0.0231888480484485,-0.0277928691357374
1.125357421875,0.1355542064148932,0.4578985201589763,0.8831465243428945,0.0119575457647442,-0.0470648854970932,-0.00981733109802
1.135384521484375,0.1038962634074501,0.4820385435506701,0.8986521365106105,0.0111818006262183,-0.0642183423042297,0.010077959857881
1.14541259765625,0.1131886270835064,0.4782697656016796,0.8715104470849037,0.0104398448020219,-0.075345829129219,0.0322346612811088
1.155439453125,0.0893419058162719,0.5282718504047021,0.787058724462986,0.0132135618478059,-0.0865496695041656,0.0517775751650333
1.16546728515625,0.1108683217766229,0.5673985401239245,0.7259756024688482,0.0203838571906089,-0.0987269729375839,0.0720271840691566
1.17549462890625,0.1368348756088875,0.5879197519639506,0.6727145524024963,0.0295557491481304,-0.1066707298159599,0.0890880897641182
1.1855224609375,0.1092971726029179,0.5732077378593385,0.5972007539957761,0.0393274202942848,-0.1097682490944862,0.098268799483776
1.195549560546875,0.0554645149273797,0.5169783029740675,0.5390612842381001,0.0422164648771286,-0.1117005199193954,0.0946592390537262
1.205577392578125,0.0041717869547981,0.4636417765187099,0.5013970317542553,0.0336346924304962,-0.1089619919657707,0.0841306895017623
1.2156044921875,0.0024542121936159,0.4892104079414159,0.5003203424334526,0.0189638007432222,-0.1107053384184837,0.0694934427738189
1.225632568359375,0.0459887301089707,0.5466189330760389,0.4418424345016479,0.0052285478450357,-0.082933634519577,0.0707563161849975
1.235659423828125,0.1044460336441639,0.6596949118316173,0.2824444842278957,-0.0058268755674362,-0.0782532319426536,0.0754774883389473
1.2456865234375,0.103064452225808,0.721598337232694,0.4122288020044565,-0.0187986008822917,-0.1081349700689315,0.0917006656527519
1.255714599609375,0.3197676681891083,0.8757035879258066,0.4172849163502454,-0.0253165084868669,-0.1066362559795379,0.1248451024293899
1.265741455078125,0.3054459320437163,0.9437309030346572,0.1507253989964723,-0.0264622010290622,-0.1303019076585769,0.1337800025939941
1.27576953125,0.1338559967954177,0.8334551494568586,0.2314139696925878,-0.0291388966143131,-0.1735371500253677,0.1460021287202835
1.285796630859375,0.3165732925945893,0.8665234524525701,0.0660661711037158,-0.0201270263642072,-0.18797467648983,0.1689239591360092
1.29582421875,0.233105302046705,0.8366144902706146,-0.1420943487733602,-0.0146631803363561,-0.2282778918743133,0.1754251271486282
1.3058515625,0.1375529972829856,0.7960988669436424,-0.2038625304222106,-0.021683806553483,-0.2648643851280212,0.1900522708892822
1.31587939453125,0.209514546568226,0.7888708884514868,-0.3248994781196117,-0.0380140133202075,-0.2851976454257965,0.2034342736005783
1.32590625,0.2422536541421897,0.7659332265868782,-0.5322977814525366,-0.0500557608902454,-0.2874093949794769,0.2213911712169647
1.335934326171875,0.1941031337562948,0.7558543156430125,-0.7163432662487029,-0.0557793192565441,-0.287806898355484,0.2344820201396942
1.34596142578125,0.252993312283419,0.776810302171111,-0.8707014687895774,-0.0554938279092311,-0.2808989286422729,0.2526429295539856
1.35598974609375,0.2706095964621752,0.7968080381263047,-1.004756888014078,-0.0558871664106845,-0.2661358118057251,0.266792744398117
1.366016357421875,0.2178924622804857,0.7359759682837873,-1.094083523195982,-0.0595591329038143,-0.232182115316391,0.2750586867332458
1.37604443359375,0.1833155996190384,0.6452879816208035,-1.10184538936913,-0.0720442086458206,-0.1944756358861923,0.2803731858730316
1.386071533203125,0.2269476744661107,0.6026277474805712,-1.0317822575837372,-0.0805114582180976,-0.1487097442150116,0.2829562127590179
1.396099609375,0.2794983477734029,0.6758752814557403,-1.0750357083767652,-0.0905450582504272,-0.0973108112812042,0.2758626639842987
1.406126220703125,0.1573951590839773,0.7085383646514266,-0.9529086273550986,-0.081249825656414,-0.1000514701008796,0.2757601141929626
1.416153564453125,0.3148019720731302,0.8079588891506194,-1.0690332530915736,-0.0527139268815517,-0.0993233323097229,0.2912802100181579
1.426181396484375,0.3405617421537637,0.9130573131557552,-1.0159189180195332,-0.0183181371539831,-0.1062494218349456,0.314248651266098
1.43620849609375,0.4832787528701126,0.9911444691818206,-1.081277817636728,0.0080726072192192,-0.1047344878315925,0.3391488790512085
1.446236572265625,0.5177113299563527,1.0418127262759953,-1.0466367123663425,0.0290007926523685,-0.1508197039365768,0.3719065487384796
1.456263427734375,0.6063106372443958,1.075455029767379,-1.130154369008541,0.0452771633863449,-0.2118841558694839,0.4003153145313263
1.466291748046875,0.5624948763934895,1.0474171952195466,-1.2398948466658593,0.0452231019735336,-0.2432955950498581,0.4169656634330749
1.476318359375,0.4474233399065211,0.9233817963585256,-1.3827806380778551,0.0259321425110101,-0.2658983170986175,0.4233120381832123
1.4863466796875,0.4585965488931164,0.7491247151270508,-1.5523749881953,-0.0105465063825249,-0.2351377457380294,0.4299883246421814
1.49637353515625,0.4970044228184967,0.5764979385111481,-1.7878391100615263,-0.0568412467837333,-0.1536138951778412,0.4322555065155029
1.5064013671875,0.4387633558498695,0.3467417459629476,-1.844054333758354,-0.1038796007633209,-0.0500211827456951,0.4307465553283691
1.516428466796875,0.441846270426549,0.0789241183068603,-1.7821189788490532,-0.1450661122798919,0.0640396475791931,0.4125675559043884
1.52645654296875,0.3073638944942504,-0.2679538212563842,-1.5044208123654126,-0.1910077780485153,0.2017674148082733,0.360327273607254
1.5364833984375,-0.0034695027414709,-0.610536767039448,-1.1927718609631062,-0.2173074930906295,0.3172265291213989,0.266057014465332
1.546511474609375,-0.2753354924729094,-0.8852016302417963,-0.848294406670332,-0.2286592125892639,0.4176327586174011,0.1539656072854995
1.55653857421875,-0.5143930357212201,-1.0680502334035933,-0.3106038262635469,-0.2384203821420669,0.4916453957557678,0.0379727222025394
1.566566650390625,-0.660795858810842,-1.0694082969490435,0.2146574806809425,-0.255204975605011,0.5290635824203491,-0.0651355534791946
1.576593505859375,-0.8257065811567008,-1.0407958773836492,0.8525666771620511,-0.2802701592445373,0.5018764138221741,-0.1355212777853012
1.586621337890625,-0.8568944772332906,-0.9004666385866701,1.3719073618859052,-0.3095361888408661,0.427272230386734,-0.1712521016597747
1.596648681640625,-0.9507108981151132,-0.7892308808702975,1.8255863646537065,-0.3407964706420898,0.2968884706497192,-0.1929433494806289
1.60667529296875,-1.1167464597724377,-0.7536216612201183,2.189621336853504,-0.3744164705276489,0.1342053115367889,-0.206813633441925
1.616703369140625,-1.1948781855925916,-0.7975186706136912,2.308706565961242,-0.3791240155696869,-0.0373621098697185,-0.1971972584724426
1.626730712890625,-1.1734195102393628,-0.830973123382777,2.128386823689937,-0.3554389178752899,-0.1586422026157379,-0.1751729100942611
1.636758544921875,-1.1543411541514097,-0.7678018700029701,1.8641735772013663,-0.306145429611206,-0.2166340500116348,-0.1352171450853347
1.646785400390625,-1.0440271143898368,-0.6855553292751312,1.5286854850500822,-0.2324331253767013,-0.2370200157165527,-0.0724491029977798
1.6568134765625,-0.7748935087643564,-0.5707779534291476,1.2249012756735085,-0.1405470669269561,-0.2195963710546493,0.0210333541035652
1.666840576171875,-0.554655597602576,-0.4591598453316837,0.9058218820095062,-0.0379660911858081,-0.1654354035854339,0.1173774674534797
1.67686865234375,-0.4555572907950729,-0.4470478941902518,0.7189455577015876,0.0529314279556274,-0.1108621582388877,0.1981198489665985
1.6868955078125,-0.3599306056208908,-0.5250017792254686,0.7288976273953914,0.1268719583749771,-0.0827676728367805,0.2538880407810211
1.69692333984375,-0.3341832931630313,-0.684052888822928,0.8292769869893789,0.1740474551916122,-0.0820456892251968,0.2678693830966949
1.70695068359375,-0.3860051772717386,-0.8651630508195608,0.9727098908901214,0.1879880428314209,-0.1014311090111732,0.238954097032547
1.716978271484375,-0.4177192891795188,-0.9630073389779776,1.0833861880928275,0.1706455200910568,-0.1255124062299728,0.1787379831075668
1.727005615234375,-0.4377808841511607,-1.011681353515014,1.2032342182666065,0.1228505596518516,-0.1406420916318893,0.0955845043063163
1.737033447265625,-0.4441662743393331,-1.0028383410416544,1.279977850729227,0.0643062144517898,-0.1605850905179977,0.0068597882054746
1.747060302734375,-0.3812841035665944,-0.918561463529989,1.2769424285560846,0.0124153159558773,-0.1726319044828415,-0.0755424052476883
1.75708837890625,-0.2491649496342986,-0.7423987678728997,1.174685000130534,-0.0221280455589294,-0.159773051738739,-0.1391103416681289
1.767115478515625,-0.167913849684596,-0.4996245421890169,1.0286112263321876,-0.0259374305605888,-0.1280875653028488,-0.1768569201231002
1.777142578125,-0.0578587896527722,-0.2111371245350688,0.9119172762751578,-0.0124928094446659,-0.0723892226815223,-0.1890938431024551
1.78717041015625,0.0231655888689681,0.0374812240671366,0.93912384763062,0.012831456027925,-0.0214288383722305,-0.1760797649621963
1.797197509765625,0.0917521818283945,0.2687247325636446,1.0482914938360453,0.0412084683775901,0.0101562850177288,-0.1428681761026382
1.8072255859375,0.1233394890187308,0.4464686329975724,1.1909978370279073,0.0632429271936416,0.0224848575890064,-0.1018299236893653
1.81725244140625,0.0634285891417413,0.5643087574150413,1.3168570903152226,0.081946849822998,0.0186464861035347,-0.059233222156763
1.8272802734375,0.030009280751273,0.6892440277252346,1.3816098407328128,0.0932173505425453,0.0038070864975452,-0.0247886944562196
1.8373076171875,-0.0408462069882079,0.7650904921524226,1.396102476465702,0.0999360829591751,-0.0171564146876335,0.0051405299454927
1.84733544921875,-0.1059407931134104,0.7959779439777135,1.325696230331063,0.1053958237171173,-0.0411421731114387,0.0288277491927146
1.8573623046875,-0.1277752064438536,0.8213154335256665,1.2101859371006487,0.1083621010184288,-0.0607668161392211,0.0537225864827632
1.867390380859375,-0.1404877903595566,0.8565377727501093,0.9869096811562776,0.1119179502129554,-0.0632816329598426,0.0754992589354515
1.87741748046875,-0.1983771578136831,0.8898594659850001,0.7478238616615533,0.1182640045881271,-0.0497739613056182,0.0989949479699134
1.887445068359375,-0.1563472939988598,0.9075895492691546,0.5244108275949955,0.1178560107946395,-0.0170373208820819,0.1218904107809066
1.897471923828125,-0.0930490897711366,0.9188741827409714,0.348690688073635,0.1150471419095993,0.0199689380824565,0.1432839632034301
1.9075,-0.0693006229802966,0.9267919701281936,0.1777262186467647,0.1122444346547126,0.0588795840740203,0.1557547450065612
1.91752685546875,-0.0959360068516805,0.8959341827888041,0.0418663803488016,0.1076003089547157,0.0811188444495201,0.1522003710269928
1.927554931640625,-0.1305090153219178,0.8220329341452568,0.0039829321563243,0.0953596234321594,0.0871607512235641,0.1294188946485519
1.93758203125,-0.2232900287413969,0.7067212322268634,-0.0234276373386383,0.0719789639115333,0.0875199809670448,0.0829641819000244
1.947609130859375,-0.3471606289621442,0.5794618298180401,-0.0250683902829885,0.0340233296155929,0.0877599343657493,0.0152852730825543
1.957636962890625,-0.4165622280988842,0.5249896503962576,-0.0243657949715852,-0.0159159563481807,0.0937074124813079,-0.0614682845771312
1.967663818359375,-0.4462169232588261,0.5211829515896738,-0.0137374334514141,-0.0701003670692443,0.116566926240921,-0.1366170942783355
1.977692138671875,-0.4898289782311767,0.563998814683035,-0.0039122050076723,-0.1189943477511406,0.1370843350887298,-0.1974580287933349
1.98771875,-0.4959452691543847,0.6644916445888579,-0.022402385944128,-0.1540189087390899,0.1414500623941421,-0.2407003045082092
1.9977470703125,-0.4899991106336936,0.7763218610670417,0.0040144963383674,-0.1793630123138427,0.142104834318161,-0.2651915848255157
2.00777392578125,-0.5503600193005055,0.8574565680954604,0.0164110365748405,-0.2018225044012069,0.140792965888977,-0.2855839431285858
2.017802001953125,-0.6301987682342529,0.9273121215447784,0.0451671754598617,-0.2213737964630127,0.1279482394456863,-0.2861343026161194
2.027828857421875,-0.5954389319550246,0.9917721726261078,0.05166062913239,-0.2366124093532562,0.1102235838770866,-0.2664173245429992
2.03785693359375,-0.5946617005048319,1.059654160980135,-0.0067044660747051,-0.2427376210689544,0.093286707997322,-0.232491061091423
2.04788427734375,-0.6014133301895112,1.108264535696432,-0.1241436815410852,-0.2394318282604217,0.0803908854722976,-0.1795580685138702
2.057912109375,-0.5875835788121446,1.1152003263089805,-0.2881184382110834,-0.2258651703596115,0.0786458328366279,-0.1165002062916755
2.06793896484375,-0.5723555414767936,1.072094759554043,-0.4880290161371231,-0.2052467167377472,0.0839077085256576,-0.0444065704941749
2.077967041015625,-0.5818324314069002,1.0202328356958923,-0.6254734932780266,-0.1829018294811248,0.1121326833963394,0.0157605018466711
2.087994140625,-0.5850078100400046,0.985323946334794,-0.6889075623124837,-0.1694531291723251,0.1626097112894058,0.0711001902818679
2.09802197265625,-0.5602629160903394,0.9275724529813976,-0.6791711811959743,-0.1650004386901855,0.2206837385892868,0.123060293495655
2.108049072265625,-0.5113020839685574,0.8619467921867966,-0.6079927816450595,-0.160031259059906,0.2786216139793396,0.1662698090076446
2.118076171875,-0.4712827197259291,0.8511559335812926,-0.4887281043171882,-0.1499676257371902,0.3047667145729065,0.1863358914852142
2.128104248046875,-0.4423761395195499,0.9025988283097744,-0.3481605267196893,-0.1250910460948944,0.2603073716163635,0.190779909491539
2.138131103515625,-0.3949612581981346,0.964688423932716,-0.2982973023980855,-0.0978322625160217,0.1655258685350418,0.1933805495500564
2.148158935546875,-0.2619411368381232,1.0101777440190314,-0.4791361001074314,-0.0692685320973396,0.0804059207439422,0.2069775760173797
2.158186279296875,-0.1814085238886997,0.9824201146520674,-0.7222054362803697,-0.0518851168453693,0.0173238851130008,0.2291842252016067
2.1682138671875,-0.0930397008882835,0.9184669171143324,-1.0566647699058056,-0.025966702029109,-0.0666810050606727,0.2747879326343536
2.178240966796875,0.12294864480393,0.8418363896373658,-1.556591144585609,0.022984579205513,-0.168128415942192,0.3447907865047455
2.18826904296875,0.2949105095040052,0.7360956491407007,-2.180246190264821,0.0650201812386512,-0.2106721550226211,0.4092395603656769
2.1982958984375,0.2844418320575729,0.5762849533475936,-2.785216993740201,0.0774148479104042,-0.1508663892745971,0.4653430581092834
2.208323974609375,0.207584838880971,0.2069996594041585,-3.224021667981148,0.0580818951129913,0.0112540815025568,0.4977571964263916
2.21835107421875,0.0913779051559045,-0.2927169449824839,-3.283061885970831,0.0103238578885793,0.2142335474491119,0.4871784448623657
2.22837890625,-0.087669406026788,-0.7500659414999187,-2.8562971936136483,-0.0550628714263439,0.4275543689727783,0.424693763256073
2.238406005859375,-0.2044516919543966,-1.0359251295421272,-2.350380054086447,-0.1084296107292175,0.6232617497444153,0.313654363155365
2.248433837890625,-0.3911927359774708,-1.2599541766151785,-1.5682026719242332,-0.1389449089765548,0.7128885984420776,0.1707070469856262
2.2584609375,-0.4308496966484934,-1.298918698042631,-0.5885246955871581,-0.1557087749242782,0.6864317655563354,0.0218951702117919
2.268489013671875,-0.4070793468194082,-1.1796535823233425,0.4046761946678161,-0.1686645150184631,0.5816994905471802,-0.120257444679737
2.278515869140625,-0.3602400368962437,-0.9814937205221504,1.161201249179244,-0.1819003224372863,0.4286647737026214,-0.2395232915878296
2.288543212890625,-0.2852845116931014,-0.7636685695905238,1.6389742442399262,-0.2001493722200393,0.2465823292732238,-0.3252959847450256
2.298571044921875,-0.2065359326162375,-0.5887148113317787,1.9106641102194784,-0.2221165001392364,0.0966661125421524,-0.3764787912368774
2.308597900390625,-0.1278092731102369,-0.4566819839760661,1.879229107514024,-0.239161804318428,0.0025374828837811,-0.3893961906433105
2.3186259765625,-0.0791957565887831,-0.3858955063521861,1.6384382376670836,-0.2208487838506698,-0.0459782741963863,-0.3674713671207428
2.328653076171875,-0.0044933658964931,-0.3963813906617462,1.315451899692416,-0.1600980907678604,-0.0710591301321983,-0.326180100440979
2.338680908203125,0.024982977021858,-0.4064116401582956,1.071878705650568,-0.0692803040146827,-0.0977384075522422,-0.2832949459552765
2.3487080078125,0.0119788810799829,-0.4792936287567019,0.8970879559338092,0.0200160164386034,-0.1461717188358307,-0.2529729902744293
2.35873583984375,-0.0070652804774232,-0.596132247981429,0.8386229074835777,0.0802031457424163,-0.2122368663549423,-0.240225076675415
2.36876318359375,-0.0148737988038919,-0.7153187455065548,0.7817746465802192,0.092695765197277,-0.2833065092563629,-0.2385323643684387
2.378791015625,-0.0350347624967806,-0.8884149662651121,0.6215899298429489,0.065383180975914,-0.3301240801811218,-0.2369810789823532
2.38881787109375,-0.0548306557369418,-1.0272883071653545,0.3495107722848654,0.0218506213277578,-0.3398475646972656,-0.2274477630853653
2.39884619140625,-0.0621678667572326,-1.1550127698026598,0.0042336920469999,-0.012066563591361,-0.3170279264450073,-0.2081554532051086
2.408872802734375,-0.0257881193922832,-1.2094580612175163,-0.3506009056091308,-0.02228245139122,-0.2635039687156677,-0.1867947727441787
2.418901123046875,-0.0051294923925423,-1.1509881904616952,-0.589106879389286,-0.0099870068952441,-0.1720796376466751,-0.1638229489326477
2.428927978515625,-0.0297328064640285,-1.134446659374982,-0.6468599801778793,0.0077496455051004,-0.0587160624563694,-0.1489273607730865
2.4389560546875,-0.0614340954228537,-1.149138178680837,-0.4600643198907375,0.0229343548417091,0.0541553646326065,-0.1361035853624344
2.44898291015625,-0.1227132651454769,-1.1704884252235292,-0.1019178212076425,0.0361699983477592,0.1426956057548523,-0.1277508437633514
2.459010986328125,-0.1988545660670846,-1.163333731163293,0.4087456360638141,0.034208033233881,0.1828985512256622,-0.1372100561857223
2.4690380859375,-0.2693998918788507,-1.095931489150226,0.972268576863408,0.0251729935407638,0.1605961769819259,-0.1561315506696701
2.47906494140625,-0.2624932177629321,-0.980913801742345,1.465448984414339,0.0079946927726268,0.0897611007094383,-0.17701455950737
2.489093017578125,-0.2252184395207092,-0.829802764429152,1.8071657418221236,-0.0090031996369361,-0.0051992312073707,-0.1906888335943222
2.499119873046875,-0.2063447026267647,-0.6885618176147341,1.960956958130002,-0.0241869930177927,-0.1019005849957466,-0.1922031790018081
2.509148193359375,-0.1590265596780926,-0.5427602848865092,1.9670897617965932,-0.0318616889417171,-0.1663597375154495,-0.178364872932434
2.5191748046875,-0.119582383241225,-0.4054768435262143,1.8663281248867511,-0.0304522290825843,-0.1903714537620544,-0.1515326499938964
2.529203125,-0.0865211219076532,-0.265505916647613,1.7098475233644246,-0.0100050112232565,-0.1896057873964309,-0.1134923249483108
2.53922998046875,-0.0309383280625799,-0.1086225795432925,1.5364748237520456,0.023512041196227,-0.1736228317022323,-0.0647158697247505
2.5492578125,0.0165025644829263,0.04650850706622,1.442860135987401,0.0628277584910392,-0.1444580107927322,-0.0141962384805083
2.559284912109375,0.0120275242609903,0.1612847869336605,1.4127052362203598,0.0950191542506218,-0.1289330720901489,0.0331522151827812
2.56931298828125,-0.0006741775010945,0.2359269170723855,1.4643909997940063,0.111837550997734,-0.1351896375417709,0.0758221745491027
2.57934033203125,0.0241094912561122,0.2810188353389501,1.5293202758222817,0.1133881956338882,-0.1471635997295379,0.1117217764258384
2.589367919921875,-0.0288430591166485,0.3110056850627064,1.5366969420701264,0.1058104336261749,-0.1605196148157119,0.1285641342401504
2.59939501953125,-0.0172304540657904,0.3604590134091675,1.4992887101739645,0.0906455665826797,-0.1790399998426437,0.1411104053258896
2.609423095703125,0.064407864236366,0.4359579795729368,1.406257375255227,0.0723493844270706,-0.1982504427433014,0.1521947532892227
2.619449951171875,0.1355950407487806,0.5122156551495194,1.302811029306054,0.0613938011229038,-0.2128965705633163,0.1680163592100143
2.62947802734375,0.146383095475845,0.582819396617636,1.1662748991817236,0.0570006519556045,-0.2361845821142196,0.1878382712602615
2.639505126953125,0.2256095759964548,0.6384757443226874,1.0270634123682976,0.0576766245067119,-0.2784875631332397,0.2120237648487091
2.64953173828125,0.3093104254521429,0.7405933989513666,0.8284767765223979,0.0573370680212974,-0.3109517693519592,0.2347714304924011
2.65956005859375,0.3161798728302121,0.7789110738426447,0.5449176090508699,0.058930866420269,-0.3271851241588592,0.2573852837085724
2.669587158203125,0.3458873941559344,0.7891166799061,0.2156400619775056,0.0633511841297149,-0.3275896608829498,0.2848829627037048
2.679614990234375,0.4298354050394147,0.7802035978712141,-0.0697024817794561,0.0636214092373848,-0.3176982700824737,0.3198775053024292
2.68964208984375,0.4968890162779018,0.7586252416610717,-0.3375666519910097,0.0656701773405075,-0.2936826944351196,0.3555859625339508
2.699669921875,0.5207537663921713,0.729377154540643,-0.5837181720882654,0.0656024441123008,-0.2723191976547241,0.3803283870220184
2.709697021484375,0.5137915261641145,0.6579536941874772,-0.7899135293722153,0.0664139091968536,-0.2550973296165466,0.3975284397602081
2.71972509765625,0.4752456685401499,0.5569983613364398,-1.0104355181723832,0.0707348436117172,-0.2376620024442672,0.4033846259117126
2.729751953125,0.426271721208468,0.4625283719167113,-1.1660562879949807,0.0529670305550098,-0.2171753644943237,0.3922744393348694
2.739780029296875,0.3716141022171825,0.367392685129866,-1.1920704346954822,0.0131818009540438,-0.1845521777868271,0.3706892728805542
2.74980712890625,0.3125175874629989,0.2204852369863539,-1.241169104385376,-0.0261861123144626,-0.1408947110176086,0.340704470872879
2.759834716796875,0.2890300731632858,0.1194971709094941,-1.262821548745036,-0.0593527145683765,-0.0912915021181106,0.31366166472435
2.769862060546875,0.247841519010812,0.0877365895114839,-1.2152829679787158,-0.0759948119521141,-0.0469975396990776,0.282461941242218
2.779889892578125,0.1752302005799487,0.0732534522593021,-1.0673363860458136,-0.0871236249804496,-0.0138810276985168,0.2424676120281219
2.789916748046875,0.1463608836440369,0.0662647624157369,-0.8664432268232106,-0.098831683397293,0.0188494883477687,0.2006818056106567
2.79994482421875,0.2059842352839186,0.1370202603794634,-0.8659919759243726,-0.1040911599993705,0.0608106814324855,0.1662730127573013
2.809971923828125,0.0551496037593111,0.1075118418224155,-0.7300146487265825,-0.1077615320682525,0.0274878777563571,0.1247095987200737
2.819999267578125,0.098651220627129,0.1673447445597499,-0.6911427740186452,-0.1023883670568466,0.0157814584672451,0.1061301752924919
2.83002685546875,0.1716503327991813,0.2635593126244843,-0.9011644115924836,-0.0758406445384025,-0.0230679363012313,0.1055509373545646
2.840053955078125,0.3144382898598909,0.3630088440224528,-1.1259165853083133,-0.0182601977139711,-0.0438530370593071,0.1426307559013366
2.85008203125,0.5119616438558325,0.6234143687911331,-1.3994570475906132,0.0699189305305481,-0.1039166375994682,0.2171835601329803
2.86010888671875,0.689926237835735,0.7949493315823376,-1.6816835051536558,0.1829622238874435,-0.2123714834451675,0.3164657950401306
2.870136962890625,0.7244109104353934,0.8905835424758494,-1.9271271692425007,0.2701626420021057,-0.316216379404068,0.4174097180366516
2.880163818359375,0.6459435959853231,0.8632202461887151,-2.102846724241972,0.3022838830947876,-0.3427398800849914,0.5030317306518555
2.89019189453125,0.4633399805605411,0.6191106802478432,-2.269583346840739,0.2780701518058777,-0.2592841386795044,0.5655315518379211
2.90021875,0.2272816556608304,0.2362501576773822,-2.362628125762939,0.2259260416030883,-0.093999333679676,0.6040580868721008
2.910246826171875,0.0512439380902796,-0.167311499877274,-2.275502800017595,0.1795194000005722,0.1011001169681549,0.6173645257949829
2.92027392578125,-0.1403885312361642,-0.5344859391465783,-2.040899678894877,0.1620135754346847,0.2706266939640045,0.5906487107276917
2.930302001953125,-0.4412936049798503,-0.8414031127866357,-1.4915262594789265,0.1483134776353836,0.364657312631607,0.5121120810508728
2.940328857421875,-0.6743309746231884,-1.0839181030124423,-0.6931938613295555,0.1133115589618682,0.3712843656539917,0.3963439166545868
2.95035693359375,-0.7998987706832588,-1.219072788715735,0.1291097795158624,0.0371121317148208,0.3030834794044494,0.2646242380142212
2.9603837890625,-0.8763898896895348,-1.2720052644148467,0.8395224866718053,-0.0779177546501159,0.2050061225891113,0.120136983692646
2.970411865234375,-1.0413009042963386,-1.3003940312922,1.3435609728455542,-0.2139232456684112,0.1677162796258926,-0.0207913741469383
2.980438720703125,-1.193277837723866,-1.255751171967387,1.579117449170351,-0.3254961669445038,0.1539606004953384,-0.1331562995910644
2.990467041015625,-1.220771701588109,-1.089876207699254,1.681808008316159,-0.3931950628757477,0.12981878221035,-0.1978668570518493
3.00049365234375,-1.2306260830610989,-0.8406509792450815,1.751311168131232,-0.4098057448863983,0.1096425130963325,-0.2269588857889175
3.010520751953125,-1.322164549073577,-0.6513599219456314,1.7584481804043053,-0.3769727051258087,0.0771570056676864,-0.2273570299148559
3.020549072265625,-1.3215392567820847,-0.416953784699738,1.7719184873521328,-0.3109293282032013,0.0125715062022209,-0.1854774206876754
3.030575927734375,-1.1466624362170696,-0.152121967921406,1.728144227555394,-0.2249941974878311,-0.0697156488895416,-0.0841073840856552
3.040603759765625,-0.904378039876744,0.1106764433331787,1.5946914503991605,-0.134752407670021,-0.1490720212459564,0.0637586563825607
3.050630859375,-0.7205432021565735,0.2654230606697499,1.3809499155193568,-0.0414648056030273,-0.2106024920940399,0.2345397174358368
3.060658935546875,-0.5307388615727424,0.3553146362580359,1.085569377350807,0.0424644239246845,-0.254891574382782,0.4174198806285858
3.070685791015625,-0.3889621273811906,0.3137254654154181,0.813659146618843,0.1125428453087806,-0.2696824967861175,0.5732086300849915
3.0807138671875,-0.4461810116952285,0.0828337660312652,0.484213257241249,0.1748664528131485,-0.2535937130451202,0.6735678315162659
3.090740966796875,-0.575615200859867,-0.2824916843704879,0.1858767918765544,0.2171673029661178,-0.2025734037160873,0.7151443362236023
3.10076904296875,-0.6454192798502743,-0.6065741470187902,-0.0773532887935638,0.2563368678092956,-0.1351630836725235,0.7109395265579224
3.1107958984375,-0.719446492961049,-0.8695765564128756,-0.2023760912567377,0.2649596631526947,-0.0570211485028266,0.6569335460662842
3.120823974609375,-0.8267313941597938,-1.0658817302580923,-0.1003226609706878,0.2350198775529861,0.0044491761364042,0.5561012029647827
3.13085107421875,-0.898836333971098,-1.2135219496555625,0.122651981678605,0.1713295727968216,0.0462389662861824,0.4211689233779907
3.140878662109375,-0.9115300305232406,-1.2285519071355462,0.3882259951263666,0.0881051793694496,0.0710761025547981,0.2746833860874176
3.150906005859375,-0.8392341712497174,-1.0810969081118702,0.6474491782426833,0.0071978149935603,0.066990278661251,0.1350642293691635
3.160933837890625,-0.6726980396591127,-0.8018061386745423,0.835757581180334,-0.0485200881958007,0.0505073331296443,0.0278692599385976
3.1709609375,-0.5065222292808815,-0.4299029173176735,0.9319687151789664,-0.0774281695485115,0.0552786514163017,-0.04140355437994
3.18098779296875,-0.3803201173726469,-0.043670799422264,1.028938558590412,-0.0753167793154716,0.0613215900957584,-0.0757318213582038
3.191015869140625,-0.3194692697644233,0.2817722840547561,1.1386591625034808,-0.0486979559063911,0.0649051368236541,-0.0765872299671173
3.20104296875,-0.2633416878184303,0.5659230607438832,1.254748132404685,-0.0114343650639057,0.0578316301107406,-0.0635933130979538
3.21107080078125,-0.2830321113901212,0.7535954308003187,1.3812602966427805,0.0219110753387212,0.0469989590346813,-0.0496790967881679
3.221097900390625,-0.3264153991078958,0.8590652454011142,1.457684780153632,0.046810507774353,0.0493200123310089,-0.0302255544811487
3.2311259765625,-0.347205271821469,0.9302253786429764,1.4679343714892863,0.0640113353729248,0.0492656826972961,-0.0134274009615182
3.241153076171875,-0.377638732801564,0.9751108145520092,1.496137552666664,0.0744329541921615,0.0427806936204433,0.0030202486086636
3.2511806640625,-0.4219572555428371,1.0153069966662676,1.4769634811192751,0.0824903473258018,0.0210756659507751,0.0151554746553301
3.2612080078125,-0.4452946207821369,1.0558760306809096,1.4137871862381697,0.0847898349165916,-0.0026101786643266,0.0215716641396284
3.27123583984375,-0.4816107831252738,1.089011480628699,1.3180676351487637,0.0838255062699318,-0.0244033597409725,0.0177244618535041
3.2812626953125,-0.5510613725028932,1.087158692368865,1.1879741052925583,0.0778464898467063,-0.0445340797305107,0.0109646376222372
3.291290771484375,-0.58698378628809,1.073184235291183,1.0108692334145306,0.0633519664406776,-0.0497413575649261,0.0092426380142569
3.30131787109375,-0.6019908743491396,1.0503156200747936,0.7798772885262966,0.0485093966126441,-0.0410451479256153,0.0097682513296604
3.311345947265625,-0.6445877974621951,1.0640847638387232,0.5860346323370933,0.034519013017416,-0.0151144815608859,0.0112297944724559
3.321372802734375,-0.648104427281022,1.0826840311728416,0.3886918590724468,0.0248323082923889,0.0146299805492162,0.015771746635437
3.331400634765625,-0.6005843320194632,1.0865244130533187,0.2249959193438291,0.0134611437097191,0.0496931597590446,0.0203270837664604
3.341427978515625,-0.6567712794698775,1.0523167307641357,0.1067810433298349,0.0009736618958413,0.0880094692111015,0.0124113271012902
3.351454833984375,-0.7479927884876728,0.95090379033871,0.0502706360787153,-0.0191624984145164,0.1106745675206184,-0.0083376271650195
3.36148291015625,-0.8064172126665711,0.8926072303231805,0.0917839652061462,-0.0547035261988639,0.1204040795564651,-0.0427062101662159
3.371510009765625,-0.8870971616648137,0.8159862743921578,0.1960983261615037,-0.1059528738260269,0.1204442977905273,-0.0865959003567695
3.381537841796875,-0.924796631592512,0.7184032675184309,0.2236275536000728,-0.154277816414833,0.1104462221264839,-0.1348509043455124
3.39156494140625,-0.9640848320163786,0.6781348969507962,0.1918979518622159,-0.1980543136596679,0.1074293926358223,-0.1753157824277877
3.4015927734375,-0.980745678633824,0.7127036676373333,0.1421814425349235,-0.2261635959148407,0.1009086817502975,-0.2030153274536132
3.411619873046875,-0.9867701996203512,0.7635191511824727,0.0743155285328626,-0.2402368038892746,0.0816862508654594,-0.2195500880479812
3.421647705078125,-0.9853373172730208,0.8414401568613946,0.0307563727915287,-0.246873527765274,0.0643918737769126,-0.2203623205423355
3.4316748046875,-0.9360627795595676,0.9202673175998032,-0.034209728115797,-0.2491923570632934,0.0454008691012859,-0.2049402147531509
3.441702880859375,-0.898565992597118,0.947658159480989,-0.1176601647406816,-0.2427462041378021,0.0224713534116745,-0.174984872341156
3.451729736328125,-0.8605833948791026,0.9232593390226363,-0.2692804667502641,-0.2228507995605468,0.0078785642981529,-0.1383277922868728
3.4617578125,-0.838063300839439,0.9547966330587864,-0.4114899663358926,-0.2144392132759094,0.0149765387177467,-0.0897916108369827
3.471784912109375,-0.8155076970949768,0.9323653132811188,-0.4741448676913976,-0.2047769874334335,0.0206658504903316,-0.0395598672330379
3.48181298828125,-0.7584487891156226,0.8217344626553356,-0.6053478200942277,-0.1985589861869812,0.0579096637666225,0.0020133925136178
3.491839599609375,-0.7726273173980415,0.8186176458090543,-0.6788853499919175,-0.2050743997097015,0.1246809661388397,0.0365543253719806
3.501867919921875,-0.7711120905295014,0.7779118336722254,-0.7007973220705985,-0.2119613289833068,0.2032398283481598,0.0582387782633304
3.511894775390625,-0.7479722571562976,0.7314519880533218,-0.6445435199290513,-0.2061204761266708,0.265496015548706,0.0617770552635192
3.521923095703125,-0.7351485044836997,0.7463960208155215,-0.4932546418309211,-0.1820293217897415,0.2719041109085083,0.0533529333770275
3.53194970703125,-0.633408377930522,0.7620325658865272,-0.3223006937980651,-0.1358575671911239,0.215231254696846,0.0551939792931079
3.541976806640625,-0.3960333078764378,0.8135743909448385,-0.2705979790896177,-0.0795701965689659,0.1220844686031341,0.0684810578823089
3.552005126953125,-0.1983758974383585,0.842720552060753,-0.2905067946523428,-0.0326186642050743,0.0406540520489215,0.0907773077487945
3.56203173828125,0.012360309012467,0.8657286488130688,-0.4318973790705204,0.0181186161935329,-0.0599356368184089,0.1328025013208389
3.572059814453125,0.3037841363113373,0.859094617626071,-0.7786340104669333,0.079409934580326,-0.1993363946676254,0.2114882618188858
3.5820869140625,0.5105352643145248,0.7426315537154674,-1.3616460801124572,0.1403890550136566,-0.3117712736129761,0.3015606105327606
3.592114990234375,0.517235967529565,0.4464221635073423,-2.059692057648301,0.1900351792573928,-0.3342736363410949,0.3720747232437134
3.602141845703125,0.432870096560195,-0.0465789419539272,-2.7650305302798746,0.2113146781921386,-0.2344616055488586,0.4038980305194855
3.612169921875,0.3311438158692792,-0.5277345651902258,-3.1792484602749345,0.1921654790639877,-0.0250053107738494,0.3909766674041748
3.62219677734375,0.1460617363006807,-1.0261270083010197,-3.052270432090759,0.1354404687881469,0.1631284952163696,0.3276933431625366
3.632224853515625,0.1725747176351025,-1.3865167558662592,-2.560729608440399,0.057056974619627,0.3563482761383056,0.230057880282402
3.642251953125,0.0556582930669654,-1.6424217543452977,-2.007095024448633,-0.0266537759453058,0.506791353225708,0.0770720541477203
3.652280029296875,-0.1951447152310982,-1.8979703406021,-1.22437637501657,-0.0995040163397789,0.564399242401123,-0.1035733520984649
3.66230712890625,-0.2184502422937191,-1.9065616433367127,-0.313542802324891,-0.1510415524244308,0.5365282297134399,-0.2756106853485107
3.672334716796875,-0.226390497241076,-1.7498532244078815,0.5190343952536582,-0.1852583736181259,0.4477560520172119,-0.423352986574173
3.682362060546875,-0.194572797094658,-1.4739341964259742,1.1419202101260424,-0.2008530795574188,0.3010631799697876,-0.522258996963501
3.692389892578125,-0.0606033117210958,-1.1420886985607444,1.514114523383975,-0.1937546879053115,0.1575875133275985,-0.5685763955116272
3.702416748046875,-0.013303151953686,-0.8571285782501101,1.5840665960103273,-0.1639961749315261,0.0615875571966171,-0.5682510137557983
3.71244384765625,0.0083306790370494,-0.6579635579943657,1.5839730725079777,-0.1216878667473793,-0.0021813004277646,-0.5332344174385071
3.722471923828125,0.0656087507589953,-0.5314546086266636,1.5095271955937146,-0.0655293315649032,-0.0379341170191764,-0.4659642875194549
3.732498779296875,0.1045510557880625,-0.4851483461342751,1.3879209235757588,0.0104000549763441,-0.0584590956568717,-0.3816904425621032
3.74252685546875,0.0875219421138055,-0.4851880936227739,1.2874492095232009,0.0969777032732963,-0.071687638759613,-0.2909374535083771
3.752553955078125,0.0395505183215951,-0.5013669288769365,1.1673358064115047,0.1831818372011184,-0.0915604084730148,-0.208497941493988
3.76258203125,0.0599529580535832,-0.5445535980440676,1.1234896504223346,0.2530791461467743,-0.1384401321411132,-0.1350159794092178
3.77260888671875,0.1635970641977153,-0.602358721280843,1.0832599313646554,0.2963674962520599,-0.1988768577575683,-0.0663665980100631
3.78263671875,0.3102984501088038,-0.6751264358498156,0.978518284907937,0.3095235228538513,-0.2452130615711212,-0.0063826953992247
3.7926640625,0.3611625220360234,-0.8456170041546225,0.7691308535844087,0.3096404373645782,-0.2760401964187622,0.0359546430408954
3.80269189453125,0.373778952100873,-1.0768993102915585,0.4720107782721519,0.309068500995636,-0.2735927999019623,0.0646117404103279
3.81271875,0.3992330537658184,-1.2134879012554882,0.1420358965843915,0.3186798393726349,-0.2302040308713913,0.0819172263145446
3.822746826171875,0.3353328285243362,-1.3460080737367273,-0.114071200338006,0.3357378840446472,-0.1531958878040313,0.0674271285533905
3.83277392578125,0.2776492858406156,-1.4564794960170984,-0.2021247468441724,0.349453717470169,-0.0630156546831131,0.0273564122617244
3.8428017578125,0.2729576574256643,-1.459458511827886,-0.1305833591997623,0.3494243025779724,0.0301422141492366,-0.0332547202706337
3.852828857421875,0.2757516355257481,-1.3818110623933375,0.1094733511537313,0.3327896893024444,0.1073214262723922,-0.1019557490944862
3.862856689453125,0.2776018299696967,-1.2778032831691204,0.46043256868124,0.3114607632160187,0.1461437940597534,-0.1733626276254654
3.8728837890625,0.2507880025251768,-1.0701064352810383,0.8360118482023478,0.2876678109169006,0.1433487981557846,-0.238899290561676
3.88291162109375,0.2772037705628201,-0.8126329453762621,1.1892068619579077,0.2650738060474396,0.1049502119421958,-0.2923431694507599
3.89293994140625,0.2713453633908182,-0.5236993183247745,1.4324299273878336,0.2550949454307556,0.0428255908191204,-0.3319355845451355
3.902967041015625,0.2645994327945634,-0.2086864434473216,1.578171692752838,0.2480002343654632,-0.0324642136693,-0.3489871025085449
3.9129951171875,0.2879512101517059,0.0945194545846432,1.5490110647201538,0.2517763078212738,-0.0997713506221771,-0.343564361333847
3.92302197265625,0.3064471815081313,0.396235406319797,1.4642103825300932,0.2488431930541992,-0.1333830654621124,-0.3108413219451904
3.9330498046875,0.3298638590613379,0.6114193220276385,1.3324094642341135,0.2380544543266296,-0.1318115442991256,-0.2646573185920715
3.9430771484375,0.329721783709526,0.7248527359187602,1.1735106956541537,0.2287348955869674,-0.1086256057024002,-0.2052884846925735
3.953104736328125,0.3064880249751731,0.8037250509731471,1.004387470179796,0.2334417700767517,-0.0728857144713401,-0.1509450823068618
3.9631318359375,0.2192536128321662,0.8693205358251929,0.8600053027302026,0.2434816658496856,-0.0483228415250778,-0.1061900034546852
3.973159912109375,0.1695853813597001,0.962217357644066,0.8159247534632682,0.2476804107427597,-0.0430907942354679,-0.0719119310379028
3.991333740234375,0.1946505202396772,1.041212056969106,0.8333283082067966,0.2302697449922561,-0.0838239639997482,-0.017851959913969
4.00136083984375,0.2170610346913337,1.1119960503749549,0.8186655766040086,0.2009883821010589,-0.1114939823746681,0.0126099651679396
4.011388916015625,0.2291781734645366,1.1550268713932483,0.7514005511045455,0.1638388782739639,-0.122297890484333,0.04331861063838
4.021415771484375,0.2396292604553513,1.1899741930685936,0.6302075360625982,0.1217075735330581,-0.112801969051361,0.0791012868285179
4.03144384765625,0.2665463656112551,1.213663842344284,0.4573924703329801,0.0887517556548118,-0.0943284183740615,0.1162619739770889
4.041470947265625,0.2978177204539068,1.2445263058587908,0.2786976989150047,0.0685199424624443,-0.0853706151247024,0.148584097623825
4.051498779296875,0.3089131697628647,1.250902270631492,0.1484837575495243,0.0519888997077941,-0.089579738676548,0.1717424243688583
4.06152587890625,0.3140121368696913,1.2205472451824697,0.074063015076518,0.0338976979255676,-0.110339269042015,0.183489978313446
4.0715537109375,0.25827364557283,1.133956830031425,0.0387596465051174,0.001770386705175,-0.1227357536554336,0.182691290974617
4.081580810546875,0.1987772082482464,0.9964692444011568,-0.0623778379797935,-0.0348001755774021,-0.11915323138237,0.1781206279993057
4.09160888671875,0.1989195393283851,0.8937908140845596,-0.1494359437078237,-0.0714612454175949,-0.1124322116374969,0.1739298701286316
4.1016357421875,0.2365045342972501,0.8169586996208876,-0.273258722731471,-0.0986799299716949,-0.1095946207642555,0.1807919144630432
4.1116640625,0.2825667954333126,0.7822831806242465,-0.4110410535246133,-0.1139915063977241,-0.1145755276083946,0.1923119574785232
4.12169091796875,0.3493556547883897,0.7496382906723768,-0.4984007725477218,-0.1281803697347641,-0.122601680457592,0.1930281668901443
4.13171875,0.3597461889646947,0.6428012063063681,-0.5664712692111731,-0.1421113759279251,-0.121795542538166,0.1880408674478531
4.141745849609375,0.2986067702060565,0.5295799007959664,-0.6198556533962488,-0.1581930369138717,-0.1160580664873123,0.1795543134212494
4.15177392578125,0.2382639086525887,0.382127166794613,-0.6488742426097392,-0.1758750975131988,-0.1099596917629242,0.1642107814550399
4.16180078125,0.1858358022790402,0.2426449732810258,-0.6376654508531093,-0.1956064850091934,-0.1018135026097297,0.1463767290115356
4.171827880859375,0.1040579019762575,0.1314399029638618,-0.6126233640551567,-0.2180697172880172,-0.1153721883893013,0.1225275918841362
4.181855712890625,0.0641538712089881,0.0540315960474312,-0.5219570047020912,-0.2493813633918762,-0.1294907927513122,0.1056506782770156
4.191883056640625,0.0028544395830482,0.0327076529897749,-0.411129316329956,-0.2655150592327118,-0.1386741697788238,0.0812934041023254
4.201910888671875,-0.0611057722173631,-0.0621977321725338,-0.4429039262533187,-0.2676021158695221,-0.1047292053699493,0.0720106735825538
4.211937744140625,0.0249702271381393,0.0432341615706682,-0.6741600750356912,-0.2438184916973114,-0.1071327105164527,0.0710743069648742
4.221966064453125,-0.0253528332475572,0.166982267922908,-0.9431009345680474,-0.2025395482778549,-0.1276866197586059,0.0980552732944488
4.23199267578125,0.036878691596724,0.1327480629529804,-1.0379191529035567,-0.1516236513853073,-0.1275638341903686,0.1530974954366684
4.24202099609375,0.2807830903543159,0.2670765269652009,-1.2345178298026322,-0.0946696400642395,-0.1789130866527557,0.2126546800136566
4.2520478515625,0.3787888161521405,0.3427696274615824,-1.3037503559827803,-0.0199029892683029,-0.2766758501529693,0.2769732177257538
4.262075927734375,0.5193672439372167,0.4089223078049719,-1.4967483780413866,0.046021144837141,-0.3508497476577759,0.325505644083023
4.272102783203125,0.5037579156666994,0.3941503436740488,-1.8083102356821297,0.0836968868970871,-0.3666923642158508,0.3554758131504059
4.282130859375,0.3712681017911061,0.2327300207272171,-2.085003609037399,0.0810012593865394,-0.3142457604408264,0.3712653219699859
4.292157958984375,0.2302364503458142,-0.0483530389543622,-2.25033445649147,0.0466898903250694,-0.1984176933765411,0.3661669790744781
4.30218603515625,0.0468513656871393,-0.3418025359950959,-2.2650749295055865,-0.0140057634562253,-0.0484459586441516,0.3476897776126861
4.312212890625,-0.1049932831302285,-0.5688887056164443,-2.035954623708129,-0.0711694583296775,0.1065289750695228,0.3120995461940765
4.322240966796875,-0.173031667622365,-0.6437141564328223,-1.7744494671344757,-0.1018999218940734,0.2165981084108352,0.2612525522708893
4.33226806640625,-0.3147849844057113,-0.7650219569608568,-1.4043658624202011,-0.1167315989732742,0.2874594926834106,0.1960402578115463
4.342294677734375,-0.4958346118541434,-0.903910495430231,-0.9561714285433291,-0.1412873715162277,0.2776963710784912,0.1223451122641563
4.352322998046875,-0.6216061503253877,-0.8704390184611082,-0.3811941967934369,-0.1838199198246002,0.2570664584636688,0.0337105840444564
4.371750732421875,-0.7954130766365677,-0.6822521230112761,0.6686912882357835,-0.306827574968338,0.2334088534116745,-0.1148432269692421
4.38177880859375,-0.8780097459763287,-0.6322792277701199,0.9919248789697884,-0.3509241938591003,0.2066769897937774,-0.1436770856380462
4.391805908203125,-0.9179562641784548,-0.6388760687518864,1.178987665760517,-0.3606018722057342,0.166550874710083,-0.1428088843822479
4.401833984375,-0.9729365392528474,-0.6064030282355845,1.251523325139284,-0.3329114019870758,0.1196916475892067,-0.1236078366637229
4.41186083984375,-1.0265356621671466,-0.4976847332328558,1.2420470562636852,-0.2698394954204559,0.0719102770090103,-0.0919023752212524
4.421888916015625,-1.0131732725732028,-0.3882622354835272,1.1889894198149442,-0.1861521005630493,0.0242860689759254,-0.0380219742655754
4.431916015625,-0.8920400248944759,-0.2497143271453678,1.1614981862992046,-0.102524846792221,-0.0325183570384979,0.0323552526533603
4.44194384765625,-0.7372915078617632,-0.1250190030708909,1.1692682357788085,-0.0335249751806259,-0.0755643993616104,0.1092616245150566
4.451970947265625,-0.6242078572563826,-0.0257886673815548,1.168200314286351,0.0079630818217992,-0.1015818864107132,0.1754696816205978
4.461998779296875,-0.5817031059388071,-0.0401323961630463,1.1406716713696718,0.0284492131322622,-0.1091604754328727,0.2239151298999786
4.47202587890625,-0.5845028561925515,-0.164490743368119,1.0629168160378932,0.0410145409405231,-0.1096478328108787,0.2472065985202789
4.482052734375,-0.5581542899059131,-0.3648063949637115,0.9284867182821036,0.055507443845272,-0.0949520617723465,0.237490639090538
4.492080810546875,-0.5919791834225878,-0.5372678249500692,0.7723819643348455,0.0767964869737625,-0.0611711964011192,0.1984681487083435
4.502108154296875,-0.6676498163588345,-0.6585904577210545,0.6538648905038833,0.0870988667011261,-0.03115975856781,0.1293050348758697
4.512135986328125,-0.7451895676352083,-0.702979488415271,0.6712842273384332,0.0688365027308464,-0.0041105663403868,0.0499883741140365
4.522162841796875,-0.747936382125318,-0.6853017929054797,0.8323504030853509,0.0258926171809434,0.021311854943633,-0.0284885298460721
4.53219091796875,-0.7263936817504465,-0.642803252132982,1.0220622430801392,-0.0279634241014719,0.0453530065715312,-0.0943200141191482
4.542218017578125,-0.6585640081055462,-0.537640019263327,1.2053186233252289,-0.0757558196783065,0.0549345277249813,-0.1373317986726761
4.552245849609375,-0.5713153482414781,-0.3396395127423107,1.3321464293837546,-0.0991876423358917,0.0510694831609725,-0.1557081341743469
4.56227294921875,-0.480390228354372,-0.0963053881533443,1.3787567893892525,-0.0967701897025108,0.0418043434619903,-0.1583615690469741
4.57230078125,-0.4408906502021476,0.116051852761209,1.3883639911681414,-0.0789395272731781,0.037216518074274,-0.1426252126693725
4.582327880859375,-0.4094708450658246,0.2984963321015239,1.3940613260269163,-0.0530451834201812,0.0363934896886348,-0.1205663383007049
4.592355712890625,-0.4234434389799833,0.4009181573085487,1.4017559721827506,-0.0264631081372499,0.0438034683465957,-0.0999401584267616
4.6023828125,-0.5114028774619103,0.4403599408589303,1.3999176508396862,-0.0067345220595598,0.0514224655926227,-0.0856571942567825
4.612410888671875,-0.5710123101742938,0.4329869278728961,1.4177894076168536,0.0070952735841274,0.0581394881010055,-0.0803742855787277
4.622437744140625,-0.6148769882008432,0.4424072287775575,1.453587281706929,0.0120620457455515,0.0595883280038833,-0.0803792476654052
4.6324658203125,-0.6501892707310617,0.4667861754916608,1.440051508307457,0.0187337975949049,0.0515447817742824,-0.0828543901443481
4.642492919921875,-0.6593448562849312,0.472860965360701,1.4193991809010504,0.0285776406526565,0.0347365066409111,-0.0857993140816688
4.65252099609375,-0.6338078986421227,0.5436895285606383,1.341857091537118,0.0438452735543251,0.0198438428342342,-0.083795815706253
4.6625478515625,-0.5921398904096334,0.6461290355548263,1.2293021409809588,0.0651514455676078,-0.0081360479816794,-0.0795973911881446
4.672574951171875,-0.5743008303256705,0.6661024407863616,1.085459487235546,0.0720170736312866,-0.0228055380284786,-0.0818315148353576
4.682602783203125,-0.5744389236221089,0.7025592171765863,0.9540969603568314,0.0578458830714225,-0.0246389359235763,-0.0905100554227829
4.6926298828125,-0.5830312127374112,0.6904463161870836,0.8432470601528882,0.0271316450089216,-0.0150491567328572,-0.1018732339143753
4.70265771484375,-0.592013560616225,0.6367993355430662,0.6696399672627449,-0.0035868750419467,0.0091129802167415,-0.1133761256933212
4.712684814453125,-0.615085516384989,0.6021595454469323,0.4765039980381726,-0.0283050034195184,0.052710261195898,-0.1396601945161819
4.722712646484375,-0.6715833564154803,0.563393030809611,0.2649205179750919,-0.054974190890789,0.0901855379343032,-0.1733333617448806
4.73273974609375,-0.6854077374979853,0.537305526611954,0.171933022198081,-0.0741106048226356,0.1071951538324356,-0.2123681157827377
4.742767822265625,-0.6587845189884305,0.5056875685550272,0.1019400330394506,-0.0884522572159767,0.1062880754470825,-0.2508888840675354
4.752794921875,-0.7055934703059494,0.5122913507342338,0.0030301614761352,-0.1000045165419578,0.1026661768555641,-0.2874698042869568
4.76282275390625,-0.7522128904007375,0.5270801929347216,-0.070668696463108,-0.1181793361902237,0.0892962366342544,-0.3190172910690307
4.772849853515625,-0.7686715655095875,0.5404387100711464,-0.1223071137636899,-0.1482482850551605,0.0785844698548317,-0.34223073720932
4.7828779296875,-0.7679785417441278,0.5913683945804834,-0.1759311519235372,-0.1819655150175094,0.0735244154930114,-0.3516577780246734
4.79290478515625,-0.7675529367431998,0.6431450513079762,-0.2636772399157285,-0.2067544907331466,0.0657250806689262,-0.3436565697193146
4.802932861328125,-0.7329201609097421,0.7052981406211852,-0.4178799596339464,-0.2177169024944305,0.0659630969166755,-0.3225330114364624
4.812959716796875,-0.7199936054497956,0.716047644302994,-0.5778372973561287,-0.2127120196819305,0.0738188922405242,-0.2748893499374389
4.822988037109375,-0.6564442394725978,0.7632198759749531,-0.7434177356570959,-0.1922526061534881,0.1011188030242919,-0.2198767364025116
4.833014892578125,-0.6367804116468876,0.7681370202414691,-0.8934919772684573,-0.1712597012519836,0.1535106301307678,-0.1642869710922241
4.843041748046875,-0.6500372950397432,0.7429119780920446,-0.957712228244543,-0.1507778167724609,0.2030429244041443,-0.1124767214059829
4.853070068359375,-0.6462896329440176,0.6634783758930861,-0.909552300709486,-0.1410245150327682,0.2529814541339874,-0.0816679447889328
4.8630966796875,-0.6056666767850518,0.5907090538889169,-0.7541057184100151,-0.1346484720706939,0.276469737291336,-0.0703067556023597
4.873125,-0.6081922497399151,0.5514454033844173,-0.600395750644803,-0.1168899834156036,0.2348320186138153,-0.072771780192852
4.8831513671875,-0.5927914496535435,0.5560653182700276,-0.5497738169103861,-0.0873031914234161,0.1597707867622375,-0.0751148164272308
4.893179443359375,-0.4645307247150689,0.5434475364983081,-0.6080787063628434,-0.0565942861139774,0.0919600427150726,-0.0784197971224784
4.903206298828125,-0.3854377526473254,0.4881852296121418,-0.7727665797382592,-0.0292687565088272,0.0494749993085861,-0.0653265416622161
4.913234375,-0.2588635377573781,0.4351628106072545,-1.002885833445191,0.0111079607158899,-0.0134014319628477,-0.0265162922441959
4.923261474609375,-0.1072664704929105,0.3662621467299759,-1.3347820385843514,0.0613193735480308,-0.1016264334321022,0.0373978614807128
4.9332890625,0.0420503586135804,0.2950697186537087,-1.7032237213104962,0.1039744243025779,-0.1591014415025711,0.1067684143781662
4.94331640625,0.1135258048823103,0.1948706840626895,-2.0873048717170954,0.1230383664369583,-0.1672570705413818,0.1520792841911316
4.95334423828125,0.0672300637839362,-0.0916362272985279,-2.385609188377857,0.0975087657570838,-0.1991628110408783,0.157555803656578
4.96337109375,-0.13604694010159,-0.5939341534152627,-2.1555057167619465,0.0489636845886707,-0.1321008652448654,0.1227341368794441
4.973399169921875,-0.1325657834549434,-0.9576666355371476,-2.0953256810873744,-0.0213525556027889,-0.002870712429285,0.0391505621373653
4.98342626953125,-0.3289629646988585,-1.2597995705753564,-1.98818924844861,-0.079472966492176,0.1564320772886276,-0.0655189603567123
4.993454345703125,-0.4446674653271213,-1.473952754995972,-1.77986856957376,-0.105184718966484,0.3250799477100372,-0.1617517471313476
5.003481201171875,-0.3475570809338241,-1.51701433647871,-1.4353653963178394,-0.0878358781337738,0.4488991200923919,-0.2473915666341781
5.01350830078125,-0.2680603138381615,-1.3974280259810388,-0.9950281056821346,-0.0576031468808651,0.4927754998207092,-0.3237201571464538
5.023536376953125,-0.2846214994734153,-1.1552826727852226,-0.3635241000682115,-0.0355061292648315,0.455803632736206,-0.3862875401973724
5.033563232421875,-0.2438047925743274,-0.9005613311327993,0.3969277724981307,-0.030605649575591,0.3435663282871246,-0.4272008836269378
5.043591064453125,-0.1317914198152721,-0.7067780039153992,1.1123223597198724,-0.0541211888194084,0.1966818422079086,-0.4554792940616607
5.053618408203125,-0.0856315069910138,-0.5908177749603987,1.6436504193574188,-0.0938523560762405,0.0728656277060508,-0.468051016330719
5.063646240234375,-0.0389898065657587,-0.48511122899428,1.849921764487028,-0.1069461330771446,-0.0166689679026603,-0.457095742225647
5.073673095703125,0.0270003081936389,-0.4701230648294091,1.7378297552675008,-0.079648733139038,-0.0617480315268039,-0.4255212843418121
5.083701171875,0.1510465663753915,-0.400608799098432,1.4662953721106051,-0.0172530580312013,-0.0775567069649696,-0.3758038580417633
5.093728271484375,0.2649529954725876,-0.2913121196858584,1.22329442499876,0.0678573101758956,-0.0857762917876243,-0.3219020068645477
5.103756103515625,0.3513703921442851,-0.1914762193188071,1.0377204154610633,0.1523384898900985,-0.093601569533348,-0.2594391107559204
5.113783203125,0.4284025592247024,-0.085152272106707,0.9568032967060804,0.2144295573234558,-0.109413556754589,-0.1946489214897155
5.12381103515625,0.478374906476587,-0.0825549490898847,0.9390811775326728,0.2472580522298813,-0.1348187029361724,-0.1364119052886963
5.13383837890625,0.5497902565885335,-0.1613214656822383,0.9360954397201536,0.2596537470817566,-0.1623448729515075,-0.0884454324841499
5.1438662109375,0.5663839927865192,-0.2724770708344876,0.8450842124521731,0.2623453438282013,-0.1806666553020477,-0.0588896535336971
5.153893310546875,0.5233832381129264,-0.4347194507539272,0.6707599112033844,0.2621013820171356,-0.1987228840589523,-0.0404975973069667
5.16392138671875,0.5297065959155559,-0.5783455391392112,0.4867407298922538,0.261965662240982,-0.2020412683486938,-0.030125617980957
5.173947998046875,0.5338632772035896,-0.7151651623800397,0.2853442973226309,0.2729900777339935,-0.1700196862220764,-0.0180162247270345
5.183975341796875,0.5507845648555085,-0.7744739681780338,0.0468149426668882,0.2801818549633026,-0.1269504278898239,-0.0239396635442972
5.194003173828125,0.5183098073061555,-0.8326414949864148,-0.0759381612986326,0.267412006855011,-0.0993142798542976,-0.0473736152052879
5.204030029296875,0.4548802317837253,-0.8688577406190335,0.0858083979278802,0.2377266138792038,-0.0393725670874118,-0.0783491507172584
5.21405810546875,0.4837173634830862,-0.8345202944703399,0.1373626440763473,0.1973126083612442,0.0328840538859367,-0.1097965538501739
5.224085205078125,0.4441603560552001,-0.7788222265154123,0.2327729830861091,0.1791798621416092,0.0687726140022277,-0.1284642815589904
5.23411328125,0.4849468687454238,-0.7392338741011917,0.2927776621937751,0.1768027245998382,0.084320418536663,-0.1454166322946548
5.24414013671875,0.5044864491369575,-0.5904184734445065,0.4445136995375156,0.1810614317655563,0.0901412516832351,-0.1669510602951049
5.254168212890625,0.4362408151023089,-0.4023755165100097,0.6430442212820052,0.1785114556550979,0.0659485682845115,-0.1869378238916397
5.2641953125,0.3705171738259494,-0.273786545997858,0.8475479722172021,0.1700310707092285,0.0220654495060443,-0.1948550939559936
5.274223388671875,0.3370109178043902,-0.1476331320695579,1.0351362441867589,0.1519636511802673,-0.0283966585993766,-0.1863691955804824
5.28425,0.3373235639501363,-0.0239673702385276,1.1256705015927553,0.1260290145874023,-0.0635850876569747,-0.1696401089429855
5.2942783203125,0.3016775011545978,0.0975800842642784,1.104950954169035,0.0991276279091835,-0.0726363733410835,-0.1410164535045623
5.30430517578125,0.2775403273071162,0.2084841258082538,1.0257540833353995,0.0839980468153953,-0.0589490532875061,-0.1106810569763183
5.31433349609375,0.2565833361320197,0.2784714158784598,0.9271779737710952,0.0782653242349624,-0.0306777320802211,-0.080956719815731
5.324360107421875,0.2421320553228259,0.3378234762962907,0.8544289639025926,0.0884239301085472,-0.0061270366422832,-0.0548371411859989
5.33438818359375,0.2424385274561122,0.3853497821029275,0.8280997599035501,0.1018984541296958,0.0055096456781029,-0.0287898276001214
5.34441552734375,0.2855414455962367,0.4503687091760337,0.875532542207837,0.1133735105395317,-0.0011131805367767,0.0010428079403936
5.354442138671875,0.3249943533288315,0.5077229468401521,0.9937772288382052,0.1179179251194,-0.0284225679934024,0.0268208757042884
5.36447021484375,0.3669223642043769,0.5482361590143293,1.1247837818861006,0.1120805218815803,-0.068714253604412,0.0430364236235618
5.374497314453125,0.3460336707588285,0.5940028347373009,1.1935568738609552,0.0962315201759338,-0.1282209903001785,0.0463944040238857
5.384525146484375,0.3254874340754002,0.6118818980380892,1.176913782095909,0.0676200613379478,-0.1865384727716446,0.0527188032865524
5.39455224609375,0.3423127870721742,0.6560738717902451,1.1073702902704476,0.0325686074793338,-0.2211063057184219,0.0642127394676208
5.404580322265625,0.4093790751291438,0.6947858797613531,0.9442734854787588,-0.000530075514689,-0.2330467402935028,0.0858426094055175
5.414607177734375,0.4531816842375323,0.7003723746567964,0.6949854209214449,-0.0119798043742775,-0.2327242195606231,0.119430661201477
5.42463525390625,0.5226051298798993,0.6977345004338771,0.4191057020366192,-0.0119912326335906,-0.2297705858945846,0.1591819673776626
5.434662353515625,0.5884556124063208,0.6996868766106664,0.1713905858844518,-0.0028629810549318,-0.2227491587400436,0.2020847052335739
5.4446904296875,0.6447340740650892,0.7032084018003195,-0.0392985756874084,0.0015256182523444,-0.2170250564813614,0.2433975785970688
5.45471728515625,0.6911708310693502,0.6868142432950437,-0.200234403052926,-0.0087099745869636,-0.2233274281024933,0.2752857208251953
5.4647451171875,0.7077088550247251,0.5821192124590278,-0.3111608756244182,-0.031168470159173,-0.2347502410411834,0.2912947833538055
5.4747724609375,0.6670179481960833,0.4084810668434947,-0.4179471796512603,-0.0620028153061866,-0.2326295673847198,0.2878899276256561
5.48480029296875,0.556223139180243,0.2434763826038688,-0.5844950016796588,-0.0985259935259819,-0.2120750248432159,0.2757485508918762
5.4948271484375,0.4844999652281403,0.1389233175218105,-0.7399421685010195,-0.1282796412706375,-0.1772022545337677,0.2613504528999328
5.504855224609375,0.505911038579978,0.0728399030223488,-0.8665063551872968,-0.146251231431961,-0.1488802284002304,0.263897180557251
5.51488232421875,0.5713786592686548,0.0585338028375059,-0.9883329919576644,-0.1571803092956543,-0.1254041939973831,0.2684777975082397
5.5249091796875,0.6006192206697538,0.0549547022417187,-0.9779109666645528,-0.1657842546701431,-0.1077000722289085,0.2685531973838806
5.534937255859375,0.5456941829139367,0.0211981977861374,-0.9355454046219588,-0.18263541162014,-0.0804221108555793,0.2503622174263
5.54496435546875,0.4505186025081202,-0.0823610339529812,-0.8097942878842354,-0.2062922120094299,-0.0500578209757804,0.2157320827245712
5.554992431640625,0.3665357395069673,-0.1652767061140388,-0.6798492265880107,-0.2238996922969818,-0.0288524013012647,0.173231765627861
5.565019287109375,0.2871206958780065,-0.1730916907139122,-0.6005249299824238,-0.2366927713155746,-0.032959334552288,0.1435794830322265
5.575047119140625,0.2896281851869076,0.0162865334123373,-0.5329904398918152,-0.2137152850627899,-0.0724627971649169,0.1342616230249405
5.585074462890625,0.3303099588610231,0.1036247712559998,-0.6306243001699448,-0.1612887382507324,-0.1179524809122085,0.1464988142251968
5.59510205078125,0.4299759094886481,0.2273020043291151,-0.7906061878114938,-0.1046252027153968,-0.1299939751625061,0.1688981354236602
5.605129150390625,0.4455321558650583,0.3616824177242815,-0.9400520683914424,-0.0384335704147815,-0.1611436754465103,0.2215873301029205
5.6151572265625,0.5275338184537366,0.4643335216425359,-1.0986159059286116,0.0518366694450378,-0.2504200339317322,0.3133223056793213
5.62518408203125,0.7210968905165791,0.54214785207659,-1.3372078044265507,0.1323208957910537,-0.3550142347812652,0.4087170958518982
5.635212158203125,0.7579442736595868,0.5948930615752935,-1.5464567040622232,0.1703023761510849,-0.3999660015106201,0.4848558008670807
5.6452392578125,0.64813146141842,0.5087327814698219,-1.778714138841629,0.1630639433860778,-0.4091946482658386,0.5266305208206177
5.655267333984375,0.4178889466580003,0.1230111703798174,-1.8175427589297293,0.121258445084095,-0.3148931562900543,0.5372543931007385
5.665294189453125,0.2679966374848038,-0.3056663698613643,-1.858368105792999,0.0856252685189247,-0.180477112531662,0.5105999112129211
5.675322265625,0.017080094942823,-0.760238960468024,-1.93624863333106,0.067245990037918,-0.0009454363025724,0.4606185555458069
5.685349365234375,-0.1912175683826208,-1.0284330932863055,-1.956706314948201,0.0591768622398376,0.207118347287178,0.3822370171546936
5.69537744140625,-0.4472078339923173,-1.1941982405044138,-1.7570605254381897,0.0498350262641906,0.3591720759868622,0.2726796269416809
5.705404052734375,-0.716509635791555,-1.4011100754946468,-1.2583172230631112,0.012644026428461,0.4496032893657684,0.1445507556200027
5.715431396484375,-0.8919464283268899,-1.4829752887547016,-0.4835784664690494,-0.0457108952105045,0.4764783084392547,0.0021296953782439
5.725459228515625,-1.0848773764986543,-1.4693684959456323,0.3701683603882789,-0.1208088919520378,0.4518191516399383,-0.1399452090263366
5.735486083984375,-1.2197560217395425,-1.399160694992542,1.1622685861498117,-0.1996560394763946,0.3614277243614197,-0.2561261653900146
5.74551416015625,-1.246263504914939,-1.205393588257581,1.7972656945765018,-0.2584802508354187,0.2249025255441665,-0.3364002704620361
5.755541259765625,-1.2127588563285767,-0.9585193068437278,2.1600679101109503,-0.290990799665451,0.1001539379358291,-0.3811371326446533
5.7655693359375,-1.174375495789945,-0.7381700442619621,2.292754379069805,-0.2900870442390442,-0.0060145012103021,-0.3924992978572845
5.77559619140625,-1.182237899728119,-0.5406080752886832,2.1610954995930194,-0.2448479235172271,-0.0925235599279403,-0.3710784316062927
5.785624267578125,-1.1749398516744374,-0.3895644041232765,1.881992142486572,-0.1698639839887619,-0.1466895192861557,-0.3118927478790283
5.7956513671875,-1.1246094482325018,-0.2495715576738119,1.5681424661695955,-0.0784318074584007,-0.1832416653633117,-0.2237269431352615
5.80567919921875,-1.0208573242697865,-0.1065947269774973,1.2759165926396847,0.0228405762463808,-0.2137277126312255,-0.1081003174185752
5.8157060546875,-0.8283410213135183,0.0626731676645576,0.9779577284157276,0.1129014939069747,-0.2316795438528061,0.0250380262732505
5.825734375,-0.5702293431030586,0.2406850713849067,0.7410048292964696,0.1854273080825805,-0.2316455841064453,0.1552273631095886
5.835760986328125,-0.40603747308366,0.3083357352010905,0.5245774163335561,0.2275902032852172,-0.2107703983783722,0.2633695602416992
5.845789306640625,-0.3177678726740181,0.1816818244047462,0.3316355083763599,0.2610922455787658,-0.1710437536239624,0.3438364267349243
5.855816162109375,-0.2837859619647264,-0.112415980476886,0.1353776077389717,0.276917815208435,-0.112427569925785,0.3846171498298645
5.86584423828125,-0.3153912797357887,-0.4164041879929602,-0.0192377844333648,0.2608224153518677,-0.0462235547602176,0.3708382546901703
5.875871337890625,-0.4372178434409201,-0.6740243198268115,0.0005307458758354,0.2286279797554016,0.0190449319779872,0.3177134990692138
5.8858984375,-0.5599584532510489,-0.9377269864447414,0.0940571708351373,0.1829164326190948,0.0702651664614677,0.2364680916070938
5.895926513671875,-0.5998281798899173,-1.1551144766114652,0.2759206354171037,0.1250526010990142,0.1066878885030746,0.1388453841209411
5.905953125,-0.5911701685946434,-1.2268657076142728,0.5466811115920543,0.0693947151303291,0.1173513010144233,0.0354059003293514
5.9159814453125,-0.5546559263961389,-1.1741685019757595,0.7677852841943502,0.0316119194030761,0.1103953868150711,-0.054702952504158
5.92600830078125,-0.501296420923993,-1.0767504033401607,0.8873808009117842,0.0217669978737831,0.1043722331523895,-0.1277240961790084
5.93603662109375,-0.3776970023274421,-0.8635412948366255,0.927003201726079,0.0322300232946872,0.1419907212257385,-0.1660965234041214
5.946063232421875,-0.200849210483022,-0.5286612515810877,0.8536661628365516,0.0506775788962841,0.1469336599111557,-0.187277615070343
5.95609130859375,-0.1867319474011659,-0.2930163663204759,0.9991261886507272,0.0682706907391548,0.1334529966115951,-0.187479481101036
5.966118408203125,-0.0915673998460173,-0.0409324604995548,1.1991402269512417,0.0797338038682937,0.135714590549469,-0.1667758226394653
5.976146484375,0.006772709005326,0.1915020844124257,1.2418401355147362,0.0848507955670356,0.1289315223693847,-0.1512948721647262
5.98617333984375,-0.101773480833508,0.2735717342033982,1.249492696094513,0.0957201868295669,0.1032527163624763,-0.1322397887706756
5.996201416015625,-0.1708892852988094,0.3022270430624484,1.3202426411002874,0.106913723051548,0.0674377232789993,-0.1091341972351074
6.006228515625,-0.1291577468434348,0.4206679829172789,1.2786942406594752,0.1270839869976043,0.0759592354297638,-0.1054263710975647
6.01625634765625,-0.1970854740353301,0.5076962049636989,1.0151473491251468,0.1447844356298446,0.0694059953093528,-0.1156395971775055
6.026283447265625,-0.3737366473291069,0.4759484099820256,0.9338426923573016,0.1392413675785064,0.0516774430871009,-0.1120043024420738
6.036311279296875,-0.3561494796469807,0.5563394590362906,0.9190157101035118,0.1202525049448013,0.029292244464159,-0.1137880906462669
6.04633837890625,-0.4341780738862231,0.5839253120329231,0.9119032477498054,0.0904900431632995,0.0145101342350244,-0.1213417574763298
6.0563662109375,-0.5160506302025168,0.5798306631304323,0.7903308780014514,0.0480291359126567,0.0183818377554416,-0.1207270994782447
6.066393310546875,-0.521557374392636,0.6605735943622887,0.7258446695655584,0.0164083950221538,0.037008486688137,-0.1199242770671844
6.076420654296875,-0.532871855013445,0.6644815615862607,0.5761866075396538,-0.0116256363689899,0.0687616243958473,-0.1130932718515396
6.0864482421875,-0.5617788370786234,0.755513466316089,0.4026432275354862,-0.0329335555434227,0.107187807559967,-0.1012023836374282
6.0964755859375,-0.5855772804910316,0.8437196461006998,0.3344277694433927,-0.0409459434449672,0.1321224421262741,-0.0903079211711883
6.10650341796875,-0.5614783928273246,0.8286432191304862,0.2835708579093218,-0.0488447584211826,0.1466642469167709,-0.0771720856428146
6.1165302734375,-0.5545711341895163,0.9148109518900512,0.3280757700681686,-0.0694270059466362,0.1611758172512054,-0.0685101598501205
6.126558349609375,-0.590054718166031,0.9852295460496098,0.3913777371555567,-0.0890491157770156,0.169032409787178,-0.0622437261044979
6.13658544921875,-0.6062668711679056,0.9721813369713724,0.446530884578824,-0.1002695485949516,0.1545975506305694,-0.0571520291268825
6.146613525390625,-0.5843629362652077,0.9686984632916747,0.4959305830419063,-0.1064139232039451,0.1244409009814262,-0.0516089014708995
6.156640380859375,-0.5541140015391632,0.9860548909578472,0.520573441389203,-0.1144998148083686,0.0980822667479515,-0.0485923364758491
6.166668212890625,-0.5640590569702908,1.0306580027941614,0.4694324522167444,-0.1203349828720092,0.0682023242115974,-0.0459356531500816
6.176695556640625,-0.57250331591703,1.0296834586735817,0.3559299916774034,-0.1128381863236427,0.0472927764058113,-0.0407028086483478
6.18672314453125,-0.5197149248637258,0.9929367594260722,0.1563572674036026,-0.1160444170236587,0.0404457934200763,-0.020756272599101
6.196750244140625,-0.4736125874456018,1.0637936719376593,0.0120475806683301,-0.1200048103928566,0.0275987051427364,0.0178608950227499
6.2067783203125,-0.3760010120645165,1.020513333137706,-0.1631336296707391,-0.1118500009179115,0.0140947243198752,0.0596066899597644
6.216805419921875,-0.308220145997405,0.8981783084537833,-0.383025503873825,-0.1100121513009071,0.0154646541923284,0.097990833222866
6.226833251953125,-0.3258355533933267,0.8688131708249449,-0.6021411330074071,-0.1112569496035575,0.0359317734837532,0.1313196420669555
6.2368603515625,-0.3256661516431718,0.7658096732724458,-0.8241378705352544,-0.1100635901093483,0.0795261189341545,0.15362149477005
6.246887451171875,-0.3101576899312436,0.6135292999189347,-1.0384802939176558,-0.1111519336700439,0.1401563733816146,0.1660871356725692
6.256915283203125,-0.3432638041866943,0.4613404773063957,-1.1455682112395762,-0.1195957511663436,0.2037092447280883,0.1586934030055999
6.2669423828125,-0.3828041527407244,0.2925250026069581,-1.135363043567538,-0.1371930241584777,0.2623211741447449,0.1258657872676849
6.27697021484375,-0.4303441582791507,0.2078885710678994,-1.0186059651464223,-0.1490688472986221,0.2862808406352997,0.0693878680467605
6.28699755859375,-0.4844947045311331,0.1837210751473903,-0.89335636819005,-0.1486696898937225,0.2580416798591614,0.0045912130735814
6.297025146484375,-0.4724807338714599,0.2194682419635355,-0.7861942165881395,-0.1421065926551818,0.2188934534788131,-0.0506941489875316
6.30705224609375,-0.4048537066591903,0.2847363945573568,-0.7641811222225428,-0.1296828687191009,0.1927386969327926,-0.0879864543676376
6.317080322265625,-0.3337481166161596,0.3507343227304518,-0.7995826904714107,-0.0927621349692344,0.149055927991867,-0.1160407215356826
6.327107177734375,-0.2864932481620461,0.3323147228121757,-0.9677630821377038,-0.0495265871286392,0.0729427486658096,-0.1076421588659286
6.337135498046875,-0.0901585742277093,0.5225837582983076,-1.100980296972394,-0.0072507699951529,-0.0321905985474586,-0.0756946131587028
6.347162353515625,0.077218885291554,0.7050484036438167,-1.2888175752669573,0.0243069250136613,-0.1344749182462692,-0.025641955435276
6.3571904296875,0.11608962748833,0.6315789705462753,-1.6465063933104276,0.0388035736978054,-0.1966357678174972,0.0366560406982898
6.36721728515625,0.1616965826049446,0.497057541245222,-2.0268600476264957,0.0283081978559494,-0.1820186674594879,0.0988951474428176
6.377245361328125,0.1411960664930753,0.2654445418491959,-2.3435154290139675,-0.0049576140008866,-0.1038831174373626,0.1358829885721206
6.3872724609375,-0.0195119434659369,-0.0498144167438149,-2.5422575476825235,-0.066894344985485,-0.024468382820487,0.1272053122520446
6.397300537109375,-0.2134028957762755,-0.4857297992840409,-2.37801332642138,-0.1395137012004852,0.1364656388759613,0.0736720487475395
6.407327392578125,-0.3792354639410972,-0.8549638014316558,-2.2626754671484237,-0.204944372177124,0.3112077414989471,-0.0267586186528205
6.4173544921875,-0.7207990766137838,-1.2884947730533778,-2.0114099650382995,-0.2449730187654495,0.4369464814662933,-0.1514273136854171
6.427382568359375,-0.9830799668002872,-1.564441565825045,-1.506359671473503,-0.2635740339756012,0.4798882007598877,-0.2787364423274994
6.437410400390625,-1.02633370985426,-1.563055372163653,-0.7752320930689572,-0.2766107320785522,0.4403722286224365,-0.3897385895252228
6.4474375,-0.9470390046693384,-1.3866111561514436,0.0234516027361154,-0.2984991073608398,0.3683818578720093,-0.4768239259719848
6.45746435546875,-0.8629935978259891,-1.134969952596724,0.7474871770530939,-0.322277158498764,0.279636800289154,-0.5197423100471497
6.467492431640625,-0.7329920571021735,-0.9041784987166523,1.2761889798402786,-0.3387236595153808,0.1902659088373184,-0.5246866941452026
6.477519287109375,-0.6069515289638191,-0.7347532215557993,1.590592782908678,-0.3187142610549927,0.1094104722142219,-0.4895377159118652
6.48754736328125,-0.5061670591676607,-0.6329036432787776,1.6708528990596532,-0.2443727403879165,0.012557397596538,-0.4261784553527832
6.49757421875,-0.396864424938336,-0.5870661673419177,1.6002005692094563,-0.1304501742124557,-0.0853750258684158,-0.3546667397022247
6.507602294921875,-0.3258152777902782,-0.4688948382087051,1.5038766224861144,-0.008978247642517,-0.181330919265747,-0.2718779146671295
6.51762939453125,-0.2304269131503067,-0.3448841353975236,1.360909582531452,0.0885509699583053,-0.260683536529541,-0.1747662723064422
6.527657470703125,-0.0904578859678469,-0.3286316503852605,1.2807172709196806,0.1482060551643371,-0.3286007642745971,-0.0624155290424823
6.537684326171875,0.0484236017062328,-0.4382634069710969,1.1506260791510343,0.1797703802585601,-0.3809958100318908,0.0483115203678607
6.54771240234375,0.0956414260855875,-0.6482886978067457,0.9398387179017066,0.1957751512527465,-0.4179340302944183,0.1392463147640228
6.557739501953125,0.0714114593881182,-0.9220951175488532,0.6338479383915663,0.2258760631084442,-0.4147011935710907,0.2147956639528274
6.567767333984375,0.0439662204385735,-1.1592518686771391,0.2134820071607828,0.2622552216053009,-0.3716608583927154,0.2596362829208374
6.57779443359375,-0.0472028277396224,-1.4313365791931747,-0.1686450865685939,0.2767366766929626,-0.2879944443702698,0.2701946496963501
6.587822265625,-0.1675305129228159,-1.5967000137425955,-0.3267798850387334,0.2676833868026733,-0.1858571916818618,0.2621423006057739
6.597849365234375,-0.261883890225552,-1.7924407586380835,-0.326963424912095,0.2388363033533096,-0.0853311121463775,0.2327583134174347
6.60787646484375,-0.3208959415666759,-1.932987001186609,-0.2134001740962267,0.2009373307228088,-0.0122107230126857,0.1902347803115844
6.617904296875,-0.3623943653859198,-1.94224012883082,0.0091015903443098,0.1539485156536102,0.0420937947928905,0.1316577494144439
6.627931640625,-0.3749610745575278,-1.8405287899807092,0.3031885815709829,0.1111790463328361,0.067215658724308,0.0703279450535774
6.63795947265625,-0.3648698155887425,-1.685204665017128,0.5811871923059225,0.0753733813762664,0.0719073489308357,0.0194732826203107
6.647986328125,-0.2818226625351235,-1.4806678885951636,0.8593792797863483,0.0581267178058624,0.0536816120147705,-0.0061156195588409
6.658014404296875,-0.159348686038237,-1.216978227589279,1.044108655193448,0.0503878369927406,0.0133491046726703,-0.0030718927737325
6.66804150390625,-0.0976449661940336,-0.943323637408018,1.1754115608394144,0.0519855022430419,-0.0232465956360101,0.0186485033482313
6.6780693359375,-0.0371609791368246,-0.658943070551008,1.298161742195487,0.0616850033402442,-0.0534044988453388,0.0600715763866901
6.688096435546875,0.0413664862689562,-0.4221371786870062,1.320010001388192,0.0802122205495834,-0.075195200741291,0.1118678897619247
6.698124267578125,0.0958319984879344,-0.2659766028992831,1.2954086440950632,0.1023782417178154,-0.0828232914209365,0.1627148389816284
6.7081513671875,0.0698374332707375,-0.1259092299088835,1.2306909649908542,0.1275997012853622,-0.0859172418713569,0.2092562913894653
6.71817919921875,0.0442534764147363,-0.0185820970036089,1.1855179443120956,0.1420819610357284,-0.0882866606116294,0.2463285624980926
6.728206298828125,0.0434423609612509,0.0768701814517378,1.1823679558485745,0.1497958600521087,-0.0906830132007598,0.2794884145259857
6.738234375,0.0304404021775349,0.1184033843234181,1.17653910356462,0.1538920700550079,-0.1017298102378845,0.3038014769554138
6.74826123046875,0.0287632262129336,0.1286276950873434,1.1276070226132868,0.1566513627767563,-0.1067955568432807,0.3170912563800812
6.758289306640625,0.0007374108964577,0.1854620735958218,1.0620604914695024,0.1547932773828506,-0.0959346517920494,0.3220458030700683
6.76831640625,-0.0112218704339116,0.2534801094196737,0.964157751122117,0.1518298387527465,-0.0873329415917396,0.3288880288600921
6.77834326171875,0.0388463018752634,0.3323683526955545,0.869639392516017,0.1447170674800872,-0.0819080844521522,0.3407361507415771
6.788371337890625,0.0993926501115784,0.3994199546400457,0.8131552887499331,0.1362963914871215,-0.0865864604711532,0.3653891682624817
6.7983984375,0.162696224634163,0.4973901342004537,0.7575012060672044,0.1218985319137573,-0.1115304306149482,0.393941193819046
6.80842626953125,0.2124356033803895,0.5699213365998119,0.6716641665667296,0.1121933832764625,-0.1451400518417358,0.4232668578624725
6.818453369140625,0.2142696138745173,0.6018282676659524,0.5274456652462483,0.1178968027234077,-0.1721748560667038,0.4500989913940429
6.828481201171875,0.1888983316548168,0.5652837399270385,0.2571872933745384,0.1109917610883712,-0.1682344526052475,0.4553845524787903
6.83850830078125,0.0497529323475435,0.4834534518498927,0.0581114127069711,0.0813736841082573,-0.1340048313140869,0.4585151076316833
6.848536376953125,-0.0718443891789764,0.4309005500528961,-0.0759878456592559,0.0466234646737575,-0.1068285331130027,0.456973522901535
6.858563232421875,-0.107588231526874,0.2909529309846461,-0.2009948660314083,-3.24570573866e-05,-0.0654264986515045,0.4525049924850464
6.868591552734375,-0.1605030619714409,0.2802132911097258,-0.188427060881257,-0.0387193672358989,-0.0372058190405368,0.4421158730983734
6.878618408203125,-0.2802875984549522,0.2650991624776274,-0.2081692877054214,-0.0655251517891883,-0.021339239552617,0.4230425655841827
6.888645751953125,-0.3254979920020326,0.2458824208322912,-0.2113619462668895,-0.0846392214298248,-0.0054872692562639,0.4110523462295532
6.898672607421875,-0.328651560662128,0.3195790868144482,-0.1383493170261382,-0.0877332836389541,-0.0062782284803688,0.4111391901969909
6.908700927734375,-0.2766076678331941,0.3448565167382359,-0.0629570991724729,-0.0816396698355674,-0.0220519006252288,0.4227610826492309
6.918727783203125,-0.2224390014026314,0.3937364291109144,0.0287573079288005,-0.0719913095235824,-0.0489652752876281,0.4408990740776062
6.928755859375,-0.1973768581973388,0.4373608321081846,0.1381318748831748,-0.0572491697967052,-0.0958281755447387,0.4614567458629608
6.938782958984375,-0.1424158358126878,0.4488187763202935,0.1747457415312528,-0.0462836027145385,-0.1452740281820297,0.4744790494441986
6.9488095703125,-0.1108842408649623,0.4081782114394008,0.1611485933333635,-0.041689034551382,-0.1785123199224472,0.482491672039032
6.958837890625,-0.124720641178824,0.3240624427735805,0.1058294416934251,-0.0411020740866661,-0.2106638699769973,0.4801110625267029
6.96886474609375,-0.1169450752738863,0.2207506829895079,-0.0346042803913354,-0.0422178097069263,-0.2187378406524658,0.4686083793640136
6.978892822265625,-0.1013080552788451,0.115472737699002,-0.1752531065315008,-0.0505431182682514,-0.2002014517784118,0.4392315745353699
6.988919677734375,-0.1355182583186775,0.0096586397051811,-0.2996358575254678,-0.0583251602947711,-0.1808308660984039,0.408304899930954
6.99894775390625,-0.1278625924663618,-0.0702422877445816,-0.3328080592870712,-0.0618248172104358,-0.182806134223938,0.3832655847072601
7.008974853515625,-0.0216600796768441,-0.0590811345219612,-0.269131413668394,-0.0633466988801956,-0.2109652757644653,0.3629071712493896
7.0190029296875,0.0521081902367994,0.0360591553747653,-0.2475847677707672,-0.0418424792587757,-0.2474441975355148,0.3533788919448852
7.02902978515625,0.0781313604939728,0.1272504153847694,-0.360173620596528,-0.0134784914553165,-0.2815606594085693,0.358315646648407
7.039057861328125,0.1678871078081429,0.1992949302457272,-0.5608809018582105,0.015949971973896,-0.2951166927814483,0.3696577847003937
7.0490849609375,0.2404296718517318,0.2386325227692723,-0.7221376317411661,0.0625694021582603,-0.2944338619709015,0.4128262996673584
7.059112548828125,0.3763406192824244,0.3093060415379703,-1.0152987402945757,0.1396756321191787,-0.3164414167404175,0.4860610961914062
7.069139892578125,0.5574437304837628,0.3665849489435553,-1.3530576999872923,0.2245844304561615,-0.36098712682724,0.5776763558387756
7.079167724609375,0.6693706488020718,0.4315506114594638,-1.6922031456023454,0.2979840934276581,-0.3709143102169037,0.6705370545387268
7.08919482421875,0.7143336069267243,0.3889611044678837,-2.058075270101428,0.3331488370895386,-0.3091101348400116,0.7523008584976196
7.09922265625,0.6758877756111323,0.1889966043975204,-2.318327796265483,0.3305471837520599,-0.1684494018554687,0.8024396300315857
7.109249755859375,0.5178138404827565,-0.203888980037719,-2.440526188957691,0.2954525351524353,0.0271184220910072,0.8007691502571106
7.11927783203125,0.2032241594534367,-0.7001704223439097,-2.306926696807146,0.2526784241199493,0.2297450304031372,0.7363076210021973
7.1293046875,-0.1370871150705963,-1.1692823373693972,-1.928667968943715,0.2175987064838409,0.3682834804058075,0.6229785680770874
7.139331787109375,-0.5088782178224995,-1.5211983441650867,-1.349790807145834,0.1769562065601349,0.4108162820339203,0.4626293778419494
7.14935986328125,-0.8209175933144987,-1.6810170040689407,-0.5181511826783418,0.1148300841450691,0.3859796524047851,0.2807470262050628
7.15938671875,-1.016342696389556,-1.6721693884856998,0.3012877163857221,0.0459740571677684,0.3318112194538116,0.1050503253936767
7.169414794921875,-1.1410033144768328,-1.5614204644382,0.9364543361604212,-0.0139591451734304,0.2722557783126831,-0.0427805744111537
7.17944189453125,-1.1882415240570905,-1.398618258678913,1.3531377794861792,-0.0580656193196773,0.2089620232582092,-0.1489317715167999
7.1894697265625,-1.1857881395556031,-1.1313920941099525,1.575197645378113,-0.0769311785697937,0.1386692523956298,-0.2095594555139541
7.199496826171875,-1.17359194419682,-0.7788868892494588,1.7192086414277552,-0.0621498338878154,0.0483497530221939,-0.2327492088079452
7.209524658203125,-1.17521457696259,-0.5309593724556267,1.6837819387376307,-0.010407580062747,-0.0417126305401325,-0.227486714720726
7.2195517578125,-1.2038890289135276,-0.3257649358425289,1.5160025290876626,0.0642000809311866,-0.1078410446643829,-0.2007118165493011
7.229579833984375,-1.2463488451108335,-0.1377527393724769,1.2817711638867857,0.1449446529150009,-0.1629223227500915,-0.1389093548059463
7.239606689453125,-1.1520723324365914,0.0586673660892993,1.0494196210831404,0.2088498622179031,-0.1980640590190887,-0.0464111231267452
7.249634765625,-1.0071515280656516,0.2592425454039126,0.8503747200757265,0.2479937523603439,-0.2040855884552002,0.0629730820655822
7.259661865234375,-0.8749540116675197,0.4046348397441208,0.6585737988471985,0.2671245634555816,-0.1966343373060226,0.1764383763074875
7.269689697265625,-0.7210458909817039,0.4769978459697216,0.5165273808687925,0.2730839252471924,-0.1857308596372604,0.2750140130519867
7.279716796875,-0.6127994878070429,0.4590762587014586,0.3810656019777059,0.2762195169925689,-0.1738773882389068,0.3407125771045685
7.289743896484375,-0.5193619467075914,0.3570509585313499,0.2503933954507112,0.2743749320507049,-0.1503181904554367,0.3715467453002929
7.299771484375,-0.4874663772856816,0.1539271176472306,0.1105465333431959,0.2833271324634552,-0.1233299821615219,0.3699198067188263
7.309798828125,-0.4444696412000805,-0.0812006849367171,-0.0007528641939163,0.2773695886135101,-0.0883161500096321,0.3350790441036224
7.31982666015625,-0.4192381327772513,-0.2518958359029143,0.0147878192871809,0.2431844472885131,-0.0512329638004303,0.2727927565574646
7.32985400390625,-0.425730380873382,-0.3502178245756775,0.1901899789005517,0.1882053464651107,-0.0176763329654932,0.1943515092134475
7.339881591796875,-0.4356598734091967,-0.4674681664064526,0.3798690856695175,0.128577709197998,-0.0028129662387073,0.1128936558961868
7.34990869140625,-0.4174329099861905,-0.5165300112172961,0.5203472314178943,0.0807721316814422,0.0066422875970602,0.0398981571197509
7.35993701171875,-0.3628740751942619,-0.4904559510231018,0.6126923376381397,0.054413229227066,0.0203370600938797,-0.0213745236396789
7.369963623046875,-0.3444793174562975,-0.3845980869527906,0.6193658240526915,0.0483662225306034,0.024158464744687,-0.0657770186662674
7.379991943359375,-0.289971409134008,-0.2131841201927512,0.6469786381214857,0.0535210371017456,0.0212806519120931,-0.0857355520129203
7.390018798828125,-0.214469483828172,-0.0456901033554226,0.7132382859706878,0.064372219145298,0.0124351568520069,-0.0791859999299049
7.400046875,-0.1831776524530723,0.0602552198026329,0.7322673960894346,0.0805269554257392,0.002326063113287,-0.0617785155773162
7.41007373046875,-0.2050017635852098,0.1040877125926315,0.690410368090868,0.0892053544521331,-0.0117456195876002,-0.0412863940000534
7.420101806640625,-0.2671747997079044,0.1041756831370294,0.6751911716490984,0.0949814841151237,-0.015994694083929,-0.0298425238579511
7.430128662109375,-0.3798500156428664,0.0729872756037861,0.6009843641877174,0.0927272289991378,-0.0200348664075136,-0.0204651821404695
7.440156982421875,-0.441651515039429,0.0444802161090076,0.4898556470423936,0.0895900204777717,0.0044252034276723,-0.013911142013967
7.450183837890625,-0.5033841504508629,0.0209613202903419,0.3644990825802087,0.0818147733807563,0.0427138842642307,-0.0099139418452978
7.4602119140625,-0.6117124962879344,-0.012184431855753,0.2611129423856735,0.0733142271637916,0.0725133270025253,-0.0092510813847184
7.470239013671875,-0.6540449232459068,-0.023887436870113,0.2462339376837015,0.065419778227806,0.0920943766832351,-0.0078055961057543
7.480265625,-0.6795451290749013,-0.0172479988556355,0.2946493012845516,0.0577376186847686,0.0999363213777542,-0.0123569378629326
7.4902939453125,-0.7561844243802129,-0.0133110977981239,0.3313660437852144,0.05058329179883,0.104574866592884,-0.0212233308702707
7.50032080078125,-0.8204135893151163,0.0262468594778329,0.3829781576007604,0.0337683595716953,0.1137462556362152,-0.0308631751686334
7.5103486328125,-0.8280797400288283,0.1059524835512042,0.4663672194272279,0.0130720557644963,0.1256105601787567,-0.0325025729835033
7.520375732421875,-0.8030483207553625,0.1593232776023447,0.4941717566758394,-0.0055128140375018,0.1488109529018402,-0.0378573909401893
7.53040380859375,-0.7951756876841187,0.227081201185286,0.4956330614000558,-0.0188712291419506,0.1806599646806717,-0.0392158702015876
7.5404306640625,-0.7708444525692612,0.295269113683328,0.4872282211482525,-0.0295675490051507,0.1971310824155807,-0.047754231840372
7.550458740234375,-0.792828101644665,0.3142358260903507,0.4826064065665006,-0.0505061447620391,0.1980499625205993,-0.0600568763911724
7.56048583984375,-0.8029873843483626,0.3472947767358273,0.4993056124329567,-0.0802190378308296,0.2006404101848602,-0.0701790153980255
7.570513916015625,-0.7943843911759555,0.2905951305229217,0.5426034868896007,-0.083927072584629,0.2190675735473632,-0.0780210644006729
7.580540771484375,-0.7158207036793232,0.2440008448693901,0.4726806403577327,0.0358653776347637,0.2411635518074035,-0.121346965432167
7.59056884765625,-0.7672315958343445,0.2704912307795137,0.1151169099986553,0.1655911207199096,0.1686791628599167,-0.1842687726020813
7.600595947265625,-0.8987648761700838,0.32753004581891,0.0323012641459703,0.1906820833683014,0.1377401500940323,-0.1966423541307449
7.610623779296875,-0.8791837581917643,0.3111065150886773,0.3093278149783611,0.1014263033866882,0.1298208683729171,-0.1599529981613159
7.62065087890625,-0.6928359878025948,0.2681923061873764,0.6537690289139747,-0.0502468459308147,0.1029801964759826,-0.1169879585504531
7.630677734375,-0.6526821104601025,0.1856473670348525,0.8289221822023392,-0.1831114292144775,0.0999815985560417,-0.096072219312191
7.640705810546875,-0.7983746298559009,0.1391775114785879,0.6103180097222328,-0.2661823332309723,0.1005288735032081,-0.0959790125489234
7.65073291015625,-0.9499780537959188,0.1070279307629913,0.2334709022223949,-0.3115856051445007,0.1073698103427887,-0.084090955555439
7.6607607421875,-0.9297379604522138,0.0921857509400695,-0.0557131193935871,-0.334468811750412,0.1135006695985794,-0.0591376647353172
7.670787841796875,-0.9399171899653972,0.0117570732891559,-0.1960071407467126,-0.3642294704914093,0.1285428553819656,-0.0316200777888298
7.68081591796875,-0.9543982813909648,0.0130487205348908,-0.1988759741812944,-0.4054104387760162,0.1499930173158645,0.0006718125659972
7.6908427734375,-0.9416322502549738,0.068082917753607,-0.1241255613625049,-0.4439123272895813,0.1694256514310836,0.0315515287220478
7.700870849609375,-0.9154118403926492,0.1507465148497372,-0.0783358700901269,-0.4514908790588379,0.1964644640684127,0.0587461292743682
7.71089794921875,-0.8993770897842943,0.2432069910779595,-0.1053314290434122,-0.4213437736034393,0.2021640837192535,0.0719056352972984
7.720925537109375,-0.9012937370605766,0.2533051181789487,-0.1125561195999383,-0.3701626062393188,0.1909607052803039,0.0911184772849083
7.730952880859375,-0.8533238522049039,0.3276557910904288,-0.1252887599229812,-0.2904820144176483,0.1599683463573455,0.1295434087514877
