seconds_elapsed,ax,ay,az,gx,gy,gz
0.060269775390625,-0.2130720015877857,0.2170265296335332,0.6391495519310235,0.4136473536491394,0.5499132871627808,-0.3151213228702545
0.070296630859375,-0.2553904730856418,0.1401549690754618,0.6940536930292844,0.3399857580661773,0.5952264666557312,-0.3280918598175049
0.08032470703125,-0.2751488473270088,0.0960688577174209,0.4646721059471368,0.2819679975509643,0.5898959040641785,-0.3378813862800598
0.0903515625,-0.2205216234739869,0.0376894325908739,0.092258012458682,0.2625049650669098,0.5436244010925293,-0.3381797075271606
0.1003798828125,-0.0978758888730779,-0.0243058632115833,-0.2167740344434976,0.2778136134147644,0.4498203992843628,-0.3289406597614288
0.11040771484375,0.0265683830497786,-0.1071023020402994,-0.3717325409650802,0.3271598219871521,0.3329173326492309,-0.2951822578907013
0.1204345703125,0.2117327158080413,-0.0889931654438376,-0.3236246358782053,0.3837453424930572,0.2357769459486007,-0.2477513551712036
0.130462646484375,0.1894907445900142,0.0375543578020064,-0.3022919249922037,0.4503772258758545,0.1895116120576858,-0.2031076699495315
0.14048974609375,0.1004762806298211,0.1600384949333034,-0.1703413690924644,0.5066636800765991,0.1446820944547653,-0.181349366903305
0.150517578125,0.0622106464530341,0.2308311465696431,0.0990156700253486,0.5372962951660156,0.1314250826835632,-0.1833587139844894
0.160544677734375,-0.0591634790431708,0.2390852897717617,0.1947685388624668,0.5457771420478821,0.1507564336061477,-0.2109410762786865
0.170572509765625,-0.1137965846477076,0.1846512686695903,0.2386491816431283,0.5331162214279175,0.1683580577373504,-0.2397298514842987
0.180600830078125,-0.0228453987375833,0.1144393029980361,0.3165174342215061,0.4982463717460632,0.1186397820711135,-0.2431621253490448
0.19062744140625,0.2246442015630192,0.0812820430772379,0.507436311918497,0.4459471106529236,0.062033474445343,-0.2128594666719436
0.20065576171875,0.3734353993602097,0.0581716549942269,0.4807049568593501,0.3830618858337402,0.018897458910942,-0.1684121042490005
0.2106826171875,0.4450050632510334,0.0586574292171746,0.4803688567727804,0.3155834376811981,-0.0115818940103054,-0.1186232417821884
0.220710693359375,0.4412331434968858,0.0894132174868136,0.4879799162983894,0.2525975704193115,-0.0221474524587392,-0.0766819193959236
0.23073779296875,0.3251980592073872,0.1361591500381007,0.3633393911510705,0.2240606993436813,0.0044250250793993,-0.0542620979249477
0.240765625,0.2126777233068831,0.1888704572672024,0.2452098553329706,0.2172310203313827,0.0315746217966079,-0.0221262667328119
0.250793701171875,0.2133734870187006,0.2757213865179568,0.29784137532413,0.2190630584955215,0.0711011961102485,0.017524380236864
0.260820556640625,0.2084332724038511,0.3514003123585134,0.2771984002679586,0.2074735164642334,0.1089835911989212,0.0635858848690986
0.2708486328125,0.212925140463002,0.3647725292267277,0.4100269080460071,0.1861499100923538,0.125463992357254,0.0945348814129829
0.280875732421875,0.1309276243264786,0.3569640839654952,0.5187222605645656,0.1594671607017517,0.1195674836635589,0.1116827130317688
0.290903564453125,0.0532169917289167,0.3760130678284913,0.524260605469346,0.1356840133666992,0.1136253252625465,0.1232756450772285
0.3009306640625,0.0277140002877917,0.472228804937005,0.5392512538522481,0.0979313105344772,0.1403589248657226,0.135578915476799
0.310958740234375,-0.0282257126695942,0.57893985177055,0.5534533822059631,0.0623970031738281,0.1843487322330474,0.1500183343887329
0.32098681640625,-0.079077034713095,0.6355632909420877,0.5311819291651249,0.0450520999729633,0.2237978726625442,0.1695880442857742
0.331013916015625,-0.0909681735775433,0.6664050769947469,0.4072065899282693,0.037211287766695,0.2355995625257492,0.1878091692924499
0.34104150390625,-0.0917087262791581,0.6963378584437072,0.462829108428955,0.0189278908073902,0.2252097725868225,0.2044888138771057
0.35106884765625,-0.0766898747150786,0.7145574057452381,0.5582067142128944,-0.0093593932688236,0.2173235863447189,0.2189221084117889
0.3610966796875,-0.041876399419317,0.7214394934091717,0.5963081890702248,-0.0527886264026165,0.2373521476984024,0.2381962090730667
0.37112353515625,-0.0276786869458155,0.7500871304184198,0.5818798507452011,-0.1156840771436691,0.2907684445381164,0.2483508735895156
0.381151611328125,-0.0829656487826257,0.7431096195559949,0.5152525386273861,-0.1839883029460907,0.3536997437477112,0.2406231760978698
0.3911796875,-0.1254463068385608,0.6383205537609755,0.402775914004445,-0.2425967156887054,0.3716816008090973,0.2204823791980743
0.401206787109375,0.0191094727454241,0.5238941467771306,0.3199158444881439,-0.2842147648334503,0.3422872126102447,0.2048653364181518
0.41123486328125,0.2341235574448481,0.3991465810587629,0.1887368574827909,-0.2918333411216736,0.2762142419815063,0.1958996653556823
0.421261474609375,0.3895667056782171,0.3059252034606411,0.0101812022745609,-0.2625580132007599,0.1766514182090759,0.1896526962518692
0.431289794921875,0.4144062921740114,0.2501165878033265,-0.0958148281574249,-0.1918717473745346,0.0452538020908832,0.1831758320331573
0.441317626953125,0.3509826714683324,0.1802962152652442,-0.1178466272234916,-0.057971466332674,-0.1316032707691192,0.1858965158462524
0.4513447265625,0.3183759215697646,0.1657293452523648,-0.1642927365779876,0.0885897427797317,-0.2742714583873749,0.2055394649505615
0.46137255859375,0.3185253399778157,0.2095060892671346,-0.0044797757625579,0.2019940614700317,-0.3980509340763092,0.2389096766710281
0.471399658203125,0.2256403729935176,0.2087932282900437,0.3440501687914133,0.2820315957069397,-0.4880881905555725,0.2716961205005646
0.481427734375,0.0046825009686464,0.2213692532792687,0.5896586680531501,0.3136619329452514,-0.5239511132240295,0.29048553109169
0.49145458984375,-0.2563076792621053,0.2885623095210641,0.8732049760431051,0.2877156138420105,-0.5266977548599243,0.2897124886512756
0.501482666015625,-0.4882600484140217,0.3526471706144511,1.1170225002348422,0.2254724949598312,-0.5088428854942322,0.2706160247325897
0.511509765625,-0.7483913593512028,0.4259451926678418,1.1789473337501286,0.1791373938322067,-0.4734237790107727,0.2331564575433731
0.521537353515625,-0.9842605548869818,0.5459477558162064,0.9695523036420344,0.1736238598823547,-0.4053632318973541,0.1933685690164566
0.531565673828125,-1.1268297546304762,0.6519825838886201,0.7286831078618764,0.1821795254945755,-0.2946618497371673,0.1533417254686355
0.5415927734375,-1.2455984651349483,0.7052545206751674,0.6100351011276245,0.1745490282773971,-0.1836581081151962,0.1010936945676803
0.551620849609375,-1.3204877019025385,0.6726175948340445,0.5925333467066287,0.1625289767980575,-0.0657110512256622,0.0361240655183792
0.561647705078125,-1.3479552622817457,0.6028200551822781,0.4029641300529241,0.1686574518680572,0.0649151355028152,-0.0203876793384552
0.571675537109375,-1.25668304599002,0.5669975581075996,0.1064554646372795,0.1907895654439926,0.1973187327384948,-0.0497137531638145
0.581702880859375,-1.119269256248325,0.5195530853655189,-0.1435924783766269,0.2109747380018234,0.3204910159111023,-0.0607429668307304
0.591730712890625,-0.9967071448102592,0.4383034467205405,-0.3004495119959116,0.2266811728477478,0.416747897863388,-0.0545706339180469
0.601758544921875,-0.8390272505007684,0.3612283903464675,-0.3669236793786287,0.2269530892372131,0.4804118275642395,-0.0351905450224876
0.61178564453125,-0.6486326158735901,0.3667323215249926,-0.328500132960081,0.2120076715946197,0.5106698274612427,-0.0058243721723556
0.621813720703125,-0.4373144722158089,0.3314009689681231,-0.2482470310717821,0.1758922785520553,0.5165367722511292,0.0433495678007602
0.6318408203125,-0.2598756191430613,0.3560734187360853,-0.1205973872363567,0.1194179430603981,0.529170036315918,0.0964360684156417
0.64186865234375,-0.2157495502339675,0.4232635523684322,-0.0540600914895534,0.0551244430243968,0.5451745390892029,0.1416629403829574
0.651896728515625,-0.2037244371257722,0.4844197395987808,0.0006295300751924,-0.010407724417746,0.5287322402000427,0.1686765402555465
0.661923828125,-0.1490031965800561,0.5406823095686734,0.0933703576147556,-0.0732964053750038,0.4778517782688141,0.1768846809864044
0.67195166015625,-0.0951966597264632,0.5798305900651961,0.1153606556266546,-0.1146187037229538,0.4194451868534088,0.1684633642435073
0.681978759765625,-0.0446337444365955,0.6757210407420993,0.0845838245689868,-0.1269555240869522,0.3357446789741516,0.1500452160835266
0.692006591796875,-0.0037575624352321,0.7894947194382548,0.0517833787292242,-0.1108744069933891,0.2466858923435211,0.1249132230877876
0.70203369140625,-0.0301426248073577,0.8967646422635763,0.0046533787637948,-0.0641788020730018,0.1718097776174545,0.0863109678030014
0.7120615234375,-0.2106194573365152,0.9846027924533932,-0.0534270542830228,0.0091153159737586,0.1085054948925972,0.0258473120629787
0.722089599609375,-0.3535870087478309,1.0469417597275226,-0.068143561899662,0.08876833319664,0.049830999225378,-0.0379425846040248
0.73211669921875,-0.41155769780986,1.0766913666293023,-0.0030979660153388,0.1538285464048385,-0.0017054607160389,-0.1086098030209541
0.742144775390625,-0.5001230297630652,1.083880474415794,0.0930903716295957,0.1898422092199325,-0.0552419237792491,-0.1859309673309326
0.75217138671875,-0.6283920110732316,1.05824392885603,0.1812146452844142,0.2148039191961288,-0.0957967564463615,-0.2588064074516296
0.76219970703125,-0.7293639297328889,0.9787235251564532,0.1013572647154331,0.2498535215854644,-0.1000700667500495,-0.3112262189388275
0.7722265625,-0.7756639086149633,0.9397679907530546,0.0113555067509412,0.2846819162368774,-0.0777657553553581,-0.3389856815338135
0.7822548828125,-0.8482276250444352,0.8884061253715306,-0.0447235233455896,0.3224918842315674,-0.04750532284379,-0.357068806886673
0.792282470703125,-0.9097136287510394,0.7887639209456742,-0.175681561076641,0.3504868149757385,-0.0216241534799337,-0.3625352680683136
0.802309814453125,-0.9197004774972796,0.6664516195502131,-0.2684042684376239,0.3600475490093231,0.0005349456332623,-0.354509562253952
0.812337646484375,-0.9344419734247028,0.5701718772947788,-0.3089332627028227,0.3558434247970581,0.0043593877926468,-0.3393953740596771
0.822364501953125,-0.918908304206282,0.4416681008480489,-0.356769949632883,0.339557945728302,-0.0125487558543682,-0.3132817447185516
0.832392578125,-0.8275735440723597,0.3138173814825713,-0.4435568372040986,0.3281484544277191,-0.03371387347579,-0.2690353393554687
0.842419677734375,-0.7369402102060616,0.2380338262237608,-0.5862187567323446,0.3130872249603271,-0.0491703264415264,-0.1964277327060699
0.85244775390625,-0.6123887515816837,0.2318590100463479,-0.5801040732443332,0.2847876846790313,-0.0647312253713607,-0.1131998151540756
0.862475830078125,-0.4595693759806454,0.2233522437900304,-0.4732207385838031,0.2475178092718124,-0.0766267627477645,-0.0277919713407754
0.872502685546875,-0.3905472411481663,0.3101825321115553,-0.35513445738554,0.2031271606683731,-0.06944540143013,0.0479189604520797
0.88253076171875,-0.3772953261913731,0.4802832243159413,-0.2389788519889116,0.1583391726016998,-0.0432841032743454,0.0975339189171791
0.89255810546875,-0.4178230052823201,0.6815611450724304,-0.1905547205597162,0.1264286935329437,0.0049731857143342,0.1263935416936874
0.9025859375,-0.4120063914254308,0.8543028533048928,-0.1716021828085184,0.1045082062482833,0.0700299516320228,0.1466596573591232
0.912613037109375,-0.3941432563461363,1.022107981918007,-0.1368348208099603,0.0796106904745101,0.1356408894062042,0.1589902341365814
0.922640869140625,-0.3686888989528641,1.1114674964562057,-0.1173661502301692,0.053342867642641,0.2003836631774902,0.1557385176420211
0.9326689453125,-0.3550947829622775,1.1962125029362738,-0.1814209815114736,0.0281479768455028,0.2471697032451629,0.1427033245563507
0.94269580078125,-0.2762439856199547,1.2602728871755302,-0.1939315035164356,-0.0059151845052838,0.2670304775238037,0.1263810843229293
0.952723876953125,-0.2008529368100687,1.292941377198696,-0.2245055054783821,-0.036518171429634,0.2476176172494888,0.1090068891644477
0.9627509765625,-0.1260526204349473,1.3114809502348304,-0.2801227632820606,-0.0507335923612117,0.2007598280906677,0.0926116704940795
0.972779052734375,-0.124387609832175,1.337497727283835,-0.4660620990008115,-0.0346752256155014,0.1375886052846908,0.0702685490250587
0.982805908203125,-0.1701510706847533,1.41849098001495,-0.5675526347070932,0.0033701607026159,0.0652688667178154,0.0507334619760513
0.992833984375,-0.2584546464292332,1.4989685383088889,-0.5936047753304243,0.0517588220536708,0.0013707850594073,0.0209925211966037
1.002862060546875,-0.3843955501180142,1.5390220240168273,-0.6391326007962227,0.1108708754181861,-0.0474699884653091,-0.016385743394494
1.012888916015625,-0.4919796534590422,1.570214742399007,-0.645325610217452,0.1652956157922744,-0.0660414546728134,-0.0431231372058391
1.022916748046875,-0.4753056185664608,1.5951039767228066,-0.5766846201896667,0.1965030580759048,-0.0534545592963695,-0.0547307878732681
1.032944091796875,-0.362858183505386,1.564240198034048,-0.4232224897056817,0.1890775561332702,-0.0123007027432322,-0.056370373815298
1.042971923828125,-0.3377917659837752,1.4728744582399724,-0.231743640038371,0.1372825354337692,0.052042867988348,-0.0546747408807277
1.052998779296875,-0.3648663815226405,1.3926168263070284,-0.072819152495265,0.0493373163044452,0.1171639412641525,-0.0526679679751396
1.06302685546875,-0.3058275152398273,1.2973662079036234,0.0249105693727731,-0.0457692258059978,0.1534668207168579,-0.0443836748600006
1.073054931640625,-0.1159703119575977,1.2087613111250102,-0.0019657471150159,-0.1234876587986946,0.1642518192529678,-0.0222881138324737
1.08308203125,0.0706831268472596,1.1161346114844084,-0.1211848317354917,-0.1590381860733032,0.1515472084283828,0.0037442855536937
1.09310986328125,0.1530801088964566,1.0317853263236585,-0.2432119595140218,-0.1497999727725982,0.1404177546501159,0.0149188376963138
1.10313671875,0.0658760918917134,1.012169356227666,-0.447881130144,-0.1174676045775413,0.1533846855163574,-0.0087942155078053
1.1131650390625,-0.1471212004920467,1.0380129686668516,-0.5633505068421364,-0.0846729278564453,0.1868868768215179,-0.0753493458032608
1.12319189453125,-0.4187942614672705,1.0495695509478449,-0.6693517979711294,-0.0477876141667366,0.2421357482671737,-0.1652901619672775
1.133219970703125,-0.5494873646518216,1.0595620987825094,-0.8895774341732263,-0.0028818491846323,0.3153875470161438,-0.2536944448947906
1.143247802734375,-0.5547822196569293,0.9631292848572134,-1.1288479625850916,0.0394528247416019,0.3846182823181152,-0.3136086463928222
1.15327490234375,-0.4899347766932099,0.7714021595172583,-1.197693535274267,0.0662753656506538,0.4147468507289886,-0.3377597630023956
1.163302734375,-0.3303032368592917,0.4983247847020626,-1.1392489450901746,0.057453379034996,0.4009434282779693,-0.3234652280807495
1.173329833984375,-0.1079407347589731,0.2006872613869607,-0.939409094312787,0.0097830854356288,0.3465322256088257,-0.2822468876838684
1.18335791015625,0.0009676029231399,-0.0090640348128974,-0.691107702705264,-0.0583645403385162,0.2494807839393615,-0.2285935133695602
1.193385009765625,-0.0071335782069712,-0.1465465058766305,-0.5598679254233837,-0.1168343871831893,0.1285794079303741,-0.1671966016292572
1.203412841796875,-0.0013090367719531,-0.1844813919954001,-0.4484931245625019,-0.1677111536264419,0.0263036414980888,-0.0958683714270591
1.21344091796875,-0.0359960270106792,-0.1164768001750111,-0.2552308986097574,-0.2077075242996215,-0.0486914962530136,-0.0386064164340496
1.223468017578125,-0.2321435991413891,0.0124083768047392,-0.0691074384957552,-0.2385778278112411,-0.1119596809148788,-0.014807341620326
1.23349609375,-0.390323259666562,0.1220105419699102,0.072662500628829,-0.2542864680290222,-0.1713379323482513,-0.0107483463361859
1.24352294921875,-0.3963576444599777,0.2231007532469928,0.1869523121535778,-0.2562518715858459,-0.199321374297142,-0.0119640789926052
1.25355078125,-0.4063510690774768,0.2919496138717979,0.2723071210950613,-0.2496935278177261,-0.1905636340379715,-0.0252568088471889
1.263578857421875,-0.4717055847804993,0.2982654459550976,0.3415799792855978,-0.2344173491001129,-0.157687172293663,-0.0443934872746467
1.273605712890625,-0.4807447043478489,0.1964043964359909,0.3662514792054891,-0.214071050286293,-0.1092390194535255,-0.058020181953907
1.283634033203125,-0.3557156913395971,0.0751246529586613,0.4552443523883819,-0.2034327983856201,-0.0871984288096427,-0.0626660659909248
1.293660888671875,-0.1803561287589371,-0.0422035033486783,0.574755697953701,-0.2030161619186401,-0.0951015725731849,-0.0610282383859157
1.30368896484375,-0.0398804672285914,-0.1523218013424426,0.7277695001482963,-0.2148946523666381,-0.1218045577406883,-0.0612908266484737
1.3137158203125,0.0381208371449261,-0.2278209867019206,0.8926900132358073,-0.2274391949176788,-0.1387271285057068,-0.0677347406744957
1.323743896484375,0.0943096842914819,-0.2841277611397206,0.9538456159442664,-0.2315132915973663,-0.1432252079248428,-0.0814161971211433
1.33377197265625,0.1031700862910598,-0.3372397581242025,0.9693909756004808,-0.216554656624794,-0.138451337814331,-0.1047167927026748
1.343799072265625,0.0818980195511132,-0.4012760308355093,0.9582055647194384,-0.1951473653316497,-0.1441254764795303,-0.1374832689762115
1.353826904296875,0.0218809558859094,-0.4712680701460689,0.9844634570479392,-0.167371928691864,-0.1468406766653061,-0.1808483898639679
1.36385400390625,-0.0016044395219534,-0.5315306695375591,0.9476742338329552,-0.1254681646823883,-0.1518218517303466,-0.225910410284996
1.3738818359375,0.006288213424012,-0.606123188380897,0.8616717746376991,-0.0698023661971092,-0.1667060106992721,-0.2656826972961426
1.383908935546875,0.0740307567747309,-0.7182369710408151,0.7495955475091933,-0.0018478154670447,-0.1929765045642852,-0.2833034992218017
1.393936767578125,0.2405979776233434,-0.8274798744395375,0.7065992863476276,0.0600515231490135,-0.2155856341123581,-0.2720879018306732
1.403965087890625,0.4444050515312701,-0.8914585717447101,0.7528004810303449,0.0999403446912765,-0.2186796963214874,-0.2477748394012451
1.413991943359375,0.5415393282568082,-0.9494401475269348,0.8591752816468476,0.1143520027399063,-0.2184860408306121,-0.2112174928188324
1.42402001953125,0.5964792347881943,-0.9382163773968816,0.966919617050886,0.1089356616139411,-0.2025329172611236,-0.1738341748714447
1.434046875,0.6370237188834696,-0.8516605951678007,1.017107251021266,0.0925797149538993,-0.1556213200092315,-0.1324027329683303
1.444074951171875,0.6424434789098799,-0.708289650587365,1.0551754081308842,0.0773573517799377,-0.0883959382772445,-0.0881937220692634
1.45410205078125,0.5823507196599618,-0.5783768110603094,1.0851327394992112,0.0591168366372585,-0.0136723527684807,-0.0546340681612491
1.4641298828125,0.4998374542873352,-0.456543671483919,1.0770125614076853,0.0546517819166183,0.0587983839213848,-0.0350830033421516
1.47415771484375,0.4067255649456754,-0.309193667204678,1.012757823640108,0.0606614202260971,0.1203369870781898,-0.0288139935582876
1.48418505859375,0.2793721641104668,-0.2092441503953188,0.9192191237211228,0.082850344479084,0.1594407111406326,-0.0319392159581184
1.494212890625,0.2346187205506488,-0.136273606730625,0.8694716347336768,0.1070627346634864,0.1621550172567367,-0.0340396501123905
1.50423974609375,0.3186804574742913,-0.0485720885325223,0.8075280965179205,0.1357814669609069,0.1351079493761062,-0.0217731278389692
1.51426806640625,0.3452781762164086,0.0290511763088405,0.6961737539231777,0.1695593744516372,0.0932601764798164,-0.0086471103131771
1.524294921875,0.3182376456102356,0.0968381798557937,0.6516320168852806,0.1957371830940246,0.0343851372599601,-0.0007449787226505
1.5343232421875,0.3127117948608472,0.1997827137626707,0.6888140388101339,0.2160274386405944,-0.0216058585792779,0.0092460894957184
1.544350830078125,0.3167751353096216,0.3251140707183629,0.6492740555822849,0.2214184701442718,-0.0473298653960228,0.0206263102591037
1.5543779296875,0.2455152680203318,0.4669347171168774,0.6659206544786691,0.2121995687484741,-0.0640089586377143,0.0252454169094562
1.564406005859375,0.1985787082677707,0.5814071917321533,0.727915630620718,0.1944567859172821,-0.0700812339782714,0.0235681571066379
1.574432861328125,0.1915511111859232,0.6603807752039283,0.7516501419514418,0.1737452745437622,-0.0727356150746345,0.0185442548245191
1.5844609375,0.2084418210364878,0.7317310241904109,0.7103355502665043,0.1612036377191543,-0.0801573172211647,0.0220564324408769
1.594488037109375,0.23510365452338,0.7773208089765161,0.6481617104262113,0.1552419960498809,-0.0812994539737701,0.0372872613370418
1.604515869140625,0.2840355528116226,0.839237824511528,0.6062158351004123,0.1506565660238266,-0.079411543905735,0.0536015219986438
1.6145439453125,0.2599045529766008,0.9199264682728796,0.5750462053328752,0.1501925736665725,-0.0782149285078048,0.0628302693367004
1.62457080078125,0.2019713463807478,0.9549346532899886,0.507746108520031,0.1536504179239273,-0.0763198211789131,0.0648950189352035
1.63459912109375,0.1739810042364522,1.0041076303251086,0.4101403052926063,0.1619845181703567,-0.090425968170166,0.0696443244814872
1.6446259765625,0.2315333217559382,1.053976261474192,0.352739671203494,0.1678064614534378,-0.1110630705952644,0.0877865776419639
1.65465380859375,0.2987107420371845,1.094317478082329,0.3260749516397714,0.1579959839582443,-0.124264046549797,0.1151686459779739
1.664680908203125,0.3168217509303241,1.1365046148180962,0.355291109251976,0.1309252232313156,-0.1192666217684745,0.1486134231090545
1.674708984375,0.3084643665494397,1.1545585962943732,0.3547714692920446,0.0933319330215454,-0.0977002382278442,0.1762300878763198
1.684737060546875,0.3034363092543557,1.158380492670089,0.3101303635329008,0.0586953945457935,-0.066632866859436,0.2081068009138107
1.694763916015625,0.3282449526226147,1.195564560421556,0.2116150442451238,0.0295729264616966,-0.047284547239542,0.2499787807464599
1.704791748046875,0.4208715061327442,1.2627455608993767,0.152839030149579,-0.0078655248507857,-0.0453622788190841,0.2922713756561279
1.714819091796875,0.4394548452453687,1.3266371644429862,0.0938145942509174,-0.0474598035216331,-0.0523375496268272,0.3224799931049347
1.7248466796875,0.3802082910286262,1.3856345662042495,0.0558078119397163,-0.0809072405099868,-0.0677623152732849,0.3365321457386017
1.734873779296875,0.3412066889937967,1.4555119661591946,0.0038619361251592,-0.1084056869149208,-0.0700706839561462,0.3402770459651947
1.74490185546875,0.2924501472724601,1.4916096999786794,-0.0795996064156293,-0.1183648407459259,-0.0579655542969703,0.3358391523361206
1.754929931640625,0.2075788840642198,1.4801196070626377,-0.2037730985730886,-0.1150804981589317,-0.0467805787920951,0.3263150453567505
1.76495703125,0.1708457384180277,1.440374602781981,-0.3364998995423316,-0.0975015014410018,-0.0516064912080764,0.3163617551326751
1.77498486328125,0.096820278872922,1.3696193970791994,-0.5240981083840132,-0.0718052983283996,-0.0683014839887619,0.2959789335727691
1.785011962890625,0.0379198894790373,1.2509696367792784,-0.6659685852736235,-0.0546540133655071,-0.104681059718132,0.2818026542663574
1.7950400390625,0.0527570825995877,1.129695811586082,-0.7035369761675596,-0.0576849803328514,-0.1431002914905548,0.2781041860580444
1.80506689453125,0.0843268723995424,1.0070987749651077,-0.7079080308586359,-0.0869517922401428,-0.1814521998167038,0.2823385894298553
1.815094970703125,0.0392780260897241,0.896335457066074,-0.7083581127136945,-0.1266393363475799,-0.2184931635856628,0.2976591289043426
1.825123046875,0.0098399328225292,0.8216988068200647,-0.6914946561962366,-0.1711868345737457,-0.2584110200405121,0.3271994590759277
1.835149658203125,-0.0005806128995493,0.7754653903681784,-0.6824281371653079,-0.2005455791950225,-0.2860014140605926,0.3568391501903534
1.845177978515625,-0.1456769291010219,0.755643084045127,-0.7801186960667371,-0.2040721327066421,-0.2654806673526764,0.3622754514217376
1.855204833984375,-0.4231366745857521,0.7087895629335195,-0.9396060781896114,-0.1858962178230285,-0.189685970544815,0.3359716236591339
1.865233154296875,-0.633123204313591,0.5671786868281662,-1.031204749956727,-0.1765844821929931,-0.1060374155640602,0.2842304110527038
1.875259765625,-0.7197984482038766,0.3586679652739316,-1.0591735378563405,-0.1820150464773178,-0.0489302016794681,0.2157225906848907
1.8852880859375,-0.7758398497037589,0.1155382772158831,-1.192173310548067,-0.1631601303815841,-0.0064645013771951,0.1409641951322555
1.895316650390625,-0.8294930408928542,-0.1291241733673959,-1.4955121142446994,-0.1031944975256919,0.0276782512664794,0.0765368789434433
1.90534375,-0.79422445137389,-0.3703545306101441,-1.7616069366961715,-0.0315115191042423,0.0317568853497505,0.0374664440751075
1.915371337890625,-0.6869108355373144,-0.6444986578740179,-1.8578671705335377,0.036208301782608,-0.0084253214299678,0.0190122872591018
1.925398681640625,-0.5548688384944572,-0.9227675369177012,-1.828418957731128,0.0878637731075286,-0.079733595252037,0.0311339329928159
1.935426513671875,-0.4539173050357029,-1.1299801084201782,-1.7958014672428368,0.1224775686860084,-0.173305332660675,0.0639945343136787
1.94545361328125,-0.40279567815084,-1.257436494705826,-1.6149837123215198,0.1362317353487014,-0.2781475782394409,0.1150438711047172
1.9554814453125,-0.2839618482545949,-1.3359518130160868,-1.366679982626438,0.1388028860092163,-0.3667170703411102,0.1897263526916504
1.965509521484375,-0.1633554191952571,-1.3491877266861498,-1.1015350082457065,0.1246979832649231,-0.4127476811408996,0.2773829400539398
1.97553662109375,-0.1766593200676143,-1.2803893541395663,-0.7380284438341855,0.0964256450533866,-0.406522125005722,0.3733449578285217
1.985564697265625,-0.1692339923724532,-1.201334302929416,-0.2739706703931093,0.04633105173707,-0.3556341826915741,0.4757429659366607
1.99559130859375,-0.1135649587157648,-1.1486387047261,0.1812117226749658,-0.0118550155311822,-0.2730163633823395,0.577163815498352
2.00561962890625,-0.0562908644826151,-1.10882107360065,0.5762123265028,-0.0695561319589614,-0.1855315268039703,0.6736605167388916
2.015646484375,-0.0656699748603627,-1.0659750345647334,0.8990320757389068,-0.1123751029372215,-0.0944681838154792,0.7568545341491699
2.0256748046875,-0.1995977856498211,-0.9866060950998216,1.0852893913656472,-0.1344303339719772,-0.0153137110173702,0.8180633187294006
2.035702392578125,-0.4029139342356473,-0.8817834192961453,1.215506255340576,-0.1278222799301147,0.0423593185842037,0.8473708033561707
2.0457294921875,-0.5819393623800948,-0.7452749808963388,1.2384323728978632,-0.092620626091957,0.0870189294219017,0.8586905598640442
2.055757568359375,-0.73480546319969,-0.6307714535556733,1.2078443424105645,-0.0456435568630695,0.1198243498802185,0.8557329773902893
2.065784423828125,-0.8822858889255673,-0.5354894171006978,1.2401304089874028,-0.003819145495072,0.138836920261383,0.8445535898208618
2.0758125,-0.9734747377827764,-0.4802401158265769,1.2556903816908598,0.0380412489175796,0.154713362455368,0.8236477375030518
2.085839599609375,-1.0537368266951292,-0.3958323054116219,1.1890806052297354,0.0832084640860557,0.1668307483196258,0.79926598072052
2.095867431640625,-1.0988209269814193,-0.3671494509585201,1.0789923370480536,0.1382810920476913,0.1873374879360199,0.7718978524208069
2.1058955078125,-1.1716498702183364,-0.3688428839381784,0.9443535649776458,0.1978059411048889,0.2200091481208801,0.7396112680435181
2.115922607421875,-1.2147001996546982,-0.3799352097082883,0.8065706496626138,0.2456432282924652,0.2747590541839599,0.714270293712616
2.12595068359375,-1.1763090942010284,-0.4170277997840195,0.7379577166855334,0.2683818340301513,0.3273873627185821,0.6938446164131165
2.135977783203125,-1.0725741405688225,-0.475182978567481,0.6645470280379057,0.2639883756637573,0.3707859516143799,0.6873638033866882
2.14600537109375,-0.9150677761953324,-0.5505985042314976,0.5451812284231186,0.2493359148502349,0.4083729982376098,0.7031739354133606
2.15603271484375,-0.7681305174354464,-0.5554174488205462,0.4330874656379223,0.2236478328704834,0.4181957840919494,0.7310700416564941
2.166060546875,-0.7405095200601964,-0.5331003300070762,0.3481079197496176,0.1921074837446212,0.404560387134552,0.7575703263282776
2.176088623046875,-0.7459836406223476,-0.4654448438853025,0.2962777792692184,0.1620302051305771,0.369295984506607,0.7876728177070618
2.186115478515625,-0.716486766372621,-0.3880556069955229,0.2708855638593435,0.1329317092895507,0.319201648235321,0.8204268217086792
2.1961435546875,-0.666118149812147,-0.3165358466610312,0.3102566202610731,0.1078885048627853,0.2603884637355804,0.8519313931465149
2.206170654296875,-0.6823315449230373,-0.2112598010666668,0.3572323064476251,0.0883638113737106,0.2105942964553833,0.8724268078804016
2.216198486328125,-0.7318105922326446,-0.1119239591762423,0.3885065656334162,0.0813092514872551,0.167723923921585,0.899458646774292
2.2262255859375,-0.7459825446438044,0.0165074826866388,0.4564204104304313,0.0676634833216667,0.1258334517478943,0.9213269352912904
2.236253662109375,-0.7720349044628441,0.1947005881927907,0.6028273617058992,0.049910619854927,0.0860050395131111,0.9435229301452636
2.24628173828125,-0.8623764888409524,0.3639899640142917,0.716667675897479,0.0395919345319271,0.0810041576623916,0.958152174949646
2.25630859375,-0.9974605935260652,0.5112009251490235,0.7293062081962823,0.0307218618690967,0.1154567375779151,0.9619711637496948
2.26633642578125,-1.0808711365319787,0.6097825876712799,0.8031780846148728,0.0085920598357915,0.166920468211174,0.9622893929481506
2.27636376953125,-1.1704661403264849,0.6827152835436165,0.8760708868682384,-0.0255762431770563,0.2281921952962875,0.955369770526886
2.2863916015625,-1.2702094670392572,0.7608838342428207,0.8158493501394987,-0.0565075241029262,0.2962274253368377,0.9526528120040894
2.29641845703125,-1.3485435835637152,0.8304733571670949,0.7459218274325132,-0.0868239626288414,0.3593814074993133,0.943396806716919
2.306446533203125,-1.4670739552676677,0.8913969046853483,0.6305506504118442,-0.1029914766550064,0.4056271910667419,0.9206632971763612
2.316474609375,-1.5906154331319031,0.9140401136480272,0.4045025916665792,-0.099088005721569,0.4341252744197845,0.8912466168403625
2.32650146484375,-1.6199430882945656,0.8889088872618973,0.1755781007021665,-0.0774482190608978,0.4474022090435028,0.8598817586898804
2.336529541015625,-1.619147554002702,0.8836446831233798,-0.0028156419426202,-0.0526948124170303,0.4595424234867096,0.825452446937561
2.346556396484375,-1.700756746675074,0.8752052099496126,-0.1553127267867326,-0.0394144281744957,0.4784713685512543,0.7839649319648743
2.356584716796875,-1.7619919904910026,0.8314118070609867,-0.2383493219137191,-0.0442017465829849,0.4947613477706909,0.7439890503883362
2.366611572265625,-1.7697065103910865,0.7638708872295915,-0.2809270654022693,-0.0617620944976806,0.5087985992431641,0.7162263989448547
2.3766396484375,-1.7158898722685874,0.6482990730702877,-0.3658165949195623,-0.087246149778366,0.5209540128707886,0.7023499011993408
2.38666748046875,-1.6119715248934925,0.5040130594715476,-0.474381014534831,-0.1196562871336937,0.5260018110275269,0.7050727009773254
2.396694580078125,-1.46466397151649,0.3592592822305858,-0.565499793830514,-0.1592907607555389,0.5141196250915527,0.7188066840171814
2.406722412109375,-1.2987252212971447,0.2502916886419057,-0.5942647005438805,-0.2010121196508407,0.4813297390937805,0.7381370067596436
2.41674951171875,-1.1575156925342975,0.1855649494484066,-0.6243132173269986,-0.242300733923912,0.4298087358474731,0.7623401284217834
2.426777587890625,-1.055493534169346,0.1949636961083859,-0.5956073473244905,-0.2786225378513336,0.3884468972682953,0.7785981893539429
2.436804443359375,-1.048693791026622,0.2356520456537604,-0.5453992550879716,-0.3049772977828979,0.3533392548561096,0.7787171006202698
2.44683251953125,-1.098898083870858,0.2522126467671245,-0.5137129079699516,-0.327877014875412,0.3151492476463318,0.765620768070221
2.456860595703125,-1.0898000737231224,0.2598226833794266,-0.3606511749804019,-0.3419479429721832,0.2686310112476349,0.7371582984924316
2.4668876953125,-1.0830515493109822,0.2944748215004801,-0.2621492996960878,-0.3387023508548736,0.2234576940536499,0.6989871859550476
2.47691552734375,-1.1582656341187656,0.310720657576248,-0.1977268041461706,-0.3225656151771545,0.1823620796203613,0.6506344079971313
2.486942626953125,-1.243278059363365,0.3277415696777403,-0.0860521435558795,-0.3016288876533508,0.1386436372995376,0.6022292971611023
2.496970458984375,-1.2846505187153816,0.3004983195737004,0.0007037643551826,-0.2712770104408264,0.1005155146121978,0.5609659552574158
2.50699853515625,-1.3262697924353182,0.2708545111339539,-0.0287795197606086,-0.2287971824407577,0.0844502598047256,0.5431334376335144
2.517025390625,-1.302303956566751,0.2089878375466912,-0.0286216988503932,-0.1929427087306976,0.0953550711274147,0.5548680424690247
2.5270537109375,-1.2484991550125182,0.1357207951534539,0.0456844773322343,-0.1895807236433029,0.1198244616389274,0.5877535343170166
2.53708056640625,-1.2583648615971208,0.0549102055128663,0.1622661991864442,-0.2247975170612335,0.1505831182003021,0.6277839541435242
2.547108642578125,-1.2448811106458306,0.0202627435669302,0.2902022587478161,-0.2960650324821472,0.1731965541839599,0.6797429919242859
2.557135498046875,-1.208463570287451,0.0529286032415926,0.3490630285173654,-0.3835925459861755,0.1974274516105651,0.7381044626235962
2.56716357421875,-1.2486524458780883,0.1486244811944663,0.3161760734379291,-0.4673641324043274,0.2366603463888168,0.7900992631912231
2.577191650390625,-1.318972328903526,0.2104597367301583,0.1857575494110584,-0.5245782136917114,0.29469895362854,0.824599027633667
2.587218505859375,-1.4612725755125284,0.2589426856745034,-0.0829687905877828,-0.5466440916061401,0.3834791779518127,0.843207836151123
2.597246337890625,-1.6310212394088506,0.3790321233887225,-0.4394564161479473,-0.5428267121315002,0.5042469501495361,0.8347676396369934
2.607273681640625,-1.8910456559054551,0.4765750905130058,-0.8155717022418976,-0.5207821726799011,0.6136322617530823,0.7919743657112122
2.617301513671875,-2.067673850182444,0.4636699431672692,-1.1369868453770875,-0.4857891201972961,0.6544775366783142,0.7238442301750183
2.627328369140625,-1.999058432987332,0.337467283269763,-1.3099468725353478,-0.4529744386672973,0.6008851528167725,0.6624770164489746
2.6373564453125,-1.828383009634912,0.1608736123168841,-1.4235767588466406,-0.4059005081653595,0.4637290239334106,0.6143110394477844
2.647384521484375,-1.710189760930836,-0.0451439407147467,-1.5639987904936077,-0.3392242789268493,0.2692591547966003,0.5842702984809875
2.65741162109375,-1.5408125606954095,-0.2082248172849416,-1.6121137098431586,-0.2613059878349304,0.0508693046867847,0.5887219905853271
2.667439453125,-1.343892396757007,-0.3791554575074464,-1.4926064559310674,-0.1998620778322219,-0.1549094170331955,0.6254246234893799
2.677466552734375,-1.1980804157000031,-0.4806626520875841,-1.127049388730526,-0.1861307024955749,-0.3163596093654632,0.6838161945343018
2.68749462890625,-1.0805695232369006,-0.5823672324033454,-0.6348451327353716,-0.2192119508981704,-0.4216487407684326,0.7595727443695068
2.697521484375,-0.9363351667601616,-0.6720107880473136,-0.1248053603202104,-0.2752159237861633,-0.4692352712154388,0.8482354283332825
2.707549560546875,-0.7831773529849946,-0.7163325987242162,0.2649894915580749,-0.3323255479335785,-0.4713836312294006,0.9470195770263672
2.717577392578125,-0.6409491486988962,-0.7340710845105349,0.6523825429916381,-0.3807718455791473,-0.4549809396266937,1.0503102540969849
2.7276044921875,-0.5179193466838449,-0.7506417686264961,1.014715971970558,-0.4195290803909302,-0.4202794134616852,1.149084448814392
2.737632568359375,-0.4783302636172622,-0.7206373832460492,1.293074063667655,-0.4552471935749054,-0.3812835812568664,1.228657603263855
2.747659423828125,-0.4550445920325815,-0.6845782278712839,1.5411667809605598,-0.4752033054828644,-0.347427099943161,1.2884184122085571
2.757687744140625,-0.4289174134116619,-0.6808548964992165,1.626633818104863,-0.4778696298599243,-0.2978935837745666,1.3380714654922483
2.767714599609375,-0.4372868900891393,-0.6194251530244946,1.6310925510793923,-0.4607830643653869,-0.2402830123901367,1.3832604885101318
2.77774267578125,-0.4063005809992551,-0.4985248738514259,1.645190634536743,-0.4382961988449096,-0.1694596707820892,1.4247163534164429
2.7877705078125,-0.4473102714534848,-0.3635636283610016,1.6015554909497498,-0.4117103815078735,-0.0845735445618629,1.43768572807312
2.797797607421875,-0.6112417735036462,-0.2890868631181307,1.4848013351380824,-0.3823599517345428,-0.0018704929389059,1.4137758016586304
2.80782568359375,-0.7928845080070197,-0.2049347810299135,1.2915636591047048,-0.3356236219406128,0.0698937103152275,1.362946391105652
2.8178525390625,-0.903698752375692,-0.1157742779288441,1.015035120922327,-0.2614684104919433,0.1267193853855133,1.3061565160751345
2.827880615234375,-1.0586982484947889,-0.0512532767407828,0.6367804847121238,-0.1508819460868835,0.1614014655351638,1.2382704019546509
2.83790771484375,-1.1993009704709052,-0.027603215123387,0.3335667686998844,-0.0271270498633384,0.1604232341051101,1.175786018371582
2.847935302734375,-1.2356009488642214,-0.078478347300738,0.1438824012339115,0.0770779177546501,0.1432061642408371,1.1330934762954712
2.857963623046875,-1.1680891089968382,-0.2090451206918805,0.0455073671996593,0.1289466619491577,0.1230052709579467,1.1161160469055176
2.867990478515625,-1.0869377430945637,-0.3396365536002442,0.0464127916067838,0.1390877217054367,0.09933802485466,1.1218348741531372
2.878018798828125,-1.0129645982585846,-0.4737884554691612,0.0330973829597234,0.1237440630793571,0.0709303468465805,1.1536202430725098
2.88804541015625,-0.9350387702740728,-0.5423999271415174,0.005803717842698,0.0943797826766967,0.0287296269088983,1.2053941488265991
2.898072998046875,-0.8547047851692885,-0.5450378744296729,-0.0024099837511777,0.060849130153656,-0.0281891953200101,1.2620790004730225
2.90810009765625,-0.8548942433267831,-0.5125505861923099,0.0385918887227773,0.0332555845379829,-0.0852801725268364,1.314799666404724
2.918128173828125,-0.927181773163378,-0.4044077895225957,0.0961146878868341,0.0174184441566467,-0.1269799619913101,1.353164792060852
2.92815576171875,-1.0293394675415009,-0.2618661719057709,0.1828939766734838,0.0153773985803127,-0.1563375890254974,1.3714252710342407
2.93818310546875,-1.0837242609407751,-0.1032696559417061,0.2649965058207512,0.029252927750349,-0.1747606843709945,1.380870699882507
2.9482109375,-1.1077680574163793,0.0501828116647899,0.4087228397101163,0.0536328367888927,-0.174281045794487,1.3796250820159912
2.958238037109375,-1.1423962301399555,0.194011692613177,0.5418061990320682,0.0821310505270958,-0.1551372706890106,1.3664277791976929
2.96826611328125,-1.1800798449113965,0.3413630120666697,0.6610422347873449,0.1066185534000396,-0.1303224712610244,1.3424373865127563
2.97829296875,-1.1722370224565266,0.472366752102971,0.7833072629749774,0.1239828169345855,-0.0969120115041732,1.3131965398788452
2.9883212890625,-1.1653146758474409,0.5398204320423304,0.8550602475434541,0.1261879205703735,-0.0711728259921073,1.2809523344039917
2.998348876953125,-1.1012487386502323,0.5664643645463511,0.9308440950632096,0.1242234781384468,-0.0444271005690097,1.2511948347091677
3.008376220703125,-1.0450827609226108,0.6233059399805962,0.8832838869869708,0.1219430118799209,-0.006582782138139,1.2253952026367188
3.018404052734375,-1.0536528016734867,0.6830386702790856,0.8196697852104902,0.1202920973300933,0.0238998308777809,1.1968058347702026
3.02843115234375,-1.052393741523102,0.684762279201299,0.7498965762823819,0.1207514926791191,0.0506406351923942,1.1660747528076172
3.038458984375,-0.99906057606861,0.6568565466005355,0.6312152518004178,0.1242287009954452,0.0623698346316814,1.1373908519744873
3.048486083984375,-0.9570096329331398,0.6263846167735755,0.5377601385116577,0.1291353106498718,0.0623935349285602,1.1097209453582764
3.05851416015625,-0.9314094738610088,0.6116606199702248,0.4173001139193773,0.1394981741905212,0.0641842409968376,1.0836442708969116
3.068542236328125,-0.9071037385135888,0.5814052555033937,0.3114513830035925,0.1508025079965591,0.0556083284318447,1.0621956586837769
3.07856884765625,-0.8403924744393676,0.5865190913857892,0.2924175967097282,0.1472602188587188,0.0339872874319553,1.042119026184082
3.08859716796875,-0.776844935093075,0.6028504137879237,0.2830751833468675,0.1458112001419067,0.0085287997499108,1.023754358291626
3.0986240234375,-0.7844242843061685,0.614439181305468,0.286561856418848,0.1383500844240188,-0.0094703566282987,1.0037280321121216
3.10865234375,-0.8244562888346612,0.6268167976457625,0.2575426826834678,0.1241229400038719,-0.0305708479136228,0.9826547503471376
3.118678955078125,-0.8357118423424661,0.6448276706326752,0.308065247696638,0.1050712093710899,-0.0769903138279914,0.9582642316818236
3.12870703125,-0.7604010191619396,0.6689758773308246,0.3581266249388456,0.0951855555176734,-0.1205873265862464,0.9416170716285706
3.138735107421875,-0.7111805497232824,0.6968488767057657,0.3027121962308883,0.1029980331659317,-0.1589415520429611,0.92359060049057
3.148761962890625,-0.7082233804181218,0.7346527568560093,0.2986363250941038,0.1165505945682525,-0.1738283485174179,0.9059250354766846
3.1587900390625,-0.7053804120771586,0.7488448752723634,0.3255746009021997,0.1279867589473724,-0.1705621480941772,0.8947749733924866
3.168817138671875,-0.6711386813879012,0.7495934286173432,0.3405477136284113,0.132278174161911,-0.152475818991661,0.8900670409202576
3.178844970703125,-0.6860358062684535,0.7288008159574121,0.3318985432267188,0.1183231994509697,-0.1252391636371612,0.8838813900947571
3.1888720703125,-0.667817720271647,0.6785593329079449,0.3594938216388225,0.0862781852483749,-0.1125872880220413,0.8848225474357605
3.198900146484375,-0.5981958294477313,0.6056450494751334,0.3613882570832967,0.0448484718799591,-0.1069790869951248,0.8880943059921265
3.20892822265625,-0.5924258677441626,0.5643778771284967,0.3211795808136463,0.0057098567485809,-0.105785459280014,0.8882165551185608
3.218955078125,-0.5783613212302327,0.5451974489055573,0.2142781259745359,-0.0164864435791969,-0.1104315593838691,0.8912642002105713
3.22898291015625,-0.5363056288544088,0.4850960314251482,0.0558054738521575,-0.0218415278941392,-0.100494772195816,0.8963724374771118
3.23901025390625,-0.5449038727864622,0.4347286569736898,-0.0377519307672977,-0.0308468993753194,-0.0685091689229011,0.898859441280365
3.2490380859375,-0.6126767016775906,0.400338823050633,-0.0695288787782192,-0.0490884855389595,-0.0278924982994794,0.8921821117401123
3.25906494140625,-0.6622059448044747,0.347211847692728,-0.1404670398324728,-0.0770208165049552,0.0130033437162637,0.8774400353431702
3.269093017578125,-0.6997109881386161,0.2844976173654198,-0.2566407654076814,-0.1054218336939811,0.0409074127674102,0.8606847524642944
3.27912109375,-0.7251609250850976,0.1918727443557232,-0.4635474858313799,-0.1211164742708206,0.0404882505536079,0.847076416015625
3.289148193359375,-0.7258552640248089,0.1193492868714034,-0.6802198134660721,-0.1297648251056671,0.0057574356906116,0.8360418677330017
3.299176025390625,-0.768741415875405,0.0886294466979801,-0.8599836754202842,-0.1194905862212181,-0.0492647960782051,0.8098520636558533
3.309202880859375,-0.873906402310729,0.0093986005295068,-1.0847861180186271,-0.0884149596095085,-0.108396291732788,0.7677298784255981
3.319231201171875,-0.965678823209554,-0.0834867135146632,-1.2950731285303831,-0.0422516018152236,-0.1541989147663116,0.7171517610549927
3.329259033203125,-0.9860726458102465,-0.1743293792827054,-1.4020359581679105,0.0005587157793343,-0.193835824728012,0.6730104088783264
3.3392861328125,-0.9141730193126946,-0.2776878642853349,-1.3861889852166176,0.0288692153990268,-0.2275168001651764,0.6373371481895447
3.34931396484375,-0.8982357377294451,-0.3570817189957946,-1.3815993193387983,0.0544065348803997,-0.2383066117763519,0.6056580543518066
3.359341064453125,-0.9688435708507896,-0.4049465360417962,-1.452358032172918,0.0773437023162841,-0.2084852159023285,0.5775078535079956
3.369369140625,-1.0392214676737783,-0.4581093133654445,-1.5207804110139609,0.0846990868449211,-0.1540089249610901,0.5523582696914673
3.37939599609375,-1.0647123942177743,-0.5547180683795362,-1.4838830512493848,0.0616275817155838,-0.1183941066265106,0.5400865077972412
3.389424072265625,-0.9259680865246802,-0.7367295631300658,-1.405106451654434,0.0336880907416343,-0.115053966641426,0.560943603515625
3.3994521484375,-0.7051198614448309,-0.8812962933663279,-1.251769408854842,0.0008277546148747,-0.1568999588489532,0.6186109781265259
3.409478759765625,-0.4680922165889292,-0.978590765622258,-0.9600953239887952,-0.0383542664349079,-0.2118207365274429,0.6945413947105408
3.419507080078125,-0.3569238615529611,-0.9851889217782764,-0.6748059717237949,-0.073012575507164,-0.2645570337772369,0.7612832188606262
3.429533935546875,-0.4505543314086273,-0.8601154120411724,-0.3149088299810886,-0.093899480998516,-0.3203441202640533,0.803957462310791
3.439562255859375,-0.6232765677556396,-0.7037372479800135,-0.0281008898466825,-0.0969500765204429,-0.348194807767868,0.8179436922073364
3.449589111328125,-0.8302908402070402,-0.5350491990525276,0.1965723734140396,-0.0838686302304267,-0.3442868888378143,0.812084972858429
3.459616943359375,-1.028778034266457,-0.346108379962854,0.3949631944268941,-0.0531104542315006,-0.3056526780128479,0.7964509129524231
3.46964501953125,-1.2230791017476468,-0.2173646207477897,0.506350854769349,-0.016800383105874,-0.2192541360855102,0.7807494401931763
3.479672119140625,-1.3370757024794817,-0.1930638173038139,0.5203992538660764,0.0079864133149385,-0.1190401539206504,0.7741662263870239
3.489699951171875,-1.3464865049034356,-0.2239162708809599,0.5529401719868183,0.0160786937922239,-0.019623814150691,0.7752652764320374
3.49972705078125,-1.3661356466166674,-0.3174045557869598,0.5352326658606529,0.0183325987309217,0.0617798529565334,0.7765101194381714
3.5097548828125,-1.4704466465711592,-0.4125678612330928,0.4129132771372795,0.0251287203282117,0.1312832981348037,0.7733801007270813
3.519781982421875,-1.460703689583391,-0.5194225908536464,0.2430617373883724,0.0396287217736244,0.1745341122150421,0.7841804027557373
3.52981005859375,-1.3181314941652118,-0.6548818124614656,0.1613426546007394,0.042604275047779,0.2063303887844085,0.7987127304077148
3.539838134765625,-1.126777001529932,-0.8143159300271421,0.1238058278888463,0.0329673178493976,0.2316664904356002,0.8180898427963257
3.549865234375,-0.9569611176162958,-0.9421506481058896,0.1549368792116641,-0.0010963766835629,0.2486675828695297,0.8356632590293884
3.559892822265625,-0.8515627608165145,-0.9767488640826196,0.2347632801204919,-0.0472254753112793,0.2473444938659668,0.8385798335075378
3.569920166015625,-0.808755154094845,-0.929907837126404,0.2845511011183261,-0.0836982652544975,0.2200425565242767,0.8240363001823425
3.579947998046875,-0.7882133743908256,-0.8448917586199939,0.2962526448279619,-0.0985833629965782,0.1637001782655716,0.7998844981193542
3.589975341796875,-0.7890021136157214,-0.7691237662564963,0.3262479701191186,-0.0825644508004188,0.0741529837250709,0.7598603963851929
3.6000029296875,-0.770343955701217,-0.7189908581480383,0.3789963944882154,-0.0368828997015953,-0.0221455376595258,0.7141847610473633
3.610031005859375,-0.7365933695297687,-0.6543341154508292,0.5112473946392536,0.0218067783862352,-0.108856201171875,0.6700647473335266
3.62005810546875,-0.664572089413926,-0.5659705166148021,0.7161147181898355,0.0688058659434318,-0.1683161258697509,0.634929895401001
3.630086181640625,-0.5844805712955072,-0.4911772145023569,1.0422089590519663,0.0873968601226806,-0.1996556669473648,0.6054900288581848
3.640113037109375,-0.5208557654619217,-0.4333749773424118,1.318185124048591,0.0937312841415405,-0.1914238929748535,0.5874815583229065
3.65014111328125,-0.4759609041374176,-0.362986047668755,1.510674612063169,0.084374263882637,-0.1461983621120453,0.5777237415313721
3.66016796875,-0.4192227525450289,-0.2603929210154339,1.6756512392520904,0.059177279472351,-0.0913705080747604,0.5662657618522644
3.670196044921875,-0.397405107686296,-0.2115619988836348,1.8141227213531728,0.0288619846105575,-0.0281643755733966,0.5583905577659607
3.680223876953125,-0.3912488866114988,-0.1306806090291589,1.846675329911709,0.0009637067560106,0.0466452650725841,0.5417105555534363
3.690251220703125,-0.398628146675229,-0.0601999824840575,1.809483371114731,-0.0148328337818384,0.10616185516119,0.5193080306053162
3.700279052734375,-0.4489806523511186,0.025758929830417,1.734750493952632,-0.0180681459605693,0.1580411344766616,0.4881026744842529
3.710305908203125,-0.4917192124245688,0.0943278410026803,1.593362247622013,-0.0160798300057649,0.2036847919225692,0.4526879489421844
3.720333984375,-0.5643528157524764,0.1539923283705487,1.4539181210964918,-0.0067922314628958,0.2258574664592743,0.4058718383312225
3.730361083984375,-0.644183308314532,0.197474656016007,1.3054063064962624,0.0074104061350226,0.2344035506248474,0.3550986647605896
3.74038916015625,-0.7746637916617095,0.2189612788220867,1.101233979472518,0.0303474552929401,0.2399984151124954,0.2988949120044708
3.7504169921875,-0.9445697650115936,0.215418382050842,0.8618348562449216,0.0608510375022888,0.2391965389251709,0.2430747747421264
3.760444091796875,-1.0003229972198604,0.1434303466174751,0.6470160475224256,0.0946164578199386,0.2314007431268692,0.1989414989948272
3.77047216796875,-0.9724784932870416,0.0950944779936224,0.4850660746783017,0.1194744035601615,0.2072341591119766,0.1709591448307037
3.7804990234375,-0.984859835954383,0.0390524189066141,0.3591536298990249,0.128711849451065,0.1827971786260604,0.1493331044912338
3.790527099609375,-0.976914356842637,-0.032687925375998,0.2376753681749105,0.1211023926734924,0.1672046333551406,0.1426166146993637
3.80055419921875,-0.935518881941214,-0.0504711270868778,0.1434603764295577,0.1054447889328002,0.1653190553188324,0.1423239558935165
3.81058203125,-0.8957111876878887,-0.0732519178893417,0.0086328037887811,0.0825791507959365,0.1887926906347274,0.146938145160675
3.82060986328125,-0.9037138038143516,-0.0825228003859519,-0.0658592503547668,0.0365315675735473,0.2205760776996612,0.1421224027872085
3.830636962890625,-0.919570348311588,-0.0995386709861457,-0.1372030696004629,-0.0216989815235137,0.2373867481946945,0.135978490114212
3.8406650390625,-0.8651384278349578,-0.1229755145445466,-0.2769336118519306,-0.0649598091840744,0.2489062845706939,0.1342791318893432
3.850692138671875,-0.7782012450728565,-0.1851425593178719,-0.4784463642776012,-0.0924761146306991,0.2516956925392151,0.1392208933830261
3.860719970703125,-0.6973571184888482,-0.1882414751812815,-0.6224369020611047,-0.109824538230896,0.2638432085514068,0.1423014551401138
3.8707470703125,-0.6689784346140921,-0.2283724831048399,-0.6840706436753272,-0.1426868885755539,0.2796711921691894,0.1340302079916
3.880775146484375,-0.6444790033254773,-0.2697555369161069,-0.636157384377718,-0.1927971988916397,0.2793325185775757,0.1160717904567718
3.89080322265625,-0.6225918734271079,-0.2577667006976902,-0.626504005369544,-0.2341504991054535,0.2635492980480194,0.0932101532816886
3.90083154296875,-0.5433817412531003,-0.247515757655166,-0.6726894179612398,-0.2625775337219238,0.2388241291046142,0.0713193118572235
3.910859619140625,-0.4722469981808215,-0.2053766247795894,-0.7032435461789369,-0.2780483663082123,0.2067077308893203,0.0453388467431068
3.920886474609375,-0.4782426949316635,-0.1073525230748578,-0.6761632315516471,-0.2898038923740387,0.1763059943914413,0.0174302048981189
3.930914794921875,-0.5805076125439256,0.0754055887918919,-0.6160141755372286,-0.3013779819011688,0.1705466359853744,-0.036696683615446
3.94094140625,-0.8126574952956288,0.2684847497953102,-0.6526391481012106,-0.3043147027492523,0.1934642940759658,-0.1165522933006286
3.950969482421875,-1.146518424636498,0.4365657727403566,-0.8631365864932536,-0.2770511209964752,0.248479351401329,-0.2220678031444549
3.96099755859375,-1.4634709623396396,0.5951637682754546,-1.102844921800494,-0.2347404360771179,0.3075880110263824,-0.3479529321193695
3.971024658203125,-1.6924122583083807,0.7129268088687211,-1.3568494934856892,-0.1731258034706115,0.3499136567115783,-0.4761953353881836
3.981052490234375,-1.804868132404238,0.7037742920547724,-1.6201725131362676,-0.1075977906584739,0.347459614276886,-0.598612904548645
3.99107958984375,-1.7860265076816082,0.5320891071379185,-1.7870576042950153,-0.0492780208587646,0.2823277413845062,-0.6918498873710632
4.001107421875,-1.567743383849412,0.228318816688843,-1.8933406349748367,0.0031622545793652,0.1588905453681945,-0.7451167106628418
4.0111357421875,-1.2774082925021648,-0.1253728214772418,-1.8839006064563988,0.0424992740154266,-0.0116343088448047,-0.7466496229171753
4.021162353515625,-0.9116963270008565,-0.4477132262311875,-1.717207822999358,0.0685846135020256,-0.1937310844659805,-0.6982564926147461
4.031190673828125,-0.5807519792264327,-0.7416494108103215,-1.4270856437504291,0.0704530850052833,-0.3556486070156097,-0.6104555130004883
4.0412177734375,-0.3184198337767273,-0.9466058739490808,-0.9822878665745258,0.0484839975833892,-0.4726457297801971,-0.5000485777854919
4.05124560546875,-0.1162893513115122,-1.054908866149187,-0.5150982248485088,0.0065416097640991,-0.5183732509613037,-0.3759120106697082
4.061272705078125,-0.0037021789861842,-1.089526152152568,-0.0546639026015996,-0.0480505228042602,-0.5038086175918579,-0.251849353313446
4.071300537109375,0.0790156507815234,-1.0704764376372098,0.3812491418510675,-0.1148303523659706,-0.4542013704776764,-0.1292020082473755
4.08132861328125,0.2597925074368715,-1.0662104507558048,0.7910007400870323,-0.1825594753026962,-0.3979348242282867,-0.0054827681742608
4.09135546875,0.4589622769329696,-1.0437141029179096,1.1514151837021112,-0.2356743514537811,-0.3480122685432434,0.1121056452393531
4.101383544921875,0.5927393176075071,-0.995550522121042,1.4047048851162194,-0.2630389928817749,-0.30687415599823,0.2132505178451538
4.11141064453125,0.6584439619224518,-0.9389996367290616,1.604102837345004,-0.2719235718250274,-0.2630230784416199,0.2946042418479919
4.121438720703125,0.7263626290250569,-0.8338917142432183,1.7434487641930578,-0.2713854610919952,-0.202022299170494,0.3512652516365051
4.13146533203125,0.7804603491112589,-0.680133158095926,1.841307080876827,-0.2626420557498932,-0.134629413485527,0.3783413469791412
4.14149365234375,0.79773523597382,-0.5480309187658131,1.871055737930536,-0.2424236536026001,-0.0508539415895938,0.3884942829608917
4.151521484375,0.7873365184910595,-0.3910093057019635,1.7529279556781052,-0.1990966945886612,0.0498409792780876,0.3664851188659668
4.161548828125,0.6474089923627674,-0.2230472329614684,1.5412228950619695,-0.136396586894989,0.1569528579711914,0.3185680508613586
4.171576416015625,0.5308729362811893,-0.0756201174585614,1.3213532326906918,-0.0570101477205753,0.2607375681400299,0.2497601956129074
4.181603515625,0.4374718912672251,0.0301361676671076,1.0913321786612271,0.0198382679373025,0.3469918370246887,0.1719832122325897
4.191631591796875,0.3500452444877475,0.0156924856424797,0.8490361649483442,0.0808579474687576,0.4015312492847442,0.0888606309890747
4.201658447265625,0.2497836843208409,-0.0468524433993734,0.6345856050163508,0.11896663159132,0.4158001542091369,0.0197572205215692
4.2116865234375,0.2430479097924195,-0.1283512344998307,0.3648468731045722,0.1609436422586441,0.3898484408855438,-0.0189398415386676
4.221714599609375,0.3546390750840306,-0.2423409488331526,0.0265758722364902,0.2051369249820709,0.3392117619514465,-0.0195037052035331
4.23174169921875,0.4519396482871845,-0.3407841527327895,-0.2520288876980543,0.2281359732151031,0.266392171382904,0.0069092600606381
4.241769775390625,0.4745200942119583,-0.3944673737339675,-0.3448118008136749,0.2177653759717941,0.1821442246437072,0.0533663406968116
4.25179638671875,0.5130521059736609,-0.4199302797598764,-0.2848562215447425,0.1779444515705108,0.098715104162693,0.1162486299872398
4.26182470703125,0.487386115123704,-0.4111776855163276,-0.1151426289618015,0.1128121241927146,0.0236263647675514,0.1776167005300521
4.271851806640625,0.3959158189766109,-0.3102403267133981,0.0179758016735315,0.0560335293412208,-0.0248626060783863,0.2308381199836731
4.281879638671875,0.2214630325099453,-0.1180638136381283,0.157926708677411,0.0173191092908382,-0.0474997833371162,0.2648248672485351
4.291907470703125,0.0758885134706273,0.0717483266596682,0.3014385230332613,0.0013380115851759,-0.0566786378622055,0.2853855490684509
4.3019345703125,-0.0148100311189889,0.2447917212524451,0.4608534244418144,0.0031707168091088,-0.0600984506309032,0.2930032610893249
4.311962646484375,-0.0858383546747267,0.4242289633344858,0.6269757145345211,0.0168559029698371,-0.0556813329458236,0.2924914062023163
4.321989501953125,-0.1331373545315116,0.5840510573044418,0.7473521524965763,0.0413959138095378,-0.034252431243658,0.2876928746700287
4.332017578125,-0.1950275916574523,0.699643402795121,0.8265759113371371,0.0671958178281784,-0.0095385648310184,0.2772538363933563
4.342045654296875,-0.2212922425203025,0.7476110956937074,0.9173276108860968,0.0881450548768043,0.0075225275941193,0.2722850143909454
4.35207275390625,-0.1632321216091513,0.7589830421227961,1.016674120301008,0.0927286222577095,0.0170617047697305,0.2751289904117584
4.3621005859375,-0.1435759656332433,0.7692495115280151,1.0823106678158043,0.0859438329935073,0.0323804095387458,0.2840399444103241
4.372127685546875,-0.1310456064166501,0.7748362256191671,1.0898428168863057,0.0687019973993301,0.06222565472126,0.2961969971656799
4.38215576171875,-0.0569158827794715,0.7761773380298167,1.0726596268951891,0.0380079299211502,0.0875971764326095,0.3198018968105316
4.3921826171875,0.0676173460684716,0.810506381676346,1.1072802738994358,-0.0014806238468736,0.1150442510843277,0.3562001287937164
4.40221044921875,0.1307175435060635,0.8459437518909573,1.0555495021402834,-0.0370503701269626,0.1567828953266143,0.3861066401004791
4.412238525390625,0.156930646844767,0.8838646825496107,0.9766618433862924,-0.0733830779790878,0.2077773660421371,0.4047173261642456
4.422265625,0.138660100008361,0.9717598966889084,0.8790852662533521,-0.093595266342163,0.258322536945343,0.4109404683113098
4.4322939453125,0.0764740217410027,1.0280657212786375,0.6787766289204359,-0.0849189534783363,0.2999799847602844,0.4051944315433502
4.442320556640625,0.093111268287152,1.0613434292413293,0.4554331529587507,-0.0610044673085212,0.3265618681907654,0.3957617282867431
4.4523486328125,0.1046179470118135,1.0630434380922469,0.327931393161416,-0.0439679585397243,0.3249953985214233,0.3707610368728637
4.462375732421875,0.0833705032564699,1.003473862466216,0.2309077737361192,-0.0385009124875068,0.2906251549720764,0.3381718397140503
4.472403564453125,0.0913674568271264,0.9280475962124763,0.1314905371725559,-0.0345048382878303,0.2321946173906326,0.3011922538280487
4.482431640625,0.1582425696935504,0.8479990769855678,-0.0040314474731683,-0.0278770569711923,0.1679509878158569,0.2824564576148987
4.492458740234375,0.2370040813172235,0.7455946413047612,-0.1447410638898611,-0.0236183945089578,0.0879464298486709,0.2792859673500061
4.502486572265625,0.2934114300526678,0.6231392781767994,-0.2139379342347383,-0.0202926397323608,0.0155811496078968,0.294127494096756
4.512513671875,0.3623768297292292,0.5564878910636529,-0.2756073316842317,-0.0238610096275806,-0.0343696326017379,0.3256012797355652
4.52254150390625,0.3046805736944079,0.5462034476103261,-0.270783857050538,-0.0310614816844463,-0.0533739998936653,0.3564276397228241
4.532568603515625,0.2002291058233007,0.5503970633752644,-0.2491203067749738,-0.0445786193013191,-0.053336713463068,0.3856475949287414
4.542596435546875,0.1281577029554173,0.5825390453062951,-0.2563309688061476,-0.0542488917708396,-0.042338278144598,0.4112309515476227
4.55262451171875,0.0190440884921699,0.6316171105995774,-0.2531540923357009,-0.0614048093557357,-0.0171314608305692,0.4334587454795837
4.562651611328125,-0.0887295095389708,0.6479377654772251,-0.2870470095872879,-0.0746105089783668,0.0049623143859207,0.4466714859008789
4.5726796875,-0.1776143557701259,0.6461049970921129,-0.3081272070169448,-0.0868338868021965,0.0156405251473188,0.4613063633441925
4.58270654296875,-0.2163809069400653,0.614249942343682,-0.4281061700940132,-0.0912659615278244,0.0046422472223639,0.4863937497138977
4.592734619140625,-0.2362395997507497,0.5482067137241363,-0.5278928244918585,-0.1039836183190345,-0.0308952387422323,0.5203053951263428
4.60276171875,-0.2816002154234797,0.4363593269154429,-0.5594038150429725,-0.1342593431472778,-0.1059037670493125,0.5655838847160339
4.612789794921875,-0.2767848510310053,0.3651545508142561,-0.4800964695721864,-0.181149885058403,-0.2034577578306198,0.622511625289917
4.6228173828125,-0.3235622381664812,0.3625182840265333,-0.4400695796102285,-0.209298774600029,-0.2885297238826751,0.6784735918045044
4.632844482421875,-0.4598203185344114,0.3924478506051003,-0.5304746576786041,-0.2024435251951217,-0.3202202916145324,0.7289165258407593
4.64287255859375,-0.5886148215560242,0.4245161097127944,-0.6044289516836404,-0.1817384362220764,-0.293860524892807,0.7678418159484863
4.6528994140625,-0.7534576297648251,0.4578421868618577,-0.5561901136934757,-0.1716687530279159,-0.2187926918268203,0.7821200489997864
4.662927490234375,-0.926191885343194,0.4539555546868592,-0.5365630376815795,-0.1730454862117767,-0.095256008207798,0.7700385451316833
4.67295556640625,-1.1037876825433224,0.4081083245409652,-0.6127730016589165,-0.1934266686439514,0.0389627814292907,0.7348560690879822
4.682982666015625,-1.1818779803745447,0.2873504495132714,-0.7471066533029079,-0.204239010810852,0.1707759946584701,0.6887338757514954
4.6930107421875,-1.1876898815236985,0.1411053925349377,-1.1106430283308029,-0.1833984553813934,0.2871891558170318,0.6384152770042419
4.70303759765625,-1.189783346671611,-0.0672010203525424,-1.5750994457006453,-0.132404625415802,0.346075564622879,0.5940003991127014
4.713065673828125,-1.0661988333832473,-0.2981341842582449,-1.9035200836837287,-0.0766683965921402,0.3350772559642792,0.5748493671417236
4.7230927734375,-0.8438331894777714,-0.5418720673425123,-2.0793986286371946,-0.0459059067070484,0.2569647133350372,0.5780878663063049
4.733120361328125,-0.683466832563281,-0.7963025728221982,-2.04744106336236,-0.0414688140153884,0.1344582289457321,0.5928396582603455
4.743148681640625,-0.5842960450414568,-1.0304258745387196,-1.920655927401781,-0.0558650493621826,-0.0226690471172332,0.6337500810623169
4.753175537109375,-0.5009332501674071,-1.1330571777779608,-1.6373738233059645,-0.0812479108572006,-0.18922820687294,0.6899254322052002
4.763203857421875,-0.4473569236068054,-1.1448764295831322,-1.2599240737378596,-0.0941554307937622,-0.339052677154541,0.7499892711639404
4.77323046875,-0.4955801987016573,-1.036950234806165,-0.8319599424630403,-0.0932654067873954,-0.4550578594207763,0.8026309013366699
4.783258544921875,-0.6543731322869658,-0.8964972234990447,-0.3638309740602969,-0.0704155266284942,-0.5310701727867126,0.8381800055503845
4.79328564453125,-0.7636096059449017,-0.7656465916652232,0.0673977119684219,-0.0364964418113231,-0.558693528175354,0.8636131882667542
4.803313720703125,-0.8306561663880944,-0.6537697595663369,0.4843874447643757,-0.0010328709613531,-0.5320914387702942,0.8813316822052002
4.813341552734375,-0.9667543434865772,-0.6034014352668077,0.8364321194410324,0.0244192257523536,-0.4530636966228485,0.9006542563438416
4.82336865234375,-1.0309903034884482,-0.5896031384736299,1.1103753173053263,0.0416004732251167,-0.3519007861614227,0.937177300453186
4.833396484375,-1.006026761819422,-0.5837978862609714,1.2702373779594898,0.0494344271719455,-0.2333094179630279,0.9846212267875672
4.843423583984375,-1.0670187714640051,-0.5588972537603228,1.3369114518284797,0.0484018921852111,-0.120694376528263,1.0296766757965088
4.853451416015625,-1.198466419342905,-0.5064690743215382,1.3119827622771263,0.0403671339154243,-0.0251044742763042,1.060753345489502
4.863478759765625,-1.3747094136945903,-0.4442992165366187,1.2483218987494706,0.0460145175457,0.0535222291946411,1.076526761054993
4.873506591796875,-1.5300490284882484,-0.3986785251555964,1.0534545756876468,0.0749564170837402,0.1164029315114021,1.078906536102295
4.883534423828125,-1.5920295377135276,-0.3626793928723782,0.8452695058912039,0.1307435035705566,0.1616156101226806,1.0741207599639893
4.893560302734375,-1.5787863175198436,-0.3660291782243177,0.6922662250906229,0.1982088387012481,0.1908680349588394,1.0616953372955322
4.903588134765625,-1.5545730827614663,-0.404512236277759,0.6084726741164922,0.2577695846557617,0.2243748307228088,1.0505728721618652
4.913615234375,-1.5240633782073854,-0.4440168924639001,0.5458253715455532,0.2891384363174438,0.248121440410614,1.0438976287841797
4.92364306640625,-1.4529925306841731,-0.4906685708604753,0.6007476328223943,0.286551833152771,0.2509910762310028,1.0413252115249634
4.93367138671875,-1.3877835609316824,-0.5415987668264657,0.5735644423425197,0.2666739821434021,0.2434551119804382,1.0437761545181274
4.943697998046875,-1.3532089450262486,-0.5788125721290708,0.4891875385224818,0.2488491833209991,0.2142793089151382,1.0620232820510864
4.95372607421875,-1.2543670241326093,-0.6026855786150321,0.4113192859441041,0.2350460141897201,0.1487905830144882,1.0988422632217407
4.963753173828125,-1.0765424596779047,-0.5990114932121708,0.4307406102508306,0.2212540358304977,0.0735156908631324,1.1459920406341553
4.97378125,-1.0752144259445369,-0.5180270448420197,0.4888274730384349,0.2106349468231201,0.0032210201025009,1.1785858869552612
4.98380810546875,-1.2276187179386615,-0.3510748067311942,0.5292746342390775,0.2010260671377182,-0.0449486672878265,1.1846411228179932
4.993836181640625,-1.3319384857214986,-0.1681433475915342,0.6618482904732227,0.189066082239151,-0.0740708708763122,1.1782714128494265
5.003864013671875,-1.347609955975413,-0.0045227015888318,0.8251730588018894,0.1719772815704345,-0.0833264738321304,1.1663891077041626
5.013891357421875,-1.3551380133926867,0.1395139403587207,0.9567980360090732,0.1595456600189209,-0.0760323405265808,1.15336012840271
5.0239189453125,-1.341358055973798,0.2448458077935501,1.0032307013601065,0.1530075073242187,-0.0486883819103241,1.1462959051132202
5.033946044921875,-1.337625153055787,0.3406641796149313,1.0708253972053527,0.1409300714731216,-0.0001128586009144,1.127840518951416
5.043974365234375,-1.4027810774467884,0.4440184268338605,1.15346919362247,0.1172838062047958,0.0537539757788181,1.0971615314483645
5.0540009765625,-1.465480840857327,0.5222749480774626,1.1690624840736388,0.0966243371367454,0.0926952511072158,1.0566394329071045
5.064029296875,-1.4559014038681983,0.5720640842495486,1.0783850188046693,0.0889937058091163,0.1301998347043991,1.0173702239990234
5.07405712890625,-1.480447523842752,0.6127025302385911,0.8895821103483438,0.0952782332897186,0.1652313321828842,0.9791927933692932
5.084084228515625,-1.5136610805280506,0.6410017556689679,0.7634691745609045,0.1089155822992324,0.1917280554771423,0.934733510017395
5.0941123046875,-1.5313494435623287,0.6206636818435043,0.6337362947106361,0.1210388243198394,0.2113385051488876,0.892504870891571
5.10413916015625,-1.5187684866696596,0.596853803721629,0.5487579178661107,0.1234988570213317,0.2261040955781936,0.8547973036766052
5.114167236328125,-1.5269868644386528,0.5132629357127473,0.4553022200554609,0.1216146722435951,0.2347886711359024,0.8253632187843323
5.1241943359375,-1.4771439522527157,0.4136921160226687,0.3463964396566152,0.1153701171278953,0.2264443933963775,0.8095833659172058
5.134221923828125,-1.3469962079912423,0.3228284439992159,0.2592401342511177,0.0991016626358032,0.2154197096824646,0.8124260306358337
5.144250244140625,-1.2557073328256607,0.2716594708412885,0.2114326734155416,0.0707502961158752,0.1987307071685791,0.8218891620635986
5.154277099609375,-1.2431212613664566,0.2301571014992892,0.1802934387862682,0.0425684563815593,0.1848516464233398,0.8268011212348938
5.164305419921875,-1.2522478400215509,0.20599442788437,0.0906494082182645,0.0211916770786046,0.1850012391805648,0.8343448638916016
5.17433203125,-1.2149220257118345,0.2717223069444298,0.0006219312906265,0.007099294103682,0.1955220699310302,0.8407689332962036
5.184360107421875,-1.2349769717469812,0.3568183918844908,-0.0509632945179939,0.0001329975202679,0.2148600816726684,0.8336175680160522
5.19438720703125,-1.2999929031454025,0.3939014834795147,-0.1056254435539245,-0.0047312658280134,0.2349067479372024,0.8218253254890442
5.204415283203125,-1.2795660550579429,0.414848702179268,-0.1644569872289896,-0.0082199163734912,0.2622820734977722,0.8164200186729431
5.214443115234375,-1.2284919936418532,0.4144197361774742,-0.2175450188159942,-0.0255107562988996,0.2790245711803436,0.8124143481254578
5.22447021484375,-1.207351079000905,0.4207846680995076,-0.1725491082698106,-0.0525866635143756,0.2741570472717285,0.8068448901176453
5.234498046875,-1.2158644211284817,0.4394511554509401,-0.2528565706938505,-0.0614102482795715,0.2729346752166748,0.7949303984642029
5.244525146484375,-1.264295859081298,0.480277598292753,-0.4527794235795736,-0.0590248927474021,0.2715649604797363,0.7858405113220215
5.254552978515625,-1.2503244707435368,0.5331814324192703,-0.4993050279110669,-0.0697792693972587,0.2532006204128265,0.7736818790435791
5.264581298828125,-1.2504311459884048,0.5741007411763072,-0.5026245277225971,-0.0693403482437133,0.2297011613845825,0.7643448114395142
5.274608154296875,-1.2590220103316008,0.5900077737517655,-0.6119505793601274,-0.0707155987620353,0.2095586061477661,0.763906717300415
5.284635986328125,-1.2205784440383314,0.6006682109106332,-0.6041133098632097,-0.0876960158348083,0.1882110834121704,0.7657181620597839
5.294663330078125,-1.2037402680926024,0.6089312315389513,-0.5401239450335502,-0.1061392053961753,0.182505801320076,0.7737239003181458
5.304691162109375,-1.2304907662436366,0.6361081384085119,-0.5801297922074794,-0.1240682899951934,0.2093033343553543,0.7737029194831848
5.314718505859375,-1.3291960551455615,0.6884596724145114,-0.6065899291098118,-0.1515566408634185,0.2386284619569778,0.7708903551101685
5.32474609375,-1.356206227146089,0.719242348691076,-0.6235737971365451,-0.1792119443416595,0.2744286358356476,0.767532229423523
5.33477392578125,-1.3433398774407803,0.7178289747618138,-0.7548983300924301,-0.2063410282135009,0.3044323623180389,0.763124406337738
5.34480126953125,-1.2991677043676375,0.7314066876068711,-0.7905933283299207,-0.2487053424119949,0.3071150481700897,0.7683423161506653
5.354829345703125,-1.2603344081044197,0.7863289488837123,-0.8524895202726125,-0.295490950345993,0.3098852932453155,0.7720643281936646
5.364856201171875,-1.3065999001950024,0.8895417783379554,-1.00932258849442,-0.3216359615325928,0.3379582166671753,0.7632803916931152
5.37488427734375,-1.3984256587162611,0.935186069790274,-1.2160223881691694,-0.3313764631748199,0.376044362783432,0.7297938466072083
5.384912353515625,-1.574439812748134,0.9790687583975494,-1.4373404957830904,-0.3186955153942108,0.4185613393783569,0.6709039211273193
5.394939208984375,-1.8007308864690363,1.0569682828970253,-1.666336298418045,-0.2833138108253479,0.4433724284172058,0.5917515754699707
5.404967041015625,-1.9902493958488103,1.077664084118977,-1.838175797113776,-0.2354252785444259,0.4239531457424164,0.5050383806228638
5.414994384765625,-2.067020939231664,1.019613680884242,-1.9534902755111452,-0.174932911992073,0.3880124688148498,0.4197203516960144
5.425022216796875,-2.037324596887082,0.7608950862891971,-2.066620395606756,-0.1111648306250572,0.3112425804138183,0.3429520428180694
5.435049072265625,-1.898691348353028,0.3547483076121658,-1.973180479887128,-0.0641869381070137,0.1884013712406158,0.3006123006343841
5.4450771484375,-1.6588158397853374,-0.0765418628128245,-1.760727231252193,-0.027697779238224,0.02829778380692,0.305151879787445
5.455105224609375,-1.4099252501130104,-0.4507522651335224,-1.471064486208558,-0.0096095893532037,-0.1189518496394157,0.3584204316139221
5.46513232421875,-1.2062269703418016,-0.7464934167753905,-1.13340138810575,-0.0126163652166724,-0.2357633113861084,0.4439715147018432
5.47516015625,-1.1504763684820385,-0.8982230974435805,-0.7651105120271444,-0.0403081811964511,-0.3173503279685974,0.5505589842796326
5.48518701171875,-1.0608468778960407,-1.024718310546875,-0.3057300827473402,-0.1017510220408439,-0.3685567378997803,0.6781786680221558
5.49521533203125,-0.8187403223406523,-1.150359171843156,0.2984539542645216,-0.1852744221687317,-0.399923712015152,0.8192934989929199
5.505241943359375,-0.5957058392629027,-1.155825182164088,0.811214091554284,-0.2759267389774322,-0.3942832052707672,0.9591700434684752
5.515270263671875,-0.4834380350850522,-1.0940054895237088,1.2512573676794767,-0.3632544577121734,-0.3756522536277771,1.077688455581665
5.525298095703125,-0.5000623490843922,-1.0167913169398903,1.7266753240466115,-0.4350835978984833,-0.357388287782669,1.1645047664642334
5.5353251953125,-0.5295234213683754,-0.8403186785507947,2.092766644254327,-0.4760566055774688,-0.3374963104724884,1.2195881605148315
5.545353271484375,-0.5677181274671107,-0.64957245400697,2.312263381659984,-0.4818118810653686,-0.3085014522075653,1.2500553131103516
5.555380126953125,-0.6696168786481023,-0.4307976742003113,2.4160884977936745,-0.4542233943939209,-0.2553703188896179,1.2532633543014526
5.565408203125,-0.8349577360395342,-0.2707958762818947,2.4611054511278865,-0.4076275825500488,-0.1827969253063202,1.236279845237732
5.575435302734375,-0.8703195567999035,-0.185833993914444,2.532946113979816,-0.3627133667469024,-0.1202488467097282,1.2088559865951538
5.585462890625,-0.8997568828821182,-0.1119905307395849,2.597173379218578,-0.3250134885311126,-0.0557539835572242,1.1697587966918943
5.5954912109375,-0.990592461322248,-0.0211403209859039,2.5123604220688343,-0.2846652567386627,0.0297950040549039,1.114940524101257
5.605518310546875,-1.2016215954381972,0.0435967112727463,2.34487151979804,-0.2442545294761657,0.125403419137001,1.0431852340698242
5.61554638671875,-1.4004597948923707,0.0451688376939855,2.091434518867731,-0.2022705972194671,0.2068101167678833,0.9583569169044496
5.6255732421875,-1.5451432833760976,0.0307200776354409,1.804106354251504,-0.1435470581054687,0.2559409439563751,0.8742098212242126
5.63560107421875,-1.6173101094424724,-0.0083897705468349,1.4198919328540562,-0.0578638352453708,0.285087376832962,0.7972931861877441
5.645629150390625,-1.736035273066163,-0.039160171863716,0.9094780664294958,0.0509699918329715,0.3159299790859222,0.7252009510993958
5.65565625,-1.887944767280668,-0.066044918253133,0.3737883044511079,0.161547377705574,0.3573799431324005,0.671390175819397
5.66568408203125,-1.9259683545961972,-0.1682247422646731,-0.116536713668704,0.2564260363578796,0.4002833068370819,0.6484637260437012
5.675711181640625,-1.9000094452142715,-0.2880838235554285,-0.4927852707535028,0.3112781047821045,0.4171064794063568,0.6609734296798706
5.6857392578125,-1.7906562133088706,-0.4775452507194131,-0.7300602414339781,0.3080580234527588,0.4047091007232666,0.7031505703926086
5.69576611328125,-1.5814267490260303,-0.6824474994529038,-0.8249222989112138,0.2453419119119644,0.3471051752567291,0.7717134356498718
5.705794189453125,-1.4269551492385566,-0.8431576283037662,-0.8497755851387977,0.1362286806106567,0.2449560463428497,0.8431846499443054
5.715822265625,-1.3201203298948705,-0.9473470477052032,-0.8182242625772953,0.0162122640758752,0.1065393015742302,0.9116856455802916
5.725849365234375,-1.2154013336613774,-0.9647877195887268,-0.8316466387301683,-0.0623110085725784,-0.0374231785535812,0.9743413329124452
5.735876953125,-1.116273873824626,-0.8862667752552778,-0.8497451900005341,-0.0884632468223571,-0.1749192625284195,1.0350686311721802
5.745904296875,-0.9790507112842052,-0.7507276933442801,-0.7201940964579582,-0.0728653818368911,-0.2867059707641601,1.0889416933059692
5.75593212890625,-0.8674369140356779,-0.5670580561231822,-0.467592377308011,-0.0341829657554626,-0.358333021402359,1.1369261741638184
5.76596044921875,-0.790811062733829,-0.3784055889882147,-0.0721370154500007,-0.0062805376946926,-0.3935076296329498,1.1773691177368164
5.775987060546875,-0.7056941542014479,-0.2149395124927163,0.4735258590102195,0.0124468114227056,-0.4104314744472503,1.188593864440918
5.78601513671875,-0.7949754158716649,-0.1371742818973958,0.9251648803830146,0.0456234440207481,-0.442033052444458,1.1502678394317627
5.796042236328125,-0.7987602681726217,0.0720252256385982,1.1091612653404477,0.0712829977273941,-0.3749339282512665,1.1254841089248655
5.8060703125,-0.6745687289018184,0.463279994001612,1.221927812820673,0.062990702688694,-0.2481904327869415,1.1200929880142212
5.816096923828125,-0.7327701579798013,0.5802279188197106,1.4352344634145495,0.0625467523932457,-0.1677360832691192,1.0919021368026731
5.826125244140625,-0.8309102142143994,0.4604257005490362,1.3839356533318756,0.0946700051426887,-0.1182800754904747,1.036587476730347
5.836153076171875,-0.7797904870256781,0.4985307190703227,1.186869358921051,0.1366704404354095,-0.0705703496932983,0.9801200032234192
5.84618017578125,-0.7013667925216257,0.6484732605934143,1.0735808333933352,0.1793200373649597,-0.0282597355544567,0.9314039349555968
5.8562080078125,-0.714755997057259,0.7044638817541301,0.9166407976657152,0.2113860994577407,0.0005215783603489,0.8878743052482605
5.866235107421875,-0.7343238902278244,0.6257780291825532,0.7838111208438873,0.2260755747556686,0.0173073261976242,0.8392091393470764
5.87626318359375,-0.7654458814613521,0.5310850811945275,0.7238847676694393,0.217586487531662,0.0148428371176123,0.7898066639900208
5.8862900390625,-0.8267658078860491,0.4362413996241986,0.646097763633728,0.2041940838098526,-0.0187266804277896,0.747544527053833
5.896318603515625,-0.799918644427508,0.3394543654337525,0.5183353070735931,0.1850464940071106,-0.072557158768177,0.721996545791626
5.9063466796875,-0.7223956981554627,0.275902697901614,0.3847708862364292,0.1635738462209701,-0.1151713877916336,0.7152405977249146
5.916373779296875,-0.6971770857468247,0.2538955218201503,0.3081920889467001,0.1372391730546951,-0.141085535287857,0.720058798789978
5.926401611328125,-0.6806915226310492,0.2157577700730413,0.2755290057510137,0.1004451438784599,-0.1451374739408493,0.7343432307243347
5.936428466796875,-0.6545461507663131,0.2014385181456804,0.2832891183584928,0.0593043677508831,-0.1409057080745697,0.7602312564849854
5.946456787109375,-0.6030862683704122,0.2184208152698352,0.3196948952138423,0.0137831848114728,-0.1450336277484893,0.7870847582817078
5.956484619140625,-0.6265387113567441,0.238676434976235,0.3394546576946973,-0.0257913880050182,-0.1572088003158569,0.8038783669471741
5.96651171875,-0.6851128462046384,0.2946076540999114,0.3069593322813511,-0.0638286471366882,-0.1682543456554412,0.811644434928894
5.97653955078125,-0.7156883094713091,0.3964973086589947,0.287854234316945,-0.1080254018306732,-0.1619288027286529,0.8098393678665161
5.986566650390625,-0.7845419193364679,0.4789045198412612,0.2172767232686281,-0.1426223814487457,-0.1519441753625869,0.8003942966461182
5.9965947265625,-0.7921456723384559,0.5387146262248977,0.1339168875366449,-0.1643290072679519,-0.1445531100034713,0.7837687134742737
6.00662158203125,-0.7775609013427048,0.5986771832238882,0.0031248540222644,-0.1716632544994354,-0.1350433528423309,0.7718356847763062
6.016649658203125,-0.798005212021619,0.6257483646966516,-0.1458411340862512,-0.1621823906898498,-0.1372812092304229,0.7493681907653809
6.026677734375,-0.7835011050466447,0.6252673031814396,-0.2826426371484994,-0.1413037031888961,-0.1514377146959304,0.728374719619751
6.03670458984375,-0.7090148961219936,0.6116696069942787,-0.3907961378753185,-0.1259678900241851,-0.1779686510562896,0.7113757729530334
6.046732666015625,-0.5763672978688031,0.5665527734821661,-0.4462754485130309,-0.1206056997179985,-0.2212748229503631,0.6926469206809998
6.056759765625,-0.460930581331253,0.5345209008621051,-0.5076484933644533,-0.1301621794700622,-0.2774251699447632,0.6794445514678955
6.066787841796875,-0.429349594283849,0.5377439910944551,-0.5154682272046804,-0.1488087475299835,-0.355668157339096,0.6682383418083191
6.076814697265625,-0.36519612493366,0.5403833996873348,-0.5120674788504839,-0.1697635650634765,-0.4480676054954529,0.6699182391166687
6.086842529296875,-0.3171106508743018,0.5557015264589339,-0.5438268912047147,-0.1885184198617935,-0.518737256526947,0.6808599829673767
6.09687060546875,-0.3223723342621699,0.6440667692627757,-0.5420616350978612,-0.2059789001941681,-0.5706251859664917,0.6870891451835632
6.106897705078125,-0.4753956714700907,0.7384997876729815,-0.5467290423870086,-0.2091045528650283,-0.5924137830734253,0.6765636801719666
6.11692578125,-0.733432713541761,0.777010939309746,-0.6224544377177953,-0.186997652053833,-0.5876821279525757,0.6450438499450684
6.12695263671875,-1.074177849438414,0.7733261133171617,-0.8428069151699542,-0.1255382895469665,-0.5209254026412964,0.5879485011100769
6.136980712890625,-1.3669671290047467,0.7809922640308737,-1.1351759965628383,-0.0433043986558914,-0.423864334821701,0.5277586579322815
6.1470087890625,-1.4517235336616634,0.7319688515342772,-1.2987328200817108,0.0330250114202499,-0.3080689311027527,0.4686706066131592
6.15703564453125,-1.5186583042934536,0.5069914542278274,-1.4707757323950528,0.0926790237426757,-0.1565475761890411,0.398526132106781
6.167063720703125,-1.6340525699287651,0.2275650391794741,-1.6988555892288684,0.1405559480190277,-0.0133093148469924,0.3353864848613739
6.1770908203125,-1.621230059365183,-0.0459456490190699,-1.8970681310653683,0.1680765151977539,0.0723826885223388,0.3074427247047424
6.187118408203125,-1.3338790983952582,-0.4049277948087081,-2.006080878970027,0.1723988354206085,0.0819469839334487,0.3347937762737274
6.197145751953125,-0.8983347411245107,-0.8447538114540278,-1.93123285099566,0.1340599656105041,-0.0055921892635524,0.4084576070308685
6.207173583984375,-0.5112438875079155,-1.2416093954987824,-1.5710709208369251,0.0577136389911174,-0.1744635105133056,0.508012592792511
6.217201904296875,-0.237149462870974,-1.508750658263266,-1.1481471218168735,-0.0269399918615818,-0.3603178262710571,0.6196290850639343
6.227228515625,-0.1687616438866593,-1.5350003672853112,-0.7208166122704744,-0.0920869559049606,-0.5074605941772461,0.7208532094955444
6.237256591796875,-0.2734461715949699,-1.3491516324594617,-0.2838081737965345,-0.1271594613790512,-0.5591144561767578,0.7930826544761658
6.24728369140625,-0.5360446032980457,-1.021276937921345,0.1402759011745452,-0.1431801617145538,-0.5031213760375977,0.8292468190193176
6.257311767578125,-0.8123343277558683,-0.7056076449617743,0.4861562080025672,-0.1555990129709243,-0.3480215072631836,0.8463062047958374
6.267339599609375,-0.995725878687948,-0.5117863968867808,0.7193325111925601,-0.177144318819046,-0.1505320221185684,0.8529379963874817
6.27736669921875,-1.0403884656265376,-0.4977988611318171,0.8244979360193013,-0.2027535438537597,0.0440071150660514,0.8528860807418823
6.28739453125,-1.0076310552109031,-0.6217036193504929,0.8130863151669502,-0.2309900522232055,0.1902534961700439,0.8563305735588074
6.297421875,-0.9330749228551984,-0.8027776871204376,0.6992886710733175,-0.244406521320343,0.2903771698474884,0.8632186055183411
6.307449462890625,-0.9076124186880886,-0.9143073862820864,0.5001034848123789,-0.2410038858652115,0.330459862947464,0.8694849014282227
6.317476806640625,-0.9491728018276392,-0.9605006899192928,0.3565893323689699,-0.2235908061265945,0.3119751214981079,0.8685911297798157
6.327504638671875,-0.9690936731543393,-1.0163784983552993,0.2146843686878681,-0.188024953007698,0.2669087052345276,0.8521244525909424
6.33753271484375,-1.008076241695136,-1.0717495263129473,0.0858487299382686,-0.1375252902507782,0.2071790546178817,0.8217931985855103
6.3475595703125,-1.032422893574834,-1.05790841329135,0.0220037420153617,-0.0730862393975257,0.1409099400043487,0.7890781760215759
6.357587646484375,-0.9735825820714236,-0.9612992929510772,0.030520810469985,-0.0050952099263668,0.077956274151802,0.7588755488395691
6.367614990234375,-0.9168180539287626,-0.8680804726362228,0.1362859547555446,0.0514574684202671,0.0204375348985195,0.722957193851471
6.377642578125,-0.9467891215614974,-0.775494031940773,0.3195984491020441,0.0965176150202751,-0.0257331561297178,0.6812728643417358
6.38767041015625,-0.9460117805134504,-0.7111367836467921,0.5221668480604886,0.1212919950485229,-0.0605959445238113,0.6394315361976624
6.39769775390625,-0.8675313143208623,-0.6186518305644393,0.7777087123155594,0.1232552751898765,-0.0878613889217376,0.6079055666923523
6.4077255859375,-0.7663928069226443,-0.5493363388085738,0.9990583841115236,0.1121710240840911,-0.0980958417057991,0.5804973244667053
6.417752685546875,-0.7080291730202734,-0.4701611318174749,1.1881126369804142,0.0889543890953064,-0.0831376612186431,0.5570407509803772
6.42778076171875,-0.666994275059551,-0.4044453815866261,1.3478057708084583,0.0606129169464111,-0.0550404302775859,0.5476839542388916
6.4378076171875,-0.5637450225850567,-0.3428262530196458,1.488999955871701,0.0217808317393064,-0.0115145277231931,0.5549437403678894
6.4478359375,-0.4797295724885538,-0.2855785262036137,1.5789742413073775,-0.0174557380378246,0.0346271768212318,0.5665550827980042
6.457863525390625,-0.5081939253527671,-0.2245157528777606,1.6014105295211076,-0.0446860305964946,0.0830812603235244,0.5677177906036377
6.467890869140625,-0.6309842925887554,-0.1349923895473592,1.5778092891812323,-0.0559367462992668,0.1253599673509597,0.5549861788749695
6.477918701171875,-0.7540179670613258,-0.0507382718567736,1.5148393305271863,-0.0530762448906898,0.1620825678110122,0.5268206000328064
6.487945556640625,-0.8312745905473827,0.0144744242227636,1.4022615836173296,-0.0382123440504074,0.1945116221904754,0.4891592264175415
6.4979736328125,-0.939968774022162,0.0616781835441477,1.2882067498922347,-0.0109527595341205,0.219068631529808,0.4406726658344269
6.508001708984375,-1.028707672443986,0.0890639473914168,1.1411924803733826,0.0153075950220227,0.2292428612709045,0.3982316255569458
6.51802880859375,-1.0109669216353443,0.0889790090543218,0.9903414091706276,0.0357271172106266,0.2163606286048889,0.3662281632423401
6.528056884765625,-1.017849301560223,0.07537477352852,0.8633043442755937,0.0503923557698726,0.1912428587675094,0.3371089696884155
6.53808349609375,-1.0918788527585566,0.0593563347341492,0.7599182040810585,0.0573048591613769,0.1520592272281646,0.305419772863388
6.54811181640625,-1.2131035781130195,0.1115799680441617,0.6402542983025312,0.0574751794338226,0.11922138184309,0.2715751230716705
6.558138671875,-1.2794471048533915,0.1017766957039013,0.5022475111037492,0.0586642809212207,0.0877984762191772,0.2412880659103393
6.568166748046875,-1.2163478207312524,0.0792298597877845,0.3400590533286333,0.0682277157902717,0.0595770888030529,0.2292495518922805
6.578194580078125,-1.0778938742868602,0.1208508688070811,0.2113216142565011,0.0752768367528915,0.0447307676076889,0.2430692315101623
6.5882216796875,-0.9149159466344864,0.1300490513936616,0.116672907269001,0.0658505782485008,0.0408679135143756,0.2749881446361542
6.598249755859375,-0.8200583461366593,0.1057183277354575,0.093744451624155,0.0393675751984119,0.0451526753604412,0.2995395362377167
6.608276611328125,-0.8833663776386529,0.0929991679484956,0.0622211861133575,-7.2405673563e-06,0.0559551008045673,0.3152147233486175
6.6183046875,-0.8892813738361001,0.1252670960804447,0.0101683427929878,-0.0397663712501525,0.0793656185269355,0.3228689134120941
6.628332763671875,-0.8071271145015955,0.170136402838584,-0.0897983443468809,-0.0689189061522483,0.1036458536982536,0.3289174139499664
6.638359375,-0.7949315767299383,0.2567842472652905,-0.1857984659433365,-0.0799158960580825,0.1333211809396743,0.3210384547710418
6.6483876953125,-0.8261526444237679,0.2908521374912932,-0.311086641344428,-0.082960806787014,0.1642912775278091,0.2958220541477203
6.65841455078125,-0.815687291445583,0.2405528050410561,-0.3804021696329117,-0.0849658995866775,0.1812707930803299,0.268499881029129
6.66844287109375,-0.746113039155677,0.1413679341949522,-0.47218204318583,-0.087432362139225,0.187179297208786,0.2429038137197494
6.6784697265625,-0.6313491073131561,0.0584320960287004,-0.5472340692996979,-0.0984722301363945,0.1726261973381042,0.229145660996437
6.68849755859375,-0.5382009045490995,-0.0136093500923365,-0.6000315935075282,-0.1085489094257354,0.142073392868042,0.2150994837284088
6.698525634765625,-0.5182163203364237,-0.1018373215836472,-0.6504828468501568,-0.112232856452465,0.1032839119434356,0.1966030299663543
6.708552734375,-0.5088406622910872,-0.1806428550121374,-0.6761480339825153,-0.1106657162308693,0.0499207340180873,0.175733208656311
6.71858056640625,-0.4683048729589208,-0.2544306516101584,-0.6267524271726608,-0.1084797978401184,-0.0164606850594282,0.1587680727243423
6.728607666015625,-0.4181282353065907,-0.3174867907103151,-0.5326677838087082,-0.1121344789862632,-0.0747811794281005,0.1524964272975921
6.7386357421875,-0.394605138236843,-0.3172265688715502,-0.4339928900450467,-0.1209388896822929,-0.1238845437765121,0.1512252986431121
6.748662841796875,-0.4283441070357337,-0.2685942745843902,-0.2948176435887813,-0.1374183446168899,-0.1684073209762573,0.1432805806398391
6.758690673828125,-0.5415261765142902,-0.179408582243137,-0.199842773386836,-0.143973708152771,-0.1695583462715149,0.1095146313309669
6.76871875,-0.7580261797893791,-0.0637764116321457,-0.3149666976481676,-0.128004178404808,-0.0988572761416435,0.0478474199771881
6.778745849609375,-1.0410049170244484,0.0415447745784651,-0.5290706360995769,-0.0997150316834449,0.0275121107697486,-0.0375074259936809
6.788773681640625,-1.271946373834461,0.1698626456648111,-0.7123550733953714,-0.0827610865235328,0.1704374849796295,-0.1422355324029922
6.79880078125,-1.4226552600875495,0.1869638016619719,-0.8350731060475111,-0.0803133770823478,0.2878048717975616,-0.260321706533432
6.80882861328125,-1.4040972746118905,0.0022685477201826,-0.99550273745656,-0.0716800391674041,0.3444368243217468,-0.3691148161888122
6.818856689453125,-1.1505894004024564,-0.2618220405030995,-1.1877595857590435,-0.0544978566467762,0.3305771946907043,-0.432609885931015
6.828883544921875,-0.735462904195115,-0.5415055721176788,-1.31070733551383,-0.0405872128903865,0.2476660907268524,-0.4446560442447662
6.83891162109375,-0.3326672260442748,-0.8566174869228154,-1.3187965339452028,-0.0302299130707979,0.1098163500428199,-0.4189725220203399
6.848938720703125,-0.0067494537106133,-1.0987824216019362,-1.1630220348656175,-0.0330305434763431,-0.0695250257849693,-0.3671003580093384
6.858966796875,0.2715389314678497,-1.2686390028521417,-0.8709025443196297,-0.0396362468600273,-0.2414757460355758,-0.299467533826828
6.868994873046875,0.4987079388007521,-1.3532782108701764,-0.5363385812759399,-0.0385438911616802,-0.3701729774475097,-0.2161418795585632
6.879021728515625,0.614822116208449,-1.2720735073454676,-0.1313017366021871,-0.0394685417413711,-0.4367845058441162,-0.1299627870321273
6.889049560546875,0.645751580544561,-1.090868068280816,0.2623153039127588,-0.0406386032700538,-0.4311115443706512,-0.0549561157822608
6.89907568359375,0.6248313229169696,-0.945906931899488,0.5875497130751609,-0.0516654215753078,-0.3860364556312561,0.0105967931449413
6.909103759765625,0.6194633661430329,-0.7834690294079482,0.8996925854742527,-0.0757864862680435,-0.3273839354515075,0.0661907419562339
6.919130859375,0.6579010141521692,-0.7008072589427232,1.1268494822442532,-0.1064408048987388,-0.2535065114498138,0.121227890253067
6.929158935546875,0.7299788467608391,-0.719735539035499,1.2150655258357523,-0.1354313939809799,-0.1858927905559539,0.1705906242132187
6.939186767578125,0.7485152049265802,-0.7194962503869086,1.2831547271996735,-0.1608227640390396,-0.1378176808357238,0.2135836333036422
6.9492138671875,0.71961731948331,-0.6875408040039241,1.2610673985540866,-0.1756501197814941,-0.0955651476979255,0.2411234378814697
6.959241943359375,0.6200121591322124,-0.6207317786436528,1.1422253305524588,-0.1726732552051544,-0.0582992658019065,0.2380541414022445
6.96926904296875,0.4668745478948577,-0.5132290699757636,0.9655401453912258,-0.1488479375839233,-0.0284557919949293,0.2068551629781723
6.979296630859375,0.356984469166398,-0.4560178940441459,0.7787766338080168,-0.1050045862793922,0.008130713365972,0.1641774624586105
6.98932470703125,0.2879097090975381,-0.403367852015607,0.5764724387437105,-0.0463931262493133,0.061657391488552,0.1170951277017593
6.999351806640625,0.256279129021056,-0.3744440649461001,0.3449035707503557,0.0090035563334822,0.1221540197730064,0.0715297758579254
7.009380126953125,0.1886976397172547,-0.3990424630971625,0.1453968974500894,0.0458503253757953,0.1720938235521316,0.0237717423588037
7.01940673828125,0.0918300145712681,-0.4658618637209757,-0.0601578238427639,0.0715767294168472,0.1827744394540786,-0.0187879689037799
7.029434814453125,0.0513758208416402,-0.5630625202136114,-0.2280477081298828,0.0904331654310226,0.1422177255153656,-0.051224086433649
7.039462890625,0.0731251497045159,-0.6596790566753595,-0.4103150773376226,0.0999915152788162,0.0400154627859592,-0.0627371966838836
7.04948974609375,0.1737925507259555,-0.7821963060583919,-0.4946802907198667,0.1041081324219703,-0.1010289043188095,-0.0472850501537323
7.059517822265625,0.3000701024905778,-0.8624492618162184,-0.4459031080693006,0.0954611152410507,-0.2537878155708313,-0.0088175544515252
7.069544921875,0.3565783725835382,-0.881780862012878,-0.2733306189239025,0.0728919208049774,-0.3808731138706207,0.0418657436966896
7.07957275390625,0.3468537549700587,-0.8189753732055425,-0.0307242240875959,0.043489821255207,-0.4759964346885681,0.0886193960905075
7.089599853515625,0.309116729510948,-0.7068077414665371,0.262135855692625,0.0164908375591039,-0.5372364521026611,0.1376144140958786
7.099627685546875,0.3481060565860941,-0.5918408709304407,0.5515460872799158,-0.0005504637956619,-0.5694341063499451,0.1876418888568878
7.109656005859375,0.3667932579319924,-0.4456556361142545,0.8332458906203508,-0.0066154766827821,-0.5660555958747864,0.2272744178771972
7.119682861328125,0.3547486729383468,-0.3028409189107827,1.087066922432184,-0.0085489312186837,-0.5231970548629761,0.250950425863266
7.129710693359375,0.329170725698024,-0.1865345981981605,1.2895552418917418,-0.0020535588264465,-0.4673974812030792,0.2728356420993805
7.13973779296875,0.3250418822649866,-0.0552840848931344,1.434238438114524,0.0130042200908064,-0.4095528125762939,0.2983684241771698
7.149765869140625,0.3278678994711488,0.0746761785387992,1.4332617020368574,0.0316669605672359,-0.3404909968376159,0.325980395078659
7.1597939453125,0.3127004332166165,0.1802280453998595,1.4331009585171937,0.043022945523262,-0.2608060240745544,0.3571750521659851
7.16982080078125,0.2621456464342773,0.282592222135514,1.4269845214635133,0.0414913296699523,-0.1809090226888656,0.3837175667285919
7.1798486328125,0.2655306857626885,0.3361659914128482,1.3646183739215134,0.0339231565594673,-0.115232802927494,0.4054604172706604
7.1898759765625,0.3196785286009311,0.4017530737627297,1.2787071001410484,0.0226950924843549,-0.0633466318249702,0.4276365339756012
7.199903564453125,0.3492117893382906,0.487222887386009,1.134063651406765,0.0101694464683532,-0.0084242597222328,0.4466403126716614
7.2099306640625,0.3775157274764031,0.597738550666906,0.9647405194461344,-0.0007225205190479,0.0226523075252771,0.4623410105705261
7.219958740234375,0.361308981302008,0.6908935484979302,0.7948340346395969,0.0021435734815895,0.0414283908903598,0.4556873738765716
7.22998681640625,0.2413791180636733,0.7615251278210431,0.5555816264063119,0.0276484042406082,0.0419703647494316,0.4213991463184356
7.240013671875,0.1703693530779332,0.788343138250336,0.3638859191179275,0.0760984942317009,0.0300332754850387,0.3838129043579101
7.250041748046875,0.1543647784121334,0.8384180325612425,0.0923795930117368,0.1455167979001999,0.0163683667778968,0.354200154542923
7.26006884765625,0.1615576125256717,0.8642654443927109,-0.1482885272383689,0.1993142515420913,-0.015852952376008,0.3349926173686981
7.270096923828125,0.2324574143309146,0.8029827081732451,-0.1874146689683198,0.2206674814224243,-0.0704074501991272,0.31897833943367
7.28012451171875,0.279001065775752,0.6793220609087497,-0.2286170324504375,0.2097874134778976,-0.1255873590707779,0.3163266479969024
7.29015185546875,0.2982343932297081,0.6348519278023391,-0.2785539065301418,0.1783780604600906,-0.1946078687906265,0.3245191574096679
7.3001796875,0.3400785617467016,0.5328325093837455,-0.2670218741685152,0.1378876268863678,-0.2813571393489837,0.3508540689945221
7.31020654296875,0.4313038701567798,0.4533789238426834,-0.2623375157445669,0.1320494562387466,-0.4081206023693084,0.3950181603431701
7.32023486328125,0.5064660055816174,0.3680561905398964,-0.2853863828986883,0.2561940550804138,-0.5520910620689392,0.4958789944648742
7.33026171875,0.6147616912581026,0.5248312449641526,-0.6034621524780989,0.3963468670845032,-0.5566192269325256,0.6431736350059509
7.3402900390625,0.7310084090042859,0.5612638732938096,-0.504961446237564,0.4576861262321472,-0.5189019441604614,0.7624323964118958
7.35031787109375,0.6666697192803025,0.4221164281599223,0.1712292578428983,0.4002160727977752,-0.4429411292076111,0.8265712857246399
7.3603447265625,0.4302941085923463,0.4335853321574628,0.7132412085801363,0.2400543838739395,-0.3010532259941101,0.8510693907737732
7.370372802734375,0.2706521204296499,0.6165732707247138,1.0168097293794154,0.0498501285910606,-0.1174828559160232,0.857420802116394
7.38039990234375,0.2265501630485057,0.7330766666457057,1.0000339511454104,-0.0996320396661758,0.0430266633629798,0.8676508069038391
7.390427734375,0.3607347616106272,0.7509281112872064,0.7522533685415983,-0.1851070374250412,0.1720453202724456,0.8869379162788391
7.400455810546875,0.4184685001116245,0.7782603548489511,0.4403822988212108,-0.2320393919944763,0.290036678314209,0.908242404460907
7.410482666015625,0.3514165328409522,0.8216364821735769,0.2924941690772771,-0.2798449695110321,0.389192134141922,0.9348464608192444
7.420510986328125,0.2816601289171725,0.8715707259047776,0.1979576902925968,-0.2993853688240051,0.4380403757095337,0.9571280479431152
7.43053759765625,0.2021682206597179,0.8825840681545436,-0.0957429319649934,-0.2546606957912445,0.4146971106529236,0.9911739230155944
7.44056591796875,0.2979400864582509,0.8961306552089751,-0.3774906661003828,-0.1614154428243637,0.3320712149143219,1.0408285856246948
7.4505927734375,0.3926999987352639,1.053793598383665,-0.6624503480195999,-0.0422613695263862,0.2562112212181091,1.0757396221160889
7.460620849609375,0.2703292451508343,1.1054591959521174,-0.6818862853735685,0.0478413589298725,0.1786458641290664,1.0841482877731323
7.470648681640625,-0.0191774325482547,1.1103984789852053,-0.3746645027637481,0.0656037330627441,0.1558018177747726,1.0484089851379397
7.48067578125,-0.2998417553611099,1.0671149253148584,-0.1803331862747669,0.0232624020427465,0.2069116085767746,0.9688785076141356
7.490703857421875,-0.5163858535062521,0.939319297137484,-0.1228694238215684,-0.0462518520653247,0.3005283772945404,0.8664958477020264
7.500730712890625,-0.722080421661213,0.8057014656126499,-0.2866735000997781,-0.1095043197274208,0.4127356112003326,0.7527620792388916
7.5107587890625,-0.9585894494704902,0.6432477079648524,-0.6762818894952535,-0.1414881348609924,0.5232332944869995,0.6531481742858887
7.520786865234375,-1.1146527023635804,0.4159897619731724,-1.1583359228760004,-0.1352443546056747,0.5935724377632141,0.5967099070549011
7.530813720703125,-1.1831637824013828,0.1301553795786574,-1.564825888967514,-0.1009882092475891,0.5746175050735474,0.59315025806427
7.540842041015625,-1.184763618813455,-0.1336858187271282,-1.7573901957839726,-0.0527871176600456,0.458676815032959,0.6326039433479309
7.55086865234375,-1.1638498639918864,-0.3946525575751438,-1.8290601782441136,0.0038271564990282,0.2767288386821747,0.7048890590667725
7.56089697265625,-1.0683784424446523,-0.6238290140066296,-1.7121154682964086,0.048431109637022,0.0576407052576541,0.8047546744346619
7.5709248046875,-0.9707944126576185,-0.7570187563125044,-1.3888573276430367,0.0639906823635101,-0.1385888904333114,0.9194217324256896
7.58095166015625,-0.9084078799147158,-0.8142761825386434,-0.934438904684782,0.0518653057515621,-0.2868137657642364,1.0339571237564087
7.590979736328125,-0.953665364006534,-0.7511518370404839,-0.3386901030629873,0.0159721802920103,-0.3702242076396942,1.1378263235092163
7.6010068359375,-1.0765724164247512,-0.6129742963846773,0.2334656415253877,-0.0341469123959541,-0.3711035847663879,1.220734715461731
7.611034912109375,-1.180122661139816,-0.450551810657978,0.6435311280161142,-0.0839051157236099,-0.3093084692955017,1.2899545431137085
7.621061767578125,-1.2241131940357386,-0.3474757958585396,0.9167834210067988,-0.1219355911016464,-0.2288735508918762,1.3464313745498655
7.63108984375,-1.194506794996932,-0.3400727530604228,1.0698971764445304,-0.1384861469268798,-0.162069633603096,1.4029814004898071
7.641117919921875,-1.0941240744020788,-0.3903441563241183,1.1199223133295777,-0.1270460039377212,-0.109830118715763,1.4606246948242188
7.651144775390625,-1.075376703834161,-0.4132573413345962,1.0936258425563574,-0.0965703576803207,-0.0760531350970268,1.5139009952545166
7.6611728515625,-1.0985348765816538,-0.448796783684194,1.0884650987923146,-0.0509179197251796,-0.0765945613384246,1.564828395843506
7.671199951171875,-1.0358961226433514,-0.4546932578442618,1.1722557271569969,-0.0135177234187722,-0.0854379758238792,1.6096299886703491
7.681227783203125,-1.0538969856929032,-0.4433818459633737,1.240201136136055,0.0173922553658485,-0.1021013781428337,1.6393487453460691
7.691255859375,-1.1304535711508243,-0.4417921656191348,1.2646984485328197,0.0473692081868648,-0.1253415197134018,1.6579289436340332
7.70128271484375,-1.2027601710140703,-0.4180782586850226,1.2653630499213933,0.0767081901431083,-0.1395995467901229,1.6623824834823608
7.711310791015625,-1.28532447245419,-0.353670558845438,1.2067881113559007,0.1016603410243988,-0.1407960653305053,1.6524802446365356
7.721337890625,-1.416949741922319,-0.2718644188288599,1.1208061104267837,0.1216982305049896,-0.1206058412790298,1.6251122951507568
7.73136572265625,-1.5642466277748346,-0.2512163292061537,1.05318744918406,0.1397061794996261,-0.0786874890327453,1.5886855125427246
7.741393798828125,-1.6387702461004257,-0.343913865593262,0.9332990869998932,0.1589336693286895,-0.0200279001146554,1.544944167137146
7.7514208984375,-1.6754023790575563,-0.4610214744850993,0.6730845547586679,0.184994176030159,0.0398947335779666,1.5121699571609497
7.761448974609375,-1.644357398582995,-0.5783540147066116,0.4205903876364231,0.2098686248064041,0.0775904431939125,1.49668288230896
7.771475830078125,-1.644606258777529,-0.7205543080724776,0.1722013177454471,0.2253954261541366,0.0949713364243507,1.497254490852356
7.781503662109375,-1.6492188671395185,-0.8852347287937998,-0.0651508098244667,0.2303060293197631,0.0686433240771293,1.5104328393936155
7.791531005859375,-1.664402115485072,-1.0310198218438773,-0.2622568517237901,0.230795070528984,0.0100158378481864,1.5333954095840454
7.801558837890625,-1.6877002812251447,-1.1070686039101332,-0.3880325183808803,0.2210348546504974,-0.0753941312432289,1.5607281923294067
7.8115869140625,-1.7607547037810083,-1.1551011056732383,-0.4827051907658576,0.2015546262264251,-0.1608029454946518,1.590305209159851
7.82161376953125,-1.84155345685333,-1.1927524986755105,-0.5305927311003208,0.172671303153038,-0.2505637109279632,1.607816457748413
7.831641845703125,-1.911550537665188,-1.2191379629064352,-0.4689525597453117,0.1313704252243042,-0.3456274271011352,1.6254146099090576
7.841668701171875,-1.8979681486450133,-1.2600431700728834,-0.3391448610931635,0.0941527485847473,-0.4324091970920563,1.6463230848312378
7.85169677734375,-1.8433944085448977,-1.255751464228332,-0.2202110231548547,0.0744750648736953,-0.5160769820213318,1.6691373586654663
7.861724853515625,-1.7753788569390774,-1.2114685973223298,-0.0661368982523679,0.0659114047884941,-0.6041748523712158,1.6940876245498655
7.871751953125,-1.685174562139809,-1.1815822122983637,0.0563701219975948,0.0675313547253608,-0.6490084528923035,1.714711308479309
7.881779541015625,-1.699937100855261,-1.138727113173157,0.1578746862292289,0.0748995244503021,-0.6375738978385925,1.726185321807861
7.891806884765625,-1.7558431124724447,-1.08038846758157,0.2927940288066863,0.0840352997183799,-0.56802898645401,1.728855013847351
7.901835205078125,-1.8380746748268604,-1.013853290726617,0.4573649978041648,0.0898556411266326,-0.4642511904239654,1.727117896080017
7.911863525390625,-1.8802192875951529,-0.9037833619192244,0.5872954460531473,0.0876101180911064,-0.3440567255020141,1.721729040145874
7.92189013671875,-1.854606707432866,-0.8270723165519535,0.6501917549490929,0.0697634741663932,-0.2497880309820175,1.7162346839904783
7.93191845703125,-1.701596850761026,-0.8730158832117915,0.6244622704088687,0.0405107401311397,-0.1972313523292541,1.7033917903900146
7.9419453125,-1.5225345612049102,-1.0089037054952232,0.5620248111963272,0.0046587348915636,-0.2033813893795013,1.6775833368301392
7.951973388671875,-1.3764391600966452,-1.116605443866551,0.4748685057908296,-0.0257420465350151,-0.2281906008720398,1.6538630723953247
7.962000244140625,-1.4181547337979077,-1.1005756616942584,0.3598188158094882,-0.0303519796580076,-0.2450460195541381,1.6325684785842896
7.9720283203125,-1.4780186892606315,-0.999222780892998,0.2402887655436992,-0.006277815438807,-0.2215463817119598,1.6116769313812256
7.982056396484375,-1.4986363837450742,-0.916483780473098,0.1225672260046005,0.1210814714431762,-0.2243663966655731,1.5991854667663574
7.99208349609375,-1.4289254263982176,-0.7714872074522078,-0.0553676669567823,0.4062118828296661,-0.2525521218776703,1.6368861198425293
8.002111083984374,-1.3306149820327755,-0.6035589273834601,-0.6535352201581001,0.6162441968917847,-0.1829666644334793,1.6450942754745483
8.012138427734374,-1.266863225351274,-0.7351147483445704,-0.4188958586782216,0.6501832604408264,-0.1721534430980682,1.598340392112732
8.022166259765624,-1.3210183016479011,-0.8776939580254256,0.3107891197025775,0.536938488483429,-0.1435585469007492,1.519124150276184
8.032194580078125,-1.4608034966960548,-1.0049988070111722,0.5089198284745216,0.3569149076938629,-0.0644855722784996,1.4309154748916626
8.04222119140625,-1.326896399901062,-1.0444096109014005,0.4285393008142709,0.1835537552833557,0.0016835907008498,1.37583327293396
8.052249267578125,-1.095818822555989,-1.0540506418846547,0.2251139927655458,0.0420608110725879,0.0644617676734924,1.3466514348983765
8.0622763671875,-1.0340231683783232,-1.1107093715652825,0.0128700029671192,-0.0699554681777954,0.125968798995018,1.3186663389205933
8.07230419921875,-1.088570239667222,-1.1191987482953816,-0.1633639312952756,-0.1415802240371704,0.1754613816738128,1.296082854270935
8.082332275390625,-1.010017804216966,-1.028870607920736,-0.350969738921523,-0.1602372676134109,0.1801235079765319,1.3070296049118042
8.092359375,-0.7511015681579709,-0.9422988244049252,-0.5525666624993085,-0.0989413261413574,0.1412986516952514,1.358658790588379
8.10238720703125,-0.5350457649864256,-1.0240256521075963,-0.7735808187305927,0.0428895764052867,0.0822731554508209,1.407235622406006
8.112414306640625,-0.3940113005295396,-1.021876803510636,-0.8897995524913072,0.2201970666646957,0.0285624116659164,1.450052261352539
