seconds_elapsed,ax,ay,az,gx,gy,gz
0.061010009765625,-0.0730062953980872,0.2987674771931022,-0.0966343278467655,-0.0095486603677272,0.0522644519805908,0.1810113191604614
0.07103662109375,-0.2797786442858166,0.1158286384645849,0.034717093116045,-0.0094381291419267,0.0922328159213066,0.153089702129364
0.08106494140625,-0.2348017124347388,0.1379588564038276,0.0113555067509412,-0.0027677093166857,0.0853839665651321,0.1241267621517181
0.091091796875,-0.2990777487186715,0.1212921280348673,0.1591752474337816,-0.0108977314084768,0.0916297882795333,0.1102172508835792
0.10111962890625,-0.1539094906589947,0.2197813265006989,0.2388496726512908,-0.0281800478696823,0.0795257240533828,0.1036299243569374
0.111146728515625,-0.2179785513950511,0.2639566048463806,0.3877484407424926,-0.0407631509006023,0.060993880033493,0.1111882254481315
0.1211748046875,-0.0925023334754165,0.3391392350699752,0.3910141645401716,-0.0455850698053836,0.0198136884719133,0.1271634697914123
0.131201904296875,-0.1020998815099708,0.3827220274152234,0.4715168572753667,-0.0336050167679786,-0.0009073442779481,0.1464518308639526
0.141229736328125,-0.068688911689585,0.4307757180968299,0.3512824581325054,-0.0094035398215055,-0.0313275679945945,0.1580301970243454
0.1512568359375,-0.1865336483500898,0.4061000534584745,0.3513157758802175,0.0199969075620174,-0.0436001978814601,0.1733643859624862
0.16128369140625,-0.0844358126667328,0.4688912945447489,0.2421890462070703,0.032267689704895,-0.0535835921764373,0.1829040944576263
0.171311767578125,-0.1641092697698623,0.4963272542092949,0.3108656920701265,0.0402287021279335,-0.0221483744680881,0.1893455982208252
0.181338623046875,-0.1102416047130245,0.4719905392017215,0.2219704340428114,0.0374776571989059,-0.0060040252283215,0.2015236914157867
0.191366943359375,-0.0828232629035599,0.5492701051719486,0.2445405777692794,0.0311573948711156,-0.0124358125030994,0.2078335136175155
0.2013935546875,0.0304557664267369,0.6092176472648978,0.3146609926998615,0.0217761434614658,0.0364273376762867,0.1923360526561737
0.211421875,-0.2878276933698915,0.6207241798590868,0.270722482252121,0.0144074754789471,0.0215569771826267,0.1836957335472107
0.221448974609375,-0.1684477738982066,0.7358164668731391,0.4239811991184949,0.0038355248980224,-0.0152713451534509,0.1779462397098541
0.231476806640625,-0.1587794713155366,0.8070821063160896,0.6294196005553007,-0.0148547422140836,-0.0474554821848869,0.1698912978172302
0.24150390625,-0.1921302445144392,0.9578297902096062,0.6743757636129856,-0.0435969047248363,-0.114218533039093,0.1509799212217331
0.25153173828125,-0.3157107940137386,0.9772039143737404,0.7989782948374747,-0.0749190673232078,-0.1826176196336746,0.1515559703111648
0.261558837890625,-0.1723891867340542,1.041124013359472,0.7935510090917348,-0.1040820106863975,-0.2176994383335113,0.1688790321350097
0.271585693359375,-0.1142206735449843,1.0863101127155124,0.6230763690084219,-0.1203175112605094,-0.2289377599954605,0.2004556208848953
0.28161376953125,-0.0295870321846334,1.0843944883525372,0.416459571442008,-0.1136910319328308,-0.208536610007286,0.240078404545784
0.291640869140625,0.0612479389007203,1.044950805106014,0.1720171933501958,-0.0927114114165306,-0.1448622196912765,0.2715306878089905
0.3016689453125,0.0442423430993687,0.95798841483742,-0.0187263277798891,-0.063596673309803,-0.0703224763274192,0.2897784113883972
0.31169580078125,-0.048285033485759,0.8161335739083587,-0.0593745645105838,-0.0423580482602119,-0.0027211462147533,0.2875688374042511
0.321723876953125,-0.1383436544703319,0.6375668127842247,0.079197455355525,-0.0379483848810195,0.0474594645202159,0.266538143157959
0.3317509765625,-0.1926166215255856,0.5130668286187574,0.3666495386123657,-0.0575106590986251,0.0591480284929275,0.2269875556230545
0.34177880859375,-0.2567959925020113,0.4300347270037978,0.7053063239276409,-0.0899855121970176,0.0409903302788734,0.1778064221143722
0.351805908203125,-0.3175545952495187,0.3862021246159449,0.9339788859575986,-0.1118002012372016,0.0406951457262039,0.1432274580001831
0.361832763671875,-0.1953125278123654,0.489631555962935,0.8162041549265384,-0.105451226234436,0.0703153610229492,0.1338944137096405
0.37186083984375,-0.2109731113460846,0.5460431790146977,0.5199801516711712,-0.0779629647731781,0.0293639749288558,0.134858563542366
0.3818876953125,-0.2006889784200116,0.5536750986652449,0.5943593930900096,-0.0463094264268875,-0.0138167850673198,0.1477402746677398
0.391915771484375,-0.0506049278006888,0.7369082806978374,0.6249965234160423,-0.0252480842173099,-0.0513151586055755,0.1431852132081985
0.401943115234375,-0.1289806093113962,0.7607604270588606,0.5364309357345104,-0.0112387919798493,-0.0958133861422538,0.1341733336448669
0.411970703125,-0.1672455585015937,0.7312919751860201,0.425448933583498,0.0010409131646156,-0.1257842630147934,0.1296387463808059
0.421997802734375,-0.1366254158429801,0.7572419706091285,0.2613736391484737,0.0129721406847238,-0.1293030977249145,0.1298925578594207
0.43202587890625,-0.1132426405593752,0.8162668448992073,-0.001527355697751,0.0428440161049366,-0.1143192276358604,0.1380141824483871
0.442052978515625,-0.1270069437514059,0.8665933028183876,-0.313149419093132,0.0966108441352844,-0.0792094469070434,0.1401979774236679
0.452080810546875,-0.1545069268291816,0.9011624388311058,-0.5723176571518183,0.1238355413079261,-0.0242906641215086,0.1324411928653717
0.462107666015625,-0.2072783302150666,1.027686951094121,-0.5970400104761123,0.1282619833946228,0.0319124236702919,0.1293034553527832
0.472134765625,-0.2136846901260316,1.064365407411009,-0.542125347983837,0.1170719787478447,0.0800450965762138,0.1330782026052475
0.48216259765625,-0.1348089775381609,1.0814980362586677,-0.4444616770893335,0.0971296951174736,0.1052263528108596,0.139522522687912
0.492189697265625,-0.0782361634421627,1.1011708511084315,-0.2707043620735406,0.0841367989778518,0.1388148814439773,0.1262549459934234
0.5022177734375,-0.1178056010933592,1.0388244311802088,-0.1899193452656269,0.0711067542433738,0.1705267280340194,0.0902700498700141
0.51224462890625,-0.2396067380962893,0.9691165425732732,-0.0948340004265308,0.0654877051711082,0.164426788687706,0.0483086109161376
0.522272705078125,-0.2188354604853317,0.9604349312067032,0.0572206013470888,0.0654453635215759,0.1609761267900467,-0.0028238138183951
0.5322998046875,-0.2289104807053692,0.9495013761948794,0.1882879446715116,0.0633927583694458,0.153186947107315,-0.0595481060445308
0.54232763671875,-0.3174375447411089,0.9698948334693908,0.2678250072449445,0.0516444891691207,0.1338811516761779,-0.1168414875864982
0.552354736328125,-0.3670825597347691,0.9989560927808284,0.3968196359485387,0.0325194112956523,0.1172023862600326,-0.1661772429943084
0.562382568359375,-0.3530865118797868,1.0821999009177088,0.5083598565042019,0.0084191355854272,0.1059454679489135,-0.1997487843036651
0.57240966796875,-0.3098790556529536,1.1999410950053482,0.5370633884191512,-0.0090671423822641,0.080251932144165,-0.2221612185239792
0.582436767578125,-0.2815862051644362,1.261170712798089,0.50271220600605,-0.020147755742073,0.0840330868959426,-0.2395772188901901
0.592464599609375,-0.3091946170527487,1.3069748709872364,0.4541191477507352,-0.0177121367305517,0.0926830247044563,-0.2510720789432525
0.60249169921875,-0.3646649771990254,1.3224176470518112,0.3799591020405292,-0.00383413862437,0.0946937128901481,-0.2577667236328125
0.612519775390625,-0.4063368578890338,1.3468388254724442,0.3299392258524894,0.0106247570365667,0.094732217490673,-0.2593648433685303
0.622546630859375,-0.46280587368384,1.379953013436496,0.3181155170679092,0.0170459039509296,0.0783822759985923,-0.2675460875034332
0.63257470703125,-0.5529797733448445,1.3590028721272944,0.3396586558341979,0.0054687247611582,0.0556827038526535,-0.275570660829544
0.642601806640625,-0.6087487145788967,1.3493790114745496,0.3572434123635292,-0.0235312357544899,0.0485132075846195,-0.2888624966144562
0.65262939453125,-0.6765826260074973,1.314265904778242,0.3090262016832828,-0.0528723411262035,0.0505735725164413,-0.2915640771389007
0.66265673828125,-0.6874616743531078,1.2888345264017582,0.1785468873798847,-0.0739467367529869,0.0643655508756637,-0.2859725058078766
0.6726845703125,-0.6657210402533411,1.27134227046147,0.0506949989706277,-0.0769956856966018,0.0793355777859687,-0.2785649597644806
0.6827119140625,-0.6872218742478639,1.254447980414331,-0.0562327593535184,-0.0703942477703094,0.1068843826651573,-0.2714559435844421
0.69273876953125,-0.7604825599655508,1.2723070238403975,-0.0916542013466358,-0.0677816271781921,0.1290892660617828,-0.2583702504634857
0.7027666015625,-0.8069218011878431,1.2722457951724528,-0.0611111790448427,-0.0655237957835197,0.1439084410667419,-0.2414988279342651
0.7127939453125,-0.8229176080252975,1.232006431503594,0.0103910456329584,-0.0725960433483123,0.1474177837371826,-0.2343678772449493
0.722821533203125,-0.90578439954333,1.1471250852927566,0.0954500864982604,-0.0830865055322647,0.1359720528125763,-0.2321766316890716
0.7328486328125,-0.9571659925386308,1.0871357498846947,0.1505377674698829,-0.1003172695636749,0.1000551879405975,-0.2386287301778793
0.742876708984375,-0.9335469973463564,1.0417493787162004,0.2182803473532199,-0.1242332607507705,0.0782707929611206,-0.2441201657056808
0.752903564453125,-0.8855432832863182,1.0297180185303092,0.2229191130697727,-0.1451995223760604,0.0688916817307472,-0.253842681646347
0.762931640625,-0.8704963016062974,0.9595701310709118,0.1373544607698917,-0.164230465888977,0.0776676014065742,-0.2619717121124267
0.772958740234375,-0.8526013100840151,0.9217736305095254,0.0753244133144617,-0.1705697923898697,0.092946708202362,-0.266309916973114
0.782986572265625,-0.7767801992937922,0.9211297065827996,-0.0310498027801513,-0.1592710614204406,0.1083546951413154,-0.2675349712371826
0.793013671875,-0.7907366823233664,0.8930206334296613,-0.0952531026214361,-0.149730697274208,0.1338775753974914,-0.2802725434303283
0.803040771484375,-0.8629704361461102,0.8909550061367452,-0.0796165575504302,-0.1584402918815612,0.1450548619031906,-0.2922338843345642
0.813068603515625,-0.8907065112683922,0.8996190818466245,0.0762403591156005,-0.1751910001039505,0.1538295447826385,-0.3024443686008453
0.823095703125,-0.9307927302021533,0.9131319127619266,0.1925906103014945,-0.1923798322677612,0.1440099328756332,-0.3057307004928589
0.83312353515625,-0.9327163186758756,0.9837390882961452,0.2722165202021598,-0.2015807628631591,0.0973778367042541,-0.300364077091217
0.843150634765625,-0.8729081119883805,1.0709264464270325,0.3377244729012251,-0.1894295513629913,0.0394010841846466,-0.2813922464847564
0.8531787109375,-0.7623088255446404,1.1686132790014148,0.2693453486800193,-0.1728167831897735,-0.0073478906415402,-0.2445933073759079
0.86320556640625,-0.6434006335042417,1.255664078205824,0.1298018534332513,-0.1413850933313369,-0.0353073552250862,-0.1890136748552322
0.873233642578125,-0.520383471775055,1.3277268593758345,-0.0837970581054687,-0.0980702489614486,-0.0827963799238205,-0.1141822785139083
0.8832607421875,-0.3794030755929649,1.3148790682405234,-0.3742950849294662,-0.0448680184781551,-0.1571851372718811,-0.0260766558349132
0.893288330078125,-0.209907893267367,1.2826903245583177,-0.6969272026389837,0.0016831030370667,-0.2197902649641037,0.0549862720072269
0.903315673828125,-0.2037307572687044,1.0994844323914497,-1.112446278360486,0.0412472896277904,-0.2290740460157394,0.1106026619672775
0.9133427734375,-0.3173525698713958,0.7450489170555025,-1.6349842978209257,0.0647586807608604,-0.1665097326040268,0.1342474222183227
0.923370849609375,-0.4064456885583699,0.4156581919312477,-2.010429137307405,0.0531622171401977,-0.05772041156888,0.1418438255786895
0.933397705078125,-0.4189674626097083,0.163056984237954,-2.146962929344177,0.0173374749720096,0.060839656740427,0.1321413218975067
0.943425537109375,-0.3737454151574522,-0.0334259573269635,-2.139024537560344,-0.0413410179316997,0.1906466484069824,0.1035035476088523
0.953452880859375,-0.4065155389241874,-0.2015554955888539,-1.9691396800637244,-0.1115622222423553,0.3104676306247711,0.0573694705963134
0.96348046875,-0.4834596623949706,-0.3255361685879528,-1.610557712572813,-0.1707989126443863,0.3776005804538727,0.0065467697568237
0.973507568359375,-0.4509996640233322,-0.4342779905967414,-1.209443009778857,-0.2005551308393478,0.3894652128219604,-0.0412363074719905
0.98353564453125,-0.3883787380026653,-0.4430145470209419,-0.8187485787123441,-0.2031186819076538,0.3517045080661773,-0.0907521992921829
0.993562744140625,-0.3567354263087734,-0.3443523666083812,-0.4328302760064602,-0.200587198138237,0.2825320661067962,-0.1274806410074234
1.003590576171875,-0.257587471673265,-0.2156676075715571,-0.0657850160747766,-0.2045070976018905,0.2170273661613464,-0.1471885591745376
1.01361767578125,-0.1797375219365581,-0.142777362601459,0.2309919448882341,-0.2094405740499496,0.1781079769134521,-0.1470473110675811
1.023644775390625,-0.1499959156781435,-0.1653263904746622,0.3686737379163503,-0.2118811011314392,0.1758368462324142,-0.1349166184663772
1.033672607421875,-0.1691451450452208,-0.2356532146975398,0.4489432064175605,-0.2058418095111847,0.2020432651042938,-0.1221067309379577
1.04369970703125,-0.2058876065090298,-0.2983280628625303,0.570865120255947,-0.1831205189228058,0.2301289588212967,-0.1137404143810272
1.0537275390625,-0.2538050305251031,-0.4051217464782297,0.6948410440146923,-0.1455947160720825,0.2330838739871978,-0.1106394976377487
1.063754638671875,-0.2666314866114407,-0.5023813666164875,0.8887403988271951,-0.1009425520896911,0.2136728912591934,-0.1189647987484932
1.073782470703125,-0.2697572539491579,-0.5763957202456891,1.0946341428160666,-0.0695088878273963,0.2122476994991302,-0.1371974050998687
1.0838095703125,-0.2386323766387998,-0.5931768322419375,1.3100672840446232,-0.0466310083866119,0.1801616698503494,-0.1479190289974212
1.093837646484375,-0.1193932721436023,-0.6541730796702205,1.556187239959836,-0.0311564281582832,0.0953658744692802,-0.1554289013147354
1.103864501953125,-0.0081861559998244,-0.6742129012014716,1.834319121685624,-0.0221834406256675,-6.4777676016e-05,-0.1655004471540451
1.113892822265625,0.0458430288948118,-0.6292907134786248,1.9409803380280728,-0.0172461364418268,-0.1141705438494682,-0.1898406893014907
1.123919677734375,0.0356924774868413,-0.6616049101714044,1.91894210922122,-0.0115198073908686,-0.206547349691391,-0.2087129056453704
1.133946533203125,0.1318390948818996,-0.6832485136374831,1.7267577416330575,0.0011083236895501,-0.2756415605545044,-0.2132787257432937
1.143974609375,0.2103952201265841,-0.6986459161903709,1.376607502400875,0.0242373459041118,-0.3118491172790527,-0.2035597860813141
1.154001708984375,0.2694335018875077,-0.681758567340672,0.9582821370869874,0.0523916445672512,-0.3090852797031402,-0.1811382323503494
1.16402978515625,0.334606012087129,-0.6203247322127222,0.5686585501223802,0.0906404927372932,-0.2750886976718902,-0.1424161344766616
1.174056640625,0.4389554808884859,-0.5310772266816347,0.2338905889391899,0.1294397413730621,-0.2179762423038482,-0.0968675091862678
1.18408447265625,0.5242420103667303,-0.4481815013300627,-0.0353057066589593,0.1642326116561889,-0.1490570902824401,-0.0492113009095191
1.19411181640625,0.5458917147800326,-0.3977687533669173,-0.1861380731612444,0.1916384845972061,-0.0920460447669029,-0.0122336857020854
1.204139892578125,0.5026082341749221,-0.3680895813528448,-0.2524859838157892,0.1989043802022934,-0.0489915162324905,0.0129454368725419
1.21416650390625,0.4854869669714942,-0.3461609504003077,-0.1857967123776674,0.1980210244655609,-0.0175349302589893,0.0255025718361139
1.22419384765625,0.4337394998058676,-0.3580982025619596,-0.0940413887441158,0.1725180596113205,0.0082796225324273,0.0092546269297599
1.2342216796875,0.273276733312197,-0.4053011946983635,0.0421662400782108,0.1231112405657768,0.043436661362648,-0.0246490743011236
1.24424853515625,0.1332639035206288,-0.41578444865942,0.2225987950742244,0.0747905820608139,0.0709151625633239,-0.0602131932973861
1.254276611328125,0.0718723731644451,-0.454348499527201,0.3452916932851076,0.0394635573029518,0.0975296348333358,-0.0908145904541015
1.2643037109375,-0.0027052038380876,-0.3662606854252517,0.4832663317799568,0.0208358094096183,0.1045989990234375,-0.1138317584991455
1.27433154296875,-0.0732216323489323,-0.2203353801868856,0.6609709231168032,0.0151877328753471,0.0871463939547538,-0.12535160779953
1.284358642578125,-0.0394356095379218,-0.0408287809293717,0.8397925357848406,0.0166583303362131,0.0594079680740833,-0.1215062737464904
1.29438671875,-0.0065645826799795,0.1448634481605142,1.0404413648575543,0.0153746865689754,0.0193489678204059,-0.1170145869255065
1.30441357421875,-0.0428441028071567,0.2645460586395114,1.2082494160801172,0.0079577825963497,-0.0027755093760788,-0.1092799678444862
1.314441650390625,-0.0780870098955929,0.3386600001856684,1.2949977252066134,0.0096366330981254,-0.0272069573402404,-0.0857572630047798
1.324468505859375,-0.0482355865871533,0.4081811340488493,1.297943131008744,0.0186908487230539,-0.0583134777843952,-0.052527405321598
1.334495849609375,0.0051485053369775,0.5108263196829707,1.2773475022256373,0.0458221212029457,-0.0886833816766738,-0.0104465167969465
1.3445234375,0.0078829352695494,0.6369866017434745,1.1752116543531417,0.076783500611782,-0.1208863258361816,0.0299059674143791
1.35455078125,0.047561048326455,0.7276624595772475,1.1028887609422209,0.1055349707603454,-0.1617027521133422,0.0743449330329895
1.36457861328125,0.0881064822698012,0.7389888132989406,1.0059873065918683,0.1246916204690933,-0.1834596991539001,0.109012633562088
1.37460546875,0.0241802458042278,0.705904216755554,0.9008154520243404,0.1322890967130661,-0.2003636956214904,0.1342530846595764
1.3846337890625,-0.0273242611846886,0.6563925092853605,0.7838315791100263,0.129714086651802,-0.2200495153665542,0.1563581228256225
1.39466064453125,0.0059161287086084,0.639789457269758,0.6308961028486489,0.1249120235443115,-0.2329926490783691,0.179076537489891
1.40468896484375,0.0224167797956615,0.6293281228795647,0.4527250630438327,0.1144916042685508,-0.2380848675966262,0.1929153949022293
1.414715576171875,0.0116358580622822,0.5750175637602806,0.2425350831657648,0.103602148592472,-0.2249083817005157,0.2080974280834198
1.42474365234375,0.0299023132454603,0.5598875799719244,0.0176473003715276,0.0905750319361686,-0.1956594139337539,0.2166009098291397
1.434770751953125,0.0209919163580052,0.5431042029533535,-0.1272293725967407,0.0749778226017952,-0.1609176248311996,0.2195725589990615
1.444797607421875,0.0035355537150055,0.5433898149617016,-0.2124444808065891,0.0609440319240093,-0.132106214761734,0.2222290635108947
1.454825439453125,0.0073306625484954,0.5522970517776906,-0.2538286305963993,0.0434935241937637,-0.108469434082508,0.2196121662855148
1.464852294921875,-0.047797587895533,0.5764579718269407,-0.2515291214823723,0.0243312790989875,-0.0932670459151268,0.2100037485361099
1.47488037109375,-0.0929655944724567,0.6004892010819166,-0.1648100384503603,0.0078193750232458,-0.1013740450143814,0.2055001109838485
1.484906982421875,-0.0851935904977843,0.6582972469281405,-0.0729395640045404,-0.0074000577442348,-0.1226902529597282,0.2067339420318603
1.494935302734375,-0.0629779136316385,0.7254501903552562,-0.031714404168725,-0.0195447206497192,-0.1421722322702407,0.2190832197666168
1.504962158203125,-0.0481924598314799,0.8133291109468788,-0.0076075523942708,-0.0257829092442989,-0.1592486798763275,0.2340733557939529
1.514990234375,-0.0743458597390446,0.8657147664181888,-0.0284358208894729,-0.0288727544248104,-0.159708485007286,0.253114253282547
1.52501708984375,-0.0910682912174612,0.8808622127979994,-0.0358306073158979,-0.0272144041955471,-0.1459271609783172,0.2698961794376373
1.53504541015625,-0.1128556870684027,0.8658383927978575,-0.064749243286252,-0.0111089963465929,-0.1376073062419891,0.2932673096656799
1.545072265625,-0.0585168791021686,0.9199502144746482,-0.0728963093847036,0.0141726583242416,-0.1441576182842254,0.3157121539115906
1.55510009765625,-0.0490985052931122,0.9484072973478584,-0.0304623582810163,0.0394720174372196,-0.1680087000131607,0.3261699080467224
1.56512744140625,-0.0543184912639902,0.9675228436410428,0.0227349788993597,0.0606204457581043,-0.205825850367546,0.3329569697380066
1.575154296875,-0.0168384556485863,0.9769533006135374,0.0031382980257272,0.0769152790307998,-0.2469546198844909,0.3418765664100647
1.58518212890625,0.0517929137425497,1.020516182681918,-0.0828852039575576,0.0826088488101959,-0.2873755395412445,0.3613253533840179
1.595209228515625,0.1405736968110315,1.076902232901007,-0.1775081919819116,0.0859001502394676,-0.3317396938800812,0.3780950903892517
1.6052373046875,0.1917940896289423,1.0911899206463247,-0.3027694793760776,0.0880021825432777,-0.3597638607025146,0.3879149556159973
1.615263916015625,0.2188852727101184,1.115377947898209,-0.5280874702811241,0.0989154279232025,-0.3624792397022247,0.3912508487701416
1.625292236328125,0.2715505488404072,1.125501428636163,-0.8225655066519976,0.1206929013133049,-0.3429372310638428,0.3925781846046448
1.6353193359375,0.3401072033192962,1.182406534293294,-1.1585521959751843,0.1527154445648193,-0.3041345775127411,0.4117001295089721
1.645347412109375,0.4804091887831687,1.268498717598617,-1.467715175780654,0.2049703896045684,-0.2787030041217804,0.4490648210048675
1.655374267578125,0.6461716325875372,1.3225797057457267,-1.7556652716875076,0.2696621417999267,-0.2626174390316009,0.4794860780239105
1.665402099609375,0.6712525170259177,1.2978367480248212,-2.02423963599503,0.3284445106983185,-0.2646347880363464,0.50124192237854
1.675429443359375,0.7062305991657077,1.3154409399069844,-2.217632210329175,0.3513131141662597,-0.2479265928268432,0.5267518758773804
1.6854560546875,0.8419353930324316,1.384908590017259,-2.272525245511532,0.3286786377429962,-0.1927903592586517,0.5463032126426697
1.695484130859375,0.8570625272765755,1.2849860342800616,-2.3054829277396203,0.2806920409202575,-0.0992070063948631,0.5617066621780396
1.70551123046875,0.7879158527489751,1.0511264980662611,-2.2942934252053497,0.225625604391098,-0.0012466236948966,0.5595614910125732
1.715539306640625,0.6719723557330668,0.8339741318296641,-2.1375965505838392,0.1888529807329177,0.1137340366840362,0.5237252712249756
1.725566162109375,0.4631952383276075,0.577189683634974,-1.85734110083282,0.1497178375720977,0.2802087664604187,0.4621556997299194
1.73559423828125,0.2274831695822999,0.2744322965554893,-1.6672393847376108,0.1251223683357238,0.4092992544174194,0.4001903831958771
1.745621337890625,0.1471065143795684,0.1141587324909865,-1.3528110317498443,0.0940462201833725,0.4982613325119018,0.3256250917911529
1.755649169921875,-0.0514799388032406,-0.0663096975360065,-0.7076192770451307,0.0420201867818832,0.5602955222129822,0.2362528145313263
1.76567626953125,-0.2295062729077413,-0.1431439674241468,-0.1215238544315099,-0.0227763876318931,0.5885791182518005,0.1397387832403183
1.775704345703125,-0.405114586085081,-0.2626782189410179,0.3681196111649275,-0.0840175598859787,0.5870153903961182,0.0529175624251365
1.7857314453125,-0.5026135314045473,-0.3860617297645658,0.7753606878846884,-0.1451016962528228,0.5604042410850525,-0.0186333209276199
1.795758056640625,-0.575391292443499,-0.3922682927871123,1.1811685169309376,-0.2008888870477676,0.5339648127555847,-0.085857018828392
1.805786376953125,-0.6900495719544589,-0.4239051747402176,1.4361492401719091,-0.2380378544330597,0.4789071679115295,-0.1475614011287689
1.8158134765625,-0.8205686337463557,-0.4157151828154921,1.6506798796027895,-0.2717325985431671,0.4226204752922058,-0.1954877972602844
1.825841064453125,-0.8730725087698549,-0.2785176661729812,1.901463735675812,-0.2901747226715088,0.3620995879173279,-0.2315491288900375
1.835868408203125,-0.905924757862091,-0.2013580002553761,2.0310779575824736,-0.2968988418579101,0.2838713824748993,-0.2395440638065338
1.845896240234375,-0.8848295089937745,-0.0973823697350919,2.09264857083261,-0.2855942547321319,0.2027368247509002,-0.2218611985445022
1.855923095703125,-0.8075673325497656,0.0844386439446359,2.0717226871818304,-0.2570781707763672,0.057524062693119,-0.1684889793395996
1.865951171875,-0.3795200165035203,0.2246795468710362,2.19930803360939,-0.2227676212787628,-0.1828038543462753,-0.0876303389668464
1.875978271484375,-0.076858107421454,0.4961509843269363,2.316082063165307,-0.1762320548295974,-0.2567409873008728,-0.0491924993693828
1.88600634765625,-0.8389667524851858,0.3209764959895983,1.6718372339218854,-0.1335149407386779,-0.3554393351078033,0.0738809630274772
1.896033203125,-0.1685349772576242,0.5383857595967129,1.337515262940526,-0.0759226605296135,-0.3809380531311035,0.2613995969295501
1.90606103515625,0.4828488735528662,0.5642616668703034,0.8804092083334922,-0.004693220835179,-0.3296215832233429,0.4220438599586487
1.91608837890625,0.3410504389861598,0.3817641787011176,0.2645142752617597,0.085424780845642,-0.2340296059846878,0.5094223022460938
1.926115234375,0.0828895878717303,0.1401685318099334,-0.2727338220745325,0.1891980469226837,-0.1114972978830337,0.545634388923645
1.93614306640625,-0.0595577390577644,-0.1494057677652686,-0.5683814867466688,0.2748309075832367,-0.0094721745699644,0.5403546690940857
1.94617041015625,-0.1573314096653834,-0.4597920057553797,-0.5355354481995105,0.3108392357826233,0.0541632622480392,0.478456974029541
1.9561982421875,-0.3368384107816964,-0.7262456515818834,-0.2650444366157055,0.2793958783149719,0.0880542322993278,0.3640173077583313
1.966225341796875,-0.5306145410733297,-0.904677461214736,0.1178612402707338,0.1914503127336502,0.0996533632278442,0.2062191516160965
1.976253173828125,-0.6342698170654475,-0.999771062425524,0.4964776955306529,0.0741448402404785,0.0979014113545417,0.0286414977163076
1.9862802734375,-0.7112678626805543,-1.017353553932533,0.7464695244431495,-0.0342998802661895,0.078837975859642,-0.1510318517684936
1.99630810546875,-0.7161616991367191,-0.9213532131403684,0.8431324938625097,-0.1125134229660034,0.0540500432252883,-0.3015509247779846
2.006335205078125,-0.5987551803635432,-0.6407025535266846,0.8907347875148057,-0.1562883257865905,0.0581835322082042,-0.4134308397769928
2.01636328125,-0.4474569864477962,-0.2430622488450259,0.9169166919976472,-0.1657246947288513,0.0682936906814575,-0.4832211136817932
2.026390380859375,-0.3248324042327702,0.162639379880391,0.9107692752838136,-0.144783467054367,0.0733470395207405,-0.5159566402435303
2.03641796875,-0.251322127668187,0.4770876066124066,0.9584288520812988,-0.1177346780896186,0.089027002453804,-0.5303521752357483
2.0464453125,-0.248516276467219,0.7283093061134219,1.068299678120017,-0.0884151384234428,0.0906587168574333,-0.534033477306366
2.056472412109375,-0.2985391848625615,0.9231023948952556,1.1962655482977629,-0.0656205713748931,0.07924784719944,-0.528696596622467
2.0665,-0.3080889208331704,1.0604153546109796,1.3134160099506378,-0.0551993548870086,0.0598262101411819,-0.5145858526229858
2.07652734375,-0.3465530915230512,1.2039971654631196,1.381840726879239,-0.0594055317342281,0.0300189703702926,-0.4936753213405609
2.08655517578125,-0.3694063995724543,1.3202287587054071,1.4000053291231394,-0.0676828995347023,-0.0004185633733868,-0.4674855470657348
2.09658203125,-0.3933907940110192,1.4280381221696734,1.3460282397419214,-0.0812423750758171,-0.0281737502664327,-0.4313311278820038
2.106610107421875,-0.4027201652292162,1.5010408145383,1.2273691270917653,-0.0926556214690208,-0.0458875000476837,-0.3883745968341827
2.11663720703125,-0.4061222287576645,1.533697906384617,1.0715835220962762,-0.0934503525495529,-0.0569201596081256,-0.3367670774459839
2.126665283203125,-0.4143531737472862,1.5486699961975217,0.871071471145749,-0.08679910749197,-0.0583500117063522,-0.2767223715782165
2.136692138671875,-0.4154772458737716,1.5582269290938973,0.6727016929209232,-0.0729942321777343,-0.0486378483474254,-0.2195218950510025
2.146719970703125,-0.4598925435204058,1.5320736661836505,0.4948708448559045,-0.0631221607327461,-0.0265091098845005,-0.1724760830402374
2.156747314453125,-0.5147452101597562,1.464639421597123,0.3296083864629268,-0.0603160709142684,0.0035707079805433,-0.1360220611095428
2.166774169921875,-0.5744253700207919,1.301953243432939,0.2069225025147199,-0.0670509412884712,0.037797387689352,-0.1089225336909294
2.176802001953125,-0.6270265679389238,1.1661645706750452,0.1219710136771202,-0.0782934576272964,0.0769567936658859,-0.0953389406204223
2.186829345703125,-0.6430896678589284,1.068307715296,0.0417938996344804,-0.0949954763054847,0.1224031001329422,-0.093002013862133
2.196857177734375,-0.6679861356411129,0.9943442150712012,0.0285889656245708,-0.1144537478685379,0.1606943011283874,-0.1024135053157806
2.20688427734375,-0.6564272152725606,0.9583645546734332,0.0486935960203409,-0.1322205066680908,0.1812696158885955,-0.1271079331636428
2.216912109375,-0.657171750029549,0.8620535404969006,0.077250412940979,-0.1573754251003265,0.1888045519590377,-0.1569795757532119
2.226939208984375,-0.6892587869029492,0.7899434130538254,0.1461445009469986,-0.1805750280618667,0.1772171407938003,-0.1935045719146728
2.23696728515625,-0.7244128831967711,0.704287794534862,0.1886357351958751,-0.2093126475811004,0.1694741398096084,-0.2285260111093521
2.246994140625,-0.7172134732119738,0.686833094125986,0.1892617581397294,-0.2347253412008285,0.1727564930915832,-0.2616152465343475
2.257022216796875,-0.702637762305513,0.7161846416208892,0.1385913090884685,-0.2489056885242462,0.1928578168153762,-0.2806708514690399
2.26704931640625,-0.6733238434072584,0.7344597915671766,-0.0063999301701784,-0.2430235743522644,0.2257854044437408,-0.2747125625610351
2.277076171875,-0.573774212635681,0.7641485351271927,-0.1647650302648544,-0.2090839892625808,0.2707493901252746,-0.2440025955438614
2.287104248046875,-0.5443434258921072,0.7645997129607945,-0.3189806094646453,-0.1546852886676788,0.3188121318817138,-0.2157786041498184
2.29713134765625,-0.6123826871670782,0.6527330369297415,-0.4344119922399521,-0.0924856662750244,0.3795854747295379,-0.188222199678421
2.307158935546875,-0.6723582863107324,0.5722448111113161,-0.4969283619076013,-0.0365765914320945,0.4594344794750213,-0.1593154519796371
2.317186279296875,-0.6479305320188403,0.5408141923200339,-0.618240034893155,0.0253637544810771,0.5825303792953491,-0.1376458704471588
2.327214111328125,-0.6958531436666846,0.512679546334222,-0.8362105856448412,0.088307037949562,0.6688266396522522,-0.1316004991531372
2.337240966796875,-0.8223246836334467,0.4381914377134293,-0.8179168040633201,0.1694992035627365,0.6498545408248901,-0.1117465049028396
2.34726904296875,-0.6388177626933902,0.4655191512305289,-0.8465946170151233,0.2685687839984894,0.4796226620674133,-0.0693990439176559
2.357296142578125,-0.302581409458071,0.5054734874129295,-0.9638561378270388,0.3603163361549377,0.2228607535362243,-0.0125290276482701
2.367324462890625,0.042562107528001,0.5863020511016249,-1.230652386546135,0.4198954999446869,-0.0392701998353004,0.0489481799304485
2.37735107421875,0.3386341350920498,0.5373197012677788,-1.5480618011713028,0.4053550958633423,-0.2833777368068695,0.1091841086745262
2.387379150390625,0.5686669526245445,0.3663500442091375,-1.7332967880129813,0.32359579205513,-0.4419434070587158,0.1624060571193695
2.39740625,0.7545340998899192,0.0463199987567961,-2.112594211274385,0.2226783335208892,-0.472293347120285,0.1812115907669067
2.40743310546875,0.6451071451611816,-0.4970012810133397,-2.711601137909293,0.141517698764801,-0.4173896312713623,0.1399267315864563
2.4174609375,0.3639486456232145,-1.0490436273775994,-3.133390964463353,0.0673986226320266,-0.1812571287155151,0.0213526170700788
2.42748828125,-0.0671866630336269,-1.6306472915299235,-3.299210472217202,-0.0104333292692899,0.0809665024280548,-0.1277116984128952
2.437516357421875,-0.1918309510406106,-1.9317922384440895,-3.047946139150857,-0.0634059682488441,0.3306128978729248,-0.2800017893314361
2.447543212890625,-0.1398580045560374,-1.965603030370176,-2.590374220597744,-0.0770653262734413,0.522108256816864,-0.4373059272766113
2.4575712890625,-0.1994545777868479,-1.854234366989136,-1.912783586591482,-0.0743994489312172,0.5878755450248718,-0.5682384967803955
2.4675986328125,-0.1495355316247791,-1.4911957123503088,-0.9240385067015886,-0.0934048295021057,0.5413571000099182,-0.6657949090003967
2.477626708984375,0.033376930553466,-1.0523742331050336,0.1737123068302869,-0.1421666592359542,0.4288578629493713,-0.728934645652771
2.487653564453125,0.1537537338417023,-0.7634870755437762,1.1068284384787082,-0.1950080394744873,0.2772904336452484,-0.768382728099823
2.497681640625,0.1711727784153074,-0.6130264649633318,1.6549270156532525,-0.2310744374990463,0.1173147335648536,-0.7749689817428589
2.507708740234375,0.224079535151273,-0.4519230259459465,1.9003052132904528,-0.2402881681919098,-0.0143783092498779,-0.7489821314811707
2.51773681640625,0.2869690489802509,-0.3219865132823586,1.8770681300878524,-0.2119145691394806,-0.1123700961470604,-0.6936651468276978
2.527763671875,0.333074528203532,-0.2276736141204834,1.7153537195652722,-0.1587900966405868,-0.1696925014257431,-0.6119489669799805
2.537790771484375,0.4408228821955621,-0.1297965196710079,1.4979589228749275,-0.0840760841965675,-0.1918800920248031,-0.5137065052986145
2.547818603515625,0.4919397598400711,-0.097080902570486,1.2281442031174898,0.0067923087626695,-0.1950319409370422,-0.3993338048458099
2.557845703125,0.5852123561687768,-0.0948557738669216,0.96933661506474,0.0973967164754867,-0.1824721097946167,-0.2812527418136596
2.567873779296875,0.6624881958119571,-0.0677442603837698,0.8176993619203567,0.156458169221878,-0.1679192632436752,-0.172938272356987
2.577900634765625,0.6860942584574222,-0.1245892333514988,0.8018734317570925,0.1858755946159362,-0.1642418503761291,-0.0841557309031486
2.5879287109375,0.6607924978099763,-0.2763918331254273,0.8486597328513861,0.1848020702600479,-0.1674187332391739,-0.0233853254467248
2.59795556640625,0.6249785493679344,-0.4720741258319467,0.8696890768766403,0.1692622900009155,-0.153070643544197,0.0165527407079935
2.60798388671875,0.5555787768620998,-0.6442755897078662,0.8422679859876632,0.1575012356042862,-0.1332295536994934,0.0339029692113399
2.6180107421875,0.5057789001002907,-0.8082618906851857,0.7750497222393751,0.142382800579071,-0.093500442802906,0.019950358197093
2.62803857421875,0.4888899803480133,-0.8660524739399552,0.7656026794582604,0.1244485527276992,-0.0381777994334697,-0.021838366985321
2.638065673828125,0.4416548029750585,-0.8977038228098303,0.8113830183804035,0.1068726778030395,0.0057054213248193,-0.0802449136972427
2.64809375,0.4525848143229261,-0.9066223116721958,0.8945563916295767,0.0936839058995246,0.0267041809856891,-0.1419471502304077
2.65812060546875,0.5024029208611697,-0.8565761319991201,1.0279261666774748,0.077287420630455,0.0034276559017598,-0.2040315866470337
2.668147705078125,0.5853607151309028,-0.7087275305479764,1.1859767939954995,0.0617217756807804,-0.0062382868491113,-0.2669253051280975
2.67817578125,0.5481174280054867,-0.5341060729835182,1.2740835319936274,0.045570284128189,-0.0174665935337543,-0.3191927075386047
2.688202392578125,0.5166568889999762,-0.37981311769858,1.3199872050344943,0.0354832932353019,-0.0367670580744743,-0.343455970287323
2.698230712890625,0.556203411566466,-0.229639945757389,1.3462018427431584,0.0288801714777946,-0.0586348883807659,-0.351119726896286
2.708257568359375,0.5875792314305901,-0.0043603871665894,1.3489964418977498,0.0236787516623735,-0.0797505527734756,-0.3397994339466095
2.718285888671875,0.6142773418072611,0.1900102384194731,1.342145845350623,0.0271834041923284,-0.0962877571582794,-0.3164549171924591
2.7283125,0.6392343076050281,0.347118616451323,1.2641542586535215,0.0293826423585414,-0.105077251791954,-0.2849137783050537
2.738340576171875,0.6564777033507824,0.4410236654646694,1.1546405754894018,0.0355914682149887,-0.1073466688394546,-0.25360107421875
2.74836767578125,0.5746545391341671,0.4759643382035196,1.0757938332676886,0.0368191860616207,-0.0987174957990646,-0.2354809194803238
2.758395751953125,0.4744445812903344,0.4831481852930039,1.0142214664518832,0.0274328477680683,-0.0925084203481674,-0.2272719442844391
2.7684228515625,0.4138370043860748,0.4897752752825617,0.9815683201283216,0.0070287743583321,-0.0991135984659195,-0.2162800133228302
2.77845068359375,0.4208468466155231,0.5837791084952653,0.9781418528109788,-0.0185441002249717,-0.1192168071866035,-0.1959334164857864
2.788477783203125,0.4526637247780338,0.6897198285434395,0.9347937094718216,-0.0486364923417568,-0.1345299780368805,-0.1717583090066909
2.798504638671875,0.4415638002233579,0.7513775355551391,0.8347311607420445,-0.0751537084579467,-0.1489613205194473,-0.1451291292905807
2.80853271484375,0.4393809032263234,0.7358319567032158,0.7093997307211161,-0.0953686982393264,-0.1630646139383316,-0.1185616999864578
2.8185595703125,0.433566335196048,0.7090054707065224,0.5655845495045185,-0.1034057438373565,-0.1688737273216247,-0.0949068740010261
2.828587890625,0.3963845324669033,0.7069392588917166,0.3648240767508744,-0.1089421883225441,-0.1664992570877075,-0.0724705457687377
2.838614501953125,0.3928143823625519,0.7204391572602092,0.2102040084034204,-0.1146999970078468,-0.1572033762931823,-0.0484502092003822
2.848642822265625,0.3837748974690214,0.719524088241905,0.0684416680634021,-0.1214918568730354,-0.1296500414609909,-0.011596854776144
2.858669921875,0.3951475745504721,0.7475448985897004,-0.0793061764270067,-0.1282298266887664,-0.1117953062057495,0.0234485697001218
2.868697509765625,0.347686990923807,0.7521214127250015,-0.1895499274313449,-0.1498794555664062,-0.088111013174057,0.0537132658064365
2.878724853515625,0.3372962010191753,0.7187435323234647,-0.2135644247472286,-0.1668846607208252,-0.0650106891989708,0.0860954076051712
2.888752685546875,0.3374386782297864,0.621872765372321,-0.2920943561047315,-0.1718061864376068,-0.0444675981998443,0.1207133010029792
2.898779541015625,0.3046187239719554,0.5366228050448,-0.3881950154662132,-0.1670411378145218,-0.0358475483953952,0.1483241915702819
2.9088076171875,0.2560396211767569,0.4947503602813929,-0.4191764291852712,-0.1583355218172073,-0.0482131391763687,0.1679207980632782
2.918834716796875,0.2581737836612388,0.4507946795031428,-0.4320370798021554,-0.1434378325939178,-0.0825016647577285,0.1881250292062759
2.928861328125,0.2866549232634716,0.3812278068020939,-0.4598585681855678,-0.138656660914421,-0.112779676914215,0.2029250115156173
2.9388896484375,0.2598609878295101,0.3155793496537953,-0.4738572829216718,-0.1400236040353775,-0.1353898048400879,0.2065637707710266
2.948916748046875,0.2369709462326019,0.2222335419584065,-0.5535843151092529,-0.1497998088598251,-0.1480560600757599,0.2012494355440139
2.95894482421875,0.217883548321668,0.1236138124480843,-0.6425409479349852,-0.15913787484169,-0.148056223988533,0.1892146915197372
2.9689716796875,0.1812407295737415,0.0415514691807329,-0.7821884880781174,-0.1628889441490173,-0.1436268538236618,0.1661178916692733
2.97899951171875,0.1211515687867067,0.0155743665549904,-0.93132807918787,-0.1572708189487457,-0.1286952644586563,0.145584762096405
2.98902685546875,0.0762452179538086,0.0621927637364715,-1.132770688986778,-0.1298676878213882,-0.0966707468032836,0.1481768190860748
2.9990546875,0.2113539821561425,0.2172415788900107,-1.3164321429014203,-0.0776664242148399,-0.0724728554487228,0.1984083503484726
3.009081787109375,0.4979159481728449,0.4694084868192672,-1.459877906283736,0.0011053483467549,-0.053638182580471,0.2911587953567505
3.019109619140625,0.7013684730220585,0.7134601120278239,-1.6668120992362498,0.0838487446308136,-0.168675810098648,0.4236844778060913
3.02913671875,1.0744500174432992,1.008885950642824,-1.7918442540496586,0.1565607637166977,-0.2537379860877991,0.5444292426109314
3.03916455078125,1.1905251049496233,1.0499894568603485,-2.0629642111867663,0.2023506760597229,-0.2488065958023071,0.6154869198799133
3.049191650390625,0.8595888308838009,0.713888858833909,-2.383023263537884,0.2158467769622802,-0.1798379272222519,0.6455662250518799
3.0592197265625,0.6406120987642556,0.2144799321569502,-2.549765731355548,0.2106932550668716,-0.0369794182479381,0.6418444514274597
3.069246826171875,0.3382383772401139,-0.2958965248666703,-2.501495913705229,0.1799531877040863,0.1498149633407592,0.592655599117279
3.079273681640625,0.0253903887789696,-0.5340113804373889,-2.1748908007115126,0.1178396791219711,0.2999836504459381,0.5029842853546143
3.0893017578125,-0.1701148303275927,-0.6504190608989447,-1.6196189709067343,0.0560671240091323,0.3987467288970947,0.3857594132423401
3.099328857421875,-0.4171425852701068,-0.8781558764487505,-1.0890899526923894,0.0005198360886424,0.4359411299228668,0.2556088864803314
3.1093564453125,-0.635326705707237,-1.1096295404393226,-0.536359039542079,-0.0663816928863525,0.4176231324672699,0.1095462217926979
3.1193837890625,-0.8695838629364967,-1.2451891536816957,0.1109732343226671,-0.1502069681882858,0.3833277821540832,-0.0660234689712524
3.12941162109375,-1.0989502524495125,-1.3163327741801738,0.7061100415259599,-0.2454999387264251,0.3116669058799743,-0.2456313073635101
3.1394384765625,-1.289173110706359,-1.2717317081704735,1.233513036674261,-0.336648017168045,0.2447201758623123,-0.3854674100875854
3.149466552734375,-1.3580698290608824,-1.1519587159942837,1.521020649510622,-0.4094029366970062,0.1885780692100525,-0.4836278259754181
3.15949365234375,-1.4264245494931935,-1.0099888703834266,1.6152192746430634,-0.459087073802948,0.1545827090740203,-0.5301722288131714
3.169521728515625,-1.4996834085799753,-0.8355561403241007,1.662846702736616,-0.4637406766414642,0.1102407947182655,-0.5381523966789246
3.179548583984375,-1.5121914463669062,-0.7154566926725209,1.6030618038594722,-0.4210201799869537,0.0694099739193916,-0.5077206492424011
3.189576416015625,-1.617590679949522,-0.5635705793336033,1.4828016857534647,-0.3496463894844055,0.0417818091809749,-0.4419866502285003
3.199603759765625,-1.6997203893646595,-0.4381470140498131,1.3478624694317578,-0.2608442008495331,0.0169551149010658,-0.3417854309082031
3.209630615234375,-1.633120257514715,-0.3087904201660305,1.254594987669587,-0.1653576344251632,-0.0176273621618747,-0.1980879008769989
3.219658447265625,-1.395669930267334,-0.1084105442278087,1.2612784109562634,-0.0799107328057289,-0.0664080306887626,-0.0220848806202411
3.229685791015625,-1.1451378569982946,0.1227044425182044,1.2616367228746412,-0.0050263702869415,-0.1174192875623703,0.1631614118814468
3.239713623046875,-0.9058416096232832,0.2856914302598685,1.1990578093647957,0.0519566349685192,-0.1583268046379089,0.3364808857440948
3.24974072265625,-0.6979132910668849,0.3181823717590421,1.0598246952414512,0.0993710234761238,-0.1776424646377563,0.4766862094402313
3.2597685546875,-0.6398964247755706,0.1193508943066,0.8029238175928592,0.1526859253644943,-0.1596724241971969,0.5683454871177673
3.269795654296875,-0.6664546152248978,-0.1999614313304424,0.5110790523350238,0.2124262303113937,-0.1251253634691238,0.6066497564315796
3.27982373046875,-0.7253646309636533,-0.524371153171733,0.2747796486884355,0.244223952293396,-0.0855338647961616,0.5901435017585754
3.2898505859375,-0.7847847881816327,-0.7042840682078152,0.2481821491420268,0.235197439789772,-0.0471635721623897,0.524874746799469
3.29987890625,-0.8488917149763554,-0.8474290220126509,0.4030307655483484,0.1837005168199539,-0.0202521029859781,0.4304227232933044
3.30990576171875,-0.8809866428952664,-0.9615305444236844,0.5998468845903873,0.1017968654632568,-0.0042973714880645,0.3259442448616028
3.31993359375,-0.8799255895350128,-0.9810249339666216,0.8172147932738065,0.0040503311902284,0.0024819711688905,0.2214013338088989
3.329960693359375,-0.8685318696655333,-0.8510265350479632,0.9917302331805228,-0.0814941301941871,-0.0106580667197704,0.1217525079846382
3.33998876953125,-0.8171304759912192,-0.6326805751126259,1.0772487082511186,-0.1435724645853042,-0.0213688798248767,0.0353773310780525
3.350015380859375,-0.7754584491707384,-0.3945510334294289,1.1029057120770216,-0.1697457432746887,-0.024470929056406,-0.0182715188711881
3.360042724609375,-0.6798823251400142,-0.0975360989920794,1.0511977366715668,-0.1667785793542862,-0.0196378994733095,-0.0353604555130004
3.370070556640625,-0.5751919704791159,0.2174731226235628,1.0088286674976348,-0.1473300457000732,-0.0074555347673594,-0.0279414225369691
3.38009765625,-0.5425814577208832,0.4905108230154961,1.0389771375238894,-0.1181950271129608,-0.0113247279077768,-0.0099458331242203
3.390125732421875,-0.5236534333564341,0.6930342868536711,1.10192020817101,-0.0927048474550247,-0.020576549693942,0.0195404198020696
3.400152587890625,-0.5316903170786798,0.8794309378858656,1.186350888004899,-0.0806424915790557,-0.0334340631961822,0.0546058863401412
3.410180908203125,-0.556150037411414,0.9998576447304338,1.2286971608251334,-0.0810526236891746,-0.051813069730997,0.0901313871145248
3.42020751953125,-0.6137582863692194,1.0553118209268897,1.2152607561469078,-0.0856174454092979,-0.0605469308793544,0.1213441863656044
3.430235595703125,-0.6557432515963911,1.1038812791109085,1.1215315020918846,-0.0887269526720047,-0.0478604286909103,0.1551301181316375
3.4402626953125,-0.6500454783461987,1.133667564761266,0.9972177246809004,-0.0837368369102478,-0.033937282860279,0.2005607634782791
3.450290771484375,-0.6366304087169468,1.1405553515136242,0.8562959268182515,-0.0610115528106689,-0.0362811312079429,0.2405957877635955
3.4603173828125,-0.6194904733456671,1.1496928899541496,0.7189356208294629,-0.0358406491577625,-0.0344951450824737,0.2783352732658386
3.470345947265625,-0.6219932499468326,1.1589289933983236,0.6387164212107658,-0.0094982581213116,-0.0254177618771791,0.3025583326816559
3.480372802734375,-0.6928662368103862,1.0617166464678942,0.5404805033862591,0.0090877003967762,-0.018608134239912,0.3117647767066955
3.490401123046875,-0.7115639230176806,0.9517207327447832,0.4673492162019014,0.0106754768639802,-0.0147140603512525,0.3058160841464996
3.500427978515625,-0.7207172435492277,0.932711277174577,0.4757768528074025,-0.0113243758678436,-0.0062128659337759,0.2797435522079468
3.510454833984375,-0.7399764360968023,0.9019170565906912,0.4880091423928737,-0.0463068597018718,-0.0009049191139638,0.2466521710157394
3.520483154296875,-0.7413301157280803,0.8478195557001977,0.4487462225407361,-0.0912268236279487,-0.0007813470438122,0.2035314589738845
3.530509765625,-0.7562778017520904,0.7912095605321228,0.3914344357788562,-0.1369282752275467,0.0023167082108557,0.1449608206748962
3.5405380859375,-0.773226744595915,0.7603373062759637,0.3157593093305826,-0.1758438199758529,0.0119789214804768,0.0798397436738014
3.55056494140625,-0.7730167551070452,0.7637939495358615,0.2333119122684001,-0.2081934958696365,0.0238459669053554,0.0208675079047679
3.560593017578125,-0.7278443920154124,0.7979609344884753,0.1113946746051311,-0.228477343916893,0.0352905206382274,-0.0387765876948833
3.570619873046875,-0.7437154034294188,0.8151786112710833,-0.002133504897356,-0.2395449131727218,0.0473186857998371,-0.0880756974220275
3.58064794921875,-0.7445137142002582,0.831901928665489,-0.0572919130176305,-0.2413388937711715,0.032787337899208,-0.1189672574400901
3.590675048828125,-0.675243047966808,0.8719786491185426,-0.0779290428549051,-0.2322679013013839,-0.0053046555258333,-0.135649025440216
3.600702880859375,-0.5788100148458033,0.9356219769895076,-0.1168733982771635,-0.2216597646474838,-0.0489644408226013,-0.1439313739538192
3.61072998046875,-0.5583569728711619,0.9584190613396464,-0.2110597484499216,-0.2053351104259491,-0.0867070257663726,-0.1394764333963394
3.620758056640625,-0.4966397542245686,0.9370942414991555,-0.3897194485545158,-0.1760467737913131,-0.1080434396862983,-0.1202895641326904
3.630784912109375,-0.4070284203497692,0.8811261244311929,-0.6447451799809932,-0.1479687988758087,-0.1034510880708694,-0.0950209572911262
3.640812744140625,-0.3414756055956706,0.8423350598745047,-0.8144558499544858,-0.1400710642337799,-0.1529966741800308,-0.0866228938102722
3.650840087890625,-0.3624478491388261,0.6967338720239699,-0.6154571261763573,-0.1504752337932586,-0.1447081267833709,-0.0770222023129463
3.66086669921875,-0.1729441720020026,0.6487513468824326,-0.7419733820676803,-0.1475347876548767,-0.1124253273010253,-0.0775420144200325
3.670894775390625,-0.1546795069171115,0.5022909118540585,-1.0232084905058143,-0.1084052249789238,-0.0934449732303619,-0.0648256838321685
3.680921875,-0.0317931136944331,0.4126325604997575,-1.3246084350943566,-0.0355909802019596,-0.1163277626037597,-0.0347890369594097
3.690949951171875,0.1923975536811165,0.403827761144936,-1.6002847403615712,0.0618940293788909,-0.1479757130146026,0.0040521025657653
3.70097705078125,0.4023401529356837,0.449840301387757,-1.934630676740408,0.1575989425182342,-0.1711950451135635,0.0426606237888336
3.7110048828125,0.4690580659464001,0.4248302171632647,-2.3167080861091613,0.2233406752347946,-0.2022179365158081,0.071292795240879
3.721031982421875,0.4503266235999763,0.2080503375008702,-2.492507720607519,0.2412448227405548,-0.1703016310930252,0.0924247577786445
3.73106005859375,0.4593049163581803,-0.0235749368548393,-2.630726104730368,0.2099774479866027,-0.1289914697408676,0.0940242558717727
3.7410869140625,0.3516865819539874,-0.3572537876270711,-2.5066286004185674,0.14144366979599,-0.0370840430259704,0.0682314708828926
3.751114990234375,0.2001111054668203,-0.6473907260537147,-2.355909046640992,0.0487219989299774,0.0836684703826904,0.0046287975274026
3.76114208984375,0.0024316110610961,-1.0373150495305656,-2.008035520169139,-0.0202926881611347,0.2017279416322708,-0.0724007114768028
3.771169677734375,-0.0174315752616152,-1.266976184206456,-1.783732843786478,-0.0427814871072769,0.2690651714801788,-0.1607678681612014
3.781197021484375,-0.129914045103453,-1.3863408147774636,-1.4828817652523516,-0.0333536490797996,0.2759242951869964,-0.2545797824859619
3.791224853515625,-0.1202155117793008,-1.3728123479016123,-1.0343857180804013,-0.0254384689033031,0.2631800174713135,-0.3460292816162109
3.801251953125,-0.1074967173185199,-1.2170697052650152,-0.5161603011220693,-0.0311197098344564,0.2457984536886215,-0.4251651465892792
3.81127978515625,-0.1018754799032583,-1.0989094820477068,-0.0195996034830808,-0.048606026917696,0.2155422866344452,-0.4722341299057007
3.821306884765625,-0.0090053634282201,-0.9776187057197092,0.4679284773945808,-0.069070391356945,0.184564009308815,-0.4994519650936126
3.831333984375,0.0432983493806794,-0.8744386094912886,0.9266600873768328,-0.0904555767774581,0.1520393639802932,-0.5066867470741272
3.84136181640625,0.1301184816343709,-0.6805224496744573,1.2235779181152582,-0.0912616774439811,0.1128672584891319,-0.4980787336826324
3.851388916015625,0.1491242108775302,-0.5531440239958465,1.3599334309756754,-0.0658782944083213,0.0794805362820625,-0.4840385615825653
3.8614169921875,0.1162629747612401,-0.5227851260893046,1.4357844985127448,-0.02914116717875,0.0390061996877193,-0.47037073969841
3.87144384765625,0.1196066226333379,-0.4628288161680102,1.5343816508650778,0.0202085394412279,0.0013251360505819,-0.4533824324607849
3.8814716796875,0.1603444373436272,-0.4038419358007609,1.5179454798489809,0.0796370729804039,-0.0496832281351089,-0.4298721849918365
3.8914990234375,0.1595280063942074,-0.3668848086729645,1.4739672219127415,0.1380444467067718,-0.1200641766190528,-0.3969009220600128
3.90152685546875,0.2005783211197704,-0.2845262589380145,1.432367383545637,0.1744387596845626,-0.1981479972600937,-0.3472606837749481
3.9115537109375,0.2830028487630188,-0.1626680579856038,1.362994572111964,0.1843433231115341,-0.2683963179588318,-0.2847387194633484
3.921581787109375,0.3465845826398581,-0.1375664960853755,1.1386316899746656,0.1741429716348648,-0.2996917366981506,-0.2176330238580703
3.93160888671875,0.3116084001962095,-0.2211990112788975,0.7809569004565476,0.1597528457641601,-0.293831467628479,-0.1603271216154098
3.941636962890625,0.2100606361436657,-0.4134036910027265,0.4594213458120822,0.1346690654754638,-0.3114300072193146,-0.1240701079368591
3.951663818359375,0.0676641260859556,-0.633170331390947,0.3866898716002702,0.0999270677566528,-0.275342047214508,-0.1094485521316528
3.96169189453125,0.0733217956546228,-0.6675308661542833,0.229904734173417,0.0559352114796638,-0.2155914604663849,-0.1261093914508819
3.971718994140625,-0.1599518578294664,-0.7978481217637657,0.2256049911528825,0.0114867892116308,-0.1053839996457099,-0.1553948372602462
3.981746826171875,-0.1826989838243462,-0.8315430322252213,0.1441571265220642,-0.0219370741397142,0.017867274582386,-0.1710689514875412
3.993654052734375,-0.2054521011685952,-0.8116289559654891,0.1905991442233324,-0.0278367735445499,0.1469898372888565,-0.1802624464035034
4.0036806640625,-0.1920685043898411,-0.718091717351228,0.325467633396387,-0.0206072218716144,0.202574074268341,-0.1884588897228241
4.013708984375,-0.2678063756097108,-0.5628219529233872,0.7030372099518776,-0.0193728450685739,0.1976253986358642,-0.1994867771863937
4.023736083984375,-0.2790059976791962,-0.3807365161538124,1.2135942842394112,-0.0338327884674072,0.1286476999521255,-0.2001392841339111
4.033763916015625,-0.2283024683422408,-0.2040501619488,1.660249087458849,-0.0610987655818462,0.031349916011095,-0.1954153776168823
4.043791015625,-0.1963443185455165,-0.0352703430846333,1.9835078126341104,-0.0952928066253662,-0.0638976544141769,-0.1762212216854095
4.05381884765625,-0.1678336605878546,0.1074815928146243,2.094847542181611,-0.1270504593849182,-0.1293363124132156,-0.1480234116315841
4.063845947265625,-0.1228960926327854,0.2505757662802934,1.9916314978569745,-0.1413034498691558,-0.1581035554409027,-0.1046287789940834
4.0738740234375,-0.0445448057778179,0.3545280159249901,1.7943541910439729,-0.1356080174446106,-0.1604671031236648,-0.0532532036304473
4.08390087890625,0.0429839588024187,0.4348179426923394,1.5523931083738802,-0.105667307972908,-0.1451741307973861,0.0025766086764633
4.093928955078125,0.085552021147171,0.4860363810151815,1.3617781820595265,-0.0622511282563209,-0.1356794387102127,0.0482905693352222
4.1039560546875,0.0945491373368538,0.5004609199479222,1.2645903119832276,-0.0311266928911209,-0.1338255703449249,0.0756713077425956
4.113983642578125,0.1109563927857205,0.4909457803666591,1.2618512424081565,-0.0133301205933094,-0.1442718058824539,0.0896790027618408
4.124010986328125,0.1278912157726474,0.4944089264325797,1.314573947814107,-0.016601650044322,-0.172862708568573,0.092633917927742
4.134038818359375,0.1545440805017948,0.4974196525558829,1.3406529764443635,-0.0342126041650772,-0.2129704505205154,0.0971101522445678
4.144065673828125,0.2122589499055407,0.5108303382709622,1.295765202447772,-0.0584103725850582,-0.2447866350412368,0.1028379127383232
4.15409375,0.2800351763301529,0.5285634172298014,1.1469745709061625,-0.0747976005077362,-0.2737740874290466,0.1071298643946647
4.164120849609375,0.3046295376269146,0.5305730034865439,0.9063596421480178,-0.0842642337083816,-0.295494019985199,0.107630930840969
4.17414892578125,0.2873823059562593,0.5440343964755535,0.6112602590084075,-0.0849337503314018,-0.3103747069835663,0.1090988665819168
4.18417578125,0.2942932361221872,0.5605554692961275,0.3097930944025516,-0.082368217408657,-0.3090479969978332,0.1225412338972091
4.194202880859375,0.2887976343805901,0.5448606181666255,0.0413560927391052,-0.0790294110774993,-0.2938490808010101,0.1467283368110656
4.20423095703125,0.3009295323315076,0.5471646573252975,-0.2143611280828714,-0.0734555199742317,-0.2707753181457519,0.1754491031169891
4.2142578125,0.3530420151509344,0.5918666994914412,-0.4474766409963369,-0.0723143592476844,-0.2420754879713058,0.2049060612916946
4.224285888671875,0.3554891160421073,0.5971341185003519,-0.6720137106567621,-0.068459153175354,-0.2010520100593567,0.2283950597047805
4.23431298828125,0.2961599433095194,0.5715381972119212,-0.8681582140475511,-0.0637152642011642,-0.1608361452817917,0.2389542311429977
4.2443408203125,0.201227341346722,0.4782949731081723,-0.9986720151424407,-0.0605164170265197,-0.1341497600078582,0.2474180608987808
4.254367919921875,0.176990561315976,0.3689453944645822,-1.0542775825083257,-0.0562359169125556,-0.1166194975376129,0.2529638409614563
4.264395751953125,0.1726089852308854,0.3290378930985927,-1.0933487791806458,-0.0516878515481948,-0.102530650794506,0.2554885745048523
4.2744228515625,0.1364179105721414,0.3168672705724835,-1.1202525681972504,-0.0524537712335586,-0.0969095155596733,0.2578960657119751
4.284451171875,0.1678846601227298,0.2926696717746556,-1.107388410449028,-0.0582603812217712,-0.1007528752088546,0.2616105675697326
4.294477783203125,0.2322473883094266,0.2474028353326022,-1.0469459244459869,-0.068064272403717,-0.1047281771898269,0.2606411874294281
4.304506103515625,0.2623480919375084,0.1829778555646538,-1.041984502646327,-0.0786483064293861,-0.0695083662867546,0.2471009790897369
4.314532958984375,0.1658342851978726,0.1314711018197238,-1.1369652180671692,-0.0860553532838821,-0.0960073471069336,0.2477507889270782
4.324560791015625,0.4904260308088734,0.3242788620032369,-1.0535124433547258,-0.0758558511734008,-0.1161402761936187,0.241586372256279
4.334587890625,0.5158935399446636,0.4221475539505481,-1.1124416021853685,-0.041283756494522,-0.0747491642832756,0.2394236177206039
4.344615966796875,0.4076806737134233,0.417028311240673,-1.378198570984602,0.0087144691497087,-0.0637857317924499,0.2596115469932556
4.354642822265625,0.5844212423237041,0.4420275818102061,-1.4609750538706778,0.0565347224473953,-0.1040146425366401,0.296976238489151
4.37407080078125,0.7375171333111822,0.6093629009544849,-1.7522604316800832,0.1653970330953598,-0.1841190606355667,0.4157223403453827
4.38409912109375,0.961653805477172,0.6723438193939626,-1.9170202012479305,0.1887945979833603,-0.2155487835407257,0.4857078790664673
4.394125732421875,0.9592223405465484,0.6206910813070833,-1.98970082205534,0.186925321817398,-0.1155750378966331,0.5318785905838013
4.404154052734375,0.6149918467521667,0.3249666981369257,-2.178477427026629,0.1671635508537292,0.0144714852795004,0.567182183265686
4.414180908203125,0.3824211447725072,0.019089169742912,-2.022345200550556,0.1327499151229858,0.1622130125761032,0.5978402495384216
4.424208984375,0.2828734136970713,-0.2193656583718955,-1.6770459084808826,0.1066900044679641,0.2894024550914764,0.6104719638824463
4.43423583984375,0.1091468043467961,-0.4355328129634261,-1.3342963008940218,0.0923925638198852,0.3421543538570404,0.5906034708023071
4.444263916015625,-0.1423429897721856,-0.6965005016595125,-0.92830668554008,0.0691654160618782,0.3299453258514404,0.5256565809249878
4.454290771484375,-0.3802987092584371,-0.9791058755375444,-0.3730950614899396,0.0127556715160608,0.3155392110347748,0.4076431095600128
4.46431787109375,-0.6631348962176591,-1.258747577304393,0.1574304495930671,-0.0793749019503593,0.3146961629390716,0.2544609606266022
4.47434521484375,-0.973389032260701,-1.4433490885481235,0.7005453931361436,-0.1940021514892578,0.3145132064819336,0.0969389826059341
4.484373046875,-1.19005120382756,-1.6065785798087715,1.1361883884757755,-0.2886261940002441,0.3051636219024658,-0.0326879732310771
4.49439990234375,-1.1713256797652691,-1.551858563105762,1.4503484459161755,-0.3506291210651397,0.2731585502624511,-0.1239579692482948
4.504427978515625,-1.1077908537700771,-1.2663776337914168,1.6679349657863378,-0.3717405200004577,0.2148847132921219,-0.1923052668571472
4.514455078125,-1.2160958917967974,-1.0373249864026903,1.833836306604743,-0.3559831380844116,0.1490566879510879,-0.2214197367429733
4.52448193359375,-1.2136228527467696,-0.8515529700748622,1.890265465313196,-0.3106017112731933,0.0591684989631176,-0.2040249705314636
4.534510009765625,-1.1230453407209366,-0.6734773534685373,1.8661767337173223,-0.2401269972324371,-0.0365159474313259,-0.1389671415090561
4.544537109375,-0.9918584626700728,-0.460510894614458,1.7571441120684146,-0.1530458182096481,-0.1136644929647445,-0.0444087013602256
4.554565185546875,-0.8654476399146019,-0.2570595753416418,1.5483435407221315,-0.0516923032701015,-0.157662034034729,0.0730827748775482
4.564592041015625,-0.7392218914024531,-0.0681232497639954,1.2475637738585472,0.0519913844764232,-0.1908330172300338,0.2113675326108932
4.574619873046875,-0.594210486138612,0.0432135571740567,0.9638234046012164,0.1459618210792541,-0.1916753649711609,0.3528492748737335
4.584647216796875,-0.3980820205671712,0.047244273994863,0.7622779189497232,0.226016953587532,-0.1789618879556656,0.4666033685207367
4.594675048828125,-0.3263852231653407,-0.0792835262037813,0.5649731396079063,0.287232369184494,-0.1552181988954544,0.5341464877128601
4.604701904296875,-0.3675366967104375,-0.294199950081855,0.3896475523620843,0.3235402405261993,-0.1269049197435379,0.5484254956245422
4.61472998046875,-0.420331115645729,-0.5231427073553204,0.3076058134913444,0.3262494802474975,-0.1002485454082489,0.512068510055542
4.624757080078125,-0.4873723788592964,-0.7393176068618893,0.2997615297317504,0.2925664186477661,-0.0673792883753776,0.4426950216293335
4.634784912109375,-0.5655716534903272,-0.93627927185446,0.3308890739232301,0.2280167341232299,-0.0246840193867683,0.3532136082649231
4.64481201171875,-0.5492546153418719,-1.0481897870272396,0.3715308809131383,0.148894652724266,0.014235571026802,0.2509007453918457
4.654840087890625,-0.5327644491162151,-1.047919884044677,0.4403209240227937,0.069781981408596,0.0500260591506958,0.1516101211309433
4.6648671875,-0.4796933686640113,-0.9432606551744044,0.5463929423004389,0.0092358766123652,0.0852082818746566,0.0645708441734314
4.67489501953125,-0.3950668374644592,-0.7277841131955385,0.6691343558281659,-0.0245111677795648,0.1004633978009224,-0.0037680035457015
4.684922119140625,-0.2890016507863998,-0.4688045295767485,0.76508128593266,-0.0305085517466068,0.1055848151445388,-0.0456392355263233
4.6949501953125,-0.2003001434992067,-0.1816036446020007,0.8972896159857511,-0.0180454887449741,0.1039344519376754,-0.068671315908432
4.704976806640625,-0.1475517556627281,0.081592972189933,1.0705331362605095,-0.0051062554121017,0.1012518480420112,-0.0764703825116157
4.715004150390625,-0.1600330698395148,0.28206819826141,1.2268880655765533,0.003423050744459,0.0913579389452934,-0.0754131078720092
4.725031982421875,-0.1763144338863901,0.4359574681162834,1.3855658848822117,0.0067845238372683,0.0776828378438949,-0.0703750550746917
4.735058837890625,-0.1869344477033242,0.5190409711249172,1.4751286669075487,0.0078095742501318,0.0645406618714332,-0.060207113623619
4.7450869140625,-0.2470204666852019,0.5973495148167014,1.4849813678801058,0.0112255569547414,0.0528574921190738,-0.0558236017823219
4.755114013671875,-0.2850456797022372,0.6722068951413035,1.4716624521017074,0.0143300034105777,0.045331135392189,-0.0479547604918479
4.765142333984375,-0.3152365275654941,0.746489105926454,1.402150524458289,0.0199768524616956,0.0444398857653141,-0.0385770313441753
4.7751689453125,-0.3664505089089274,0.7690754701353609,1.2869494433075188,0.0282816532999277,0.0454502888023853,-0.0295052379369735
4.785197021484375,-0.4561666548650711,0.7751780247941613,1.2010533670961856,0.0380415022373199,0.0483142547309398,-0.0211382489651441
4.79522412109375,-0.5343158432766795,0.8050706203632056,1.1119757382392883,0.0432184264063835,0.0430704914033412,-0.0150244291871786
4.805252197265625,-0.5861891287790612,0.8459292849741875,1.0381862794071437,0.0393700674176216,0.0466085746884346,-0.0105795254930853
4.81527880859375,-0.6497334897875785,0.8680012699201702,0.9559288519591091,0.0337792932987213,0.0561842396855354,-0.013268519192934
4.82530712890625,-0.7017496543593704,0.8683969912394881,0.8807178358912467,0.0206218231469392,0.0560703314840793,-0.0134464539587497
4.835333984375,-0.7330271284155547,0.8859126280553639,0.8205565049171447,0.0069353058934211,0.051418587565422,-0.0168728772550821
4.845362060546875,-0.7241767363533377,0.9047859630905092,0.7256126143753528,-0.0096855061128735,0.0370059013366699,-0.0212592761963605
4.85538916015625,-0.7452667245246469,0.9392975967623292,0.6266022050470114,-0.0203317590057849,0.0198112018406391,-0.0258497670292854
4.8654169921875,-0.7596184174168854,0.95719551089406,0.4811076924413442,-0.0255836378782987,-0.0032735331915318,-0.0277465041726827
4.8754443359375,-0.7404583013296127,0.9593389526635407,0.3049479924589395,-0.0224640108644962,-0.0179946888238191,-0.0364486463367939
4.885471923828125,-0.7400910023871808,0.9456687392294406,0.0907932006031274,-0.0239756535738706,-0.0190338175743818,-0.0488865561783313
4.8954990234375,-0.7827421764381229,0.9670528880417346,-0.0777805742949247,-0.0305984020233154,-0.0277375597506761,-0.0554403290152549
4.905527099609375,-0.803634888471663,0.9503513440877198,-0.2113672069638967,-0.0301272645592689,-0.0385266356170177,-0.053057961165905
4.915553955078125,-0.8011988204311579,0.908818287346512,-0.3872182793885469,-0.0383729450404644,-0.0355897024273872,-0.0417528413236141
4.92558203125,-0.7864430767826736,0.9830608967736364,-0.5480623368173837,-0.0409467555582523,-0.0238390732556581,-0.0230430606752634
4.935609130859375,-0.7440653128456324,0.9603982524581252,-0.7292360655695199,-0.0358215011656284,-0.0110753402113914,0.0002438864903524
4.945635986328125,-0.658088791809231,0.9227674638524652,-0.8933189587891102,-0.0362317748367786,0.000408362597227,0.025595374405384
4.9556640625,-0.5566145861832424,0.929997999627888,-0.941675285679102,-0.0268521253019571,-0.0021445439197123,0.0457288734614849
4.965691162109375,-0.4782061623135581,0.8641241362258791,-1.009785529831052,-0.017423640936613,-0.002906777895987,0.0542383603751659
4.97571923828125,-0.4667835086105391,0.797448601052165,-1.0799123745024204,-0.015317347832024,0.0064230738207697,0.0492840819060802
4.98574609375,-0.4480236073546111,0.7281481242023408,-1.0919991181373596,-0.0200375970453023,0.0178861171007156,0.0396804511547088
4.99577392578125,-0.3620320348795503,0.6484963492080569,-1.0672487077623605,-0.0287682395428419,0.0259504355490207,0.0197437591850757
5.00580126953125,-0.3063751391852274,0.6009824644915759,-1.022741457515955,-0.0374748557806015,0.026137538254261,-0.0098396446555852
5.0158291015625,-0.2865678295019082,0.5990709317818284,-1.0750941605657338,-0.0337970331311225,0.0147370789200067,-0.0309638381004333
5.02585595703125,-0.1917368430163711,0.5820737658821046,-1.1482681178480385,-0.0227303020656108,-0.002954029943794,-0.0355866774916648
5.035884033203125,-0.0281571592117194,0.5868772206410765,-1.234570436772704,-0.0121895112097263,-0.0211583338677883,-0.031454250216484
5.0459111328125,0.0652225735861575,0.578872631753236,-1.296648999544978,-0.0062962658703327,-0.0270314067602157,-0.0369488894939422
5.05593896484375,0.0929139647499192,0.5892315286822617,-1.3789900136232376,-0.0007225365843623,-0.0353881381452083,-0.0315860845148563
5.065966064453125,0.1856921560246497,0.5929438272036611,-1.4308692539423704,0.0064670909196138,-0.0454565212130546,-0.010807940736413
5.075993896484375,0.2725233941942453,0.5640190537534654,-1.5687807640731333,0.0205379035323858,-0.0521429181098938,0.016885470598936
5.086021240234375,0.3203067435018718,0.4533789969079196,-1.7622358822494744,0.0405019521713256,-0.0542556457221508,0.058638796210289
5.096048828125,0.399894878675416,0.3549206685043871,-1.9280571435689928,0.0542230904102325,-0.0228125005960464,0.0923008844256401
5.106075927734375,0.4132688856419175,0.2001139915436506,-2.0673200683087107,0.0535219050943851,0.0453598201274871,0.117325983941555
5.116104248046875,0.3754658457418903,-0.0053895840838551,-2.0885019725471734,0.0418894849717617,0.1300904154777526,0.1249064058065414
5.126130859375,0.3553670605650171,-0.2144737946771085,-1.9513877502739427,0.0211073402315378,0.2113786190748214,0.1091547384858131
5.1361591796875,0.3094331750489771,-0.4027211150772869,-1.656073263078928,0.0027831948827952,0.2759432196617126,0.0691314190626144
5.14618603515625,0.1765180119007825,-0.5971838028609753,-1.2881903832793236,-0.0078987060114741,0.2965159714221954,0.0076798778027296
5.156214111328125,0.1269531494712457,-0.7601514283150435,-0.8395493746787309,-0.0325031206011772,0.2989005446434021,-0.0612240880727767
5.166240966796875,0.1259396433134563,-0.801587016031146,-0.3099485772252082,-0.0548549853265285,0.2917433381080627,-0.1212532371282577
5.17626806640625,0.1140302838057279,-0.8665041632302105,0.0868909324675798,-0.0692195445299148,0.2775976955890655,-0.169162705540657
5.1862958984375,0.1282569620788097,-0.8606680044226348,0.4155640839070081,-0.0763288363814354,0.2802516520023346,-0.202920451760292
5.196322998046875,0.1517800956811756,-0.8266869704961777,0.7640718166291713,-0.068313255906105,0.2685191035270691,-0.2316554337739944
5.20635107421875,0.1894448596216738,-0.7784203677162528,1.054144896039367,-0.0469213873147964,0.2401550710201263,-0.25972580909729
5.216378173828125,0.1857122489646077,-0.7177873275771737,1.3354793731987475,-0.0228261705487966,0.1956728249788284,-0.2897635996341705
5.22640625,0.1859891296772286,-0.6595151713505387,1.5633832889437675,0.0130600677803158,0.1225739121437072,-0.3037097752094269
5.236432861328125,0.234807301925309,-0.6480982898011803,1.6482178734034298,0.062126412987709,0.0454359874129295,-0.3041167259216308
5.246461181640625,0.2656942788265645,-0.6245613468691706,1.6322802995592354,0.1094262227416038,-0.0308970622718334,-0.3098803758621216
5.256488037109375,0.2019624689545482,-0.5953560029119253,1.5502999354869127,0.144673153758049,-0.1077068820595741,-0.3162197470664978
5.26651611328125,0.2251077274215407,-0.5631152367815375,1.4682722251415252,0.1616397351026535,-0.1634199470281601,-0.3082711398601532
5.27654296875,0.2473292403734289,-0.5712725320130586,1.2627052288889884,0.1658571064472198,-0.196542739868164,-0.2810142338275909
5.286571044921875,0.2195912472886964,-0.6282181158110499,1.0089467409193515,0.1598816663026809,-0.2067078948020935,-0.2536426186561584
5.296598388671875,0.1582998528387397,-0.6976848891384899,0.7213292379677295,0.1522466540336609,-0.1772147119045257,-0.2282823920249939
5.3066259765625,0.119361981956195,-0.7367546245060861,0.4790712181776762,0.1441552191972732,-0.1158819869160652,-0.2041247934103012
5.316653076171875,0.0793173371418379,-0.7432932324945927,0.2810018842041492,0.1395373046398162,-0.0458701476454734,-0.1843225955963134
5.32668115234375,0.0315212014178745,-0.7283157358542084,0.2307084517717361,0.139520525932312,0.0288949385285377,-0.1635915040969848
5.3367080078125,0.0299277216813527,-0.6910171018123626,0.2838496748507023,0.1335728913545608,0.0599910728633403,-0.1621328890323639
5.346736083984375,-0.0504651540038175,-0.6539353253915906,0.5924281327664852,0.1112006977200508,0.0959776118397712,-0.1613884270191192
5.35676318359375,-0.0339756270989775,-0.55492798480317,0.8277981466084718,0.0919974446296691,0.0990397110581398,-0.1655682474374771
5.366791015625,-0.077215067632962,-0.5723745019055902,0.969217372599244,0.0696459785103797,0.090352788567543,-0.1688816398382187
5.376818115234375,-0.1116977126723155,-0.5295834079273045,1.1726993792712688,0.0438473969697952,0.0869591236114502,-0.1818485707044601
5.386845947265625,-0.1984529264636337,-0.4872787822917103,1.3462170403122902,0.0204160325229167,0.0885737165808677,-0.2051903456449508
5.396873046875,-0.3086515596846118,-0.428916755824536,1.4417945525825022,0.0025329049676656,0.0862021744251251,-0.2260748594999313
5.40690087890625,-0.3455899455793201,-0.3085762659586966,1.5647013858050107,-0.0095807192847132,0.071042887866497,-0.2380112558603286
5.416927978515625,-0.3007942337803542,-0.1386575061924755,1.719084138265252,-0.0203372277319431,0.0527347214519977,-0.2321874648332595
5.426955078125,-0.2566076485893689,0.0703400490306317,1.831508740440011,-0.0221818517893552,0.029609540477395,-0.213947519659996
5.436983154296875,-0.2123965682779438,0.2662736861497163,1.8814923762708904,-0.0160981267690658,-0.0011744708754122,-0.176085889339447
5.447010009765625,-0.1032146012862212,0.4412886000111699,1.9334417592167852,-0.0060167768970131,-0.0389443337917327,-0.1283623874187469
5.4570380859375,0.0029460999218747,0.5982113923430442,1.9596832849323749,0.017358586192131,-0.0877265185117721,-0.0778558105230331
5.46706591796875,0.0299330006446689,0.6342778542414307,1.8748621444761755,0.0413137860596179,-0.1317903846502304,-0.0379225015640258
5.477093994140625,-0.0223003503417596,0.6127449446082115,1.7559785754203796,0.0590776018798351,-0.1565711051225662,-0.0150222461670637
5.487120849609375,-0.0333967860314063,0.5924367544643581,1.6388754600405693,0.0619409456849098,-0.175719678401947,-0.0023082259576767
5.497148681640625,-0.0191677696707658,0.5779151848979294,1.517152283644676,0.0605667531490325,-0.2074765413999557,0.0090205948799848
5.507176025390625,-0.0002634093096945,0.5436043344952166,1.3132125963330268,0.0535142049193382,-0.2348990738391876,0.0203370228409767
5.51720361328125,0.0115098753287456,0.5487114483758807,1.074721235600114,0.0417211949825286,-0.2634388208389282,0.0291832443326711
5.527230712890625,0.0426829117629211,0.5534608348600566,0.7945254070818424,0.0219978131353855,-0.2776903510093689,0.0355519726872444
5.5372587890625,0.0369522089240839,0.5160341905243695,0.516972202026844,-0.0014071117620915,-0.2701866328716278,0.0376801081001758
5.54728564453125,0.0317549964740173,0.4694248534321785,0.1953191584825515,-0.0267113782465457,-0.2575680911540985,0.0501334853470325
5.557313720703125,0.1206031867894809,0.474205657967925,-0.128362760540843,-0.0482976324856281,-0.2470547407865524,0.0725325345993042
5.5673408203125,0.2153624688788317,0.5017229027077555,-0.4089110557585954,-0.0584776178002357,-0.2405762076377868,0.1066268011927604
5.57736865234375,0.2757799300384707,0.4881945819623768,-0.7170248187720775,-0.0673736333847045,-0.2369790822267532,0.1295046955347061
5.587395751953125,0.2927391568142921,0.4386398390680551,-0.979085271140933,-0.0794640108942985,-0.2202231138944625,0.1393858641386032
5.597423583984375,0.2716596717706881,0.320806217456609,-1.1759580888062715,-0.0887504518032074,-0.1957811564207077,0.1400085091590881
5.607450927734375,0.3197568545341491,0.177479550409317,-1.355301679521799,-0.0968782603740692,-0.1651710867881775,0.1392411589622497
5.61747900390625,0.3379357044991105,0.1225001521177589,-1.5083616589456796,-0.097048707306385,-0.126799464225769,0.1419301629066467
5.627505615234375,0.3753345109798014,0.0882471693821251,-1.5830939515858888,-0.0888281315565109,-0.1020117178559303,0.1468927413225174
5.637533935546875,0.4151655495760962,0.0621269319586455,-1.5654185941636565,-0.0875863060355186,-0.0835900977253913,0.1464671790599823
5.647560791015625,0.3750630005620419,0.0523396974377334,-1.4458938045948744,-0.0979919880628585,-0.0686525031924247,0.131551519036293
5.657589111328125,0.292422729542572,0.0092754856064915,-1.2794628869444131,-0.1194232478737831,-0.0685276016592979,0.1095634028315544
5.66761572265625,0.2643653135114349,0.0150099376052618,-1.1244529424965382,-0.1424411684274673,-0.1035263687372207,0.0770165249705314
5.677643798828125,0.2758048087514005,0.0599355593942105,-1.0075824668288231,-0.1630931943655014,-0.1356938928365707,0.07350355386734
5.6876708984375,0.426266168250516,0.1404597333088517,-1.1074585530757903,-0.1379499733448028,-0.1743817925453186,0.1093463152647018
5.69769775390625,0.5855868155043572,0.139527567025274,-1.4487112001031637,-0.072531022131443,-0.1889820396900177,0.1679475754499435
5.707725830078125,0.703898941347748,0.218954447222501,-1.7694734322875738,0.0095195425674319,-0.1824215650558471,0.2342164516448974
5.7177529296875,0.7817972968034446,0.360484147850424,-2.0035265183120963,0.0965082421898841,-0.1589860022068023,0.3052589297294616
5.72778076171875,0.783942346008122,0.356876332616806,-2.1475158870518207,0.1627587527036667,-0.1119938567280769,0.3857453167438507
5.7378076171875,0.7086990351058542,0.2151280208021402,-2.171542074805498,0.198149487376213,-0.0462987273931503,0.4686380922794342
5.7478359375,0.585929856788367,0.0103919224157929,-2.028168792137504,0.2008517682552337,0.0499323904514312,0.5342750549316406
5.757862548828125,0.3687063980769365,-0.3064217182733118,-1.7406272770315407,0.1843513548374176,0.1765454560518264,0.5657709240913391
5.767890869140625,0.0827171904468908,-0.6631188949309289,-1.4299538926631212,0.1730299144983291,0.2661067545413971,0.55846107006073
5.777917724609375,-0.1637374407827854,-0.9994679878257214,-1.0070867922663689,0.1602691113948822,0.2809661328792572,0.5117226243019104
5.78794580078125,-0.3469415428513661,-1.224631811082363,-0.4908236152917146,0.1258964091539383,0.2669092714786529,0.429772675037384
5.797972900390625,-0.5595354420660064,-1.343902625890076,-0.0245481658011674,0.0654562339186668,0.2452375590801239,0.3223727345466614
5.808000732421875,-0.8040024066098034,-1.520487565547228,0.3678162443041801,-0.0145156495273113,0.2267792820930481,0.2104153633117675
5.81802783203125,-0.9286636092189698,-1.6780021862924095,0.6659907971054315,-0.0880444571375846,0.2298448532819748,0.1140363588929176
5.828055908203125,-0.9910944194950164,-1.6773529286034403,0.8525608319431542,-0.1342923045158386,0.2464116215705871,0.031511902809143
5.838082763671875,-1.0680441689889877,-1.5313877297461032,0.9912047480016948,-0.1476824134588241,0.2436491250991821,-0.0387550704181194
5.84811083984375,-1.1648928702387955,-1.3181634967386722,1.114615439093113,-0.1450570672750473,0.2255598753690719,-0.0874254032969474
5.858137939453125,-1.2275576354011892,-1.0797931320369245,1.2852870630532502,-0.1204742342233657,0.1860082000494003,-0.0987742021679878
5.86816552734375,-1.2382882882520556,-0.9154537798382342,1.389118024405837,-0.0741561725735664,0.1244824454188346,-0.0744590982794761
5.87819287109375,-1.182121652937308,-0.731714730642736,1.3740034573823212,-0.0178708024322986,0.0532439574599266,-0.0247823521494865
5.888220703125,-1.0949754305344075,-0.4070056605286896,1.3339029176622628,0.0426669716835022,-0.0127646662294864,0.0441543832421302
5.898248046875,-0.95212726771906,-0.0975318612083792,1.2004507250279188,0.1005640998482704,-0.0716708600521087,0.1320735812187194
5.908275634765625,-0.7704542842078953,0.1490897606186568,1.0323322926819325,0.153723731637001,-0.1161510869860649,0.2356606274843216
5.918302734375,-0.5277167007399722,0.3186683286450803,0.81204235907197,0.194404050707817,-0.1333820074796676,0.3338167369365692
5.928330810546875,-0.3840598518902435,0.3424501862488687,0.5376017330795526,0.2292179614305496,-0.1201554089784622,0.4062153100967407
5.938357666015625,-0.3778604127282277,0.1973698074020445,0.303134221035242,0.2571976482868194,-0.0687862336635589,0.4403237402439117
5.9483857421875,-0.4475296132925898,-0.0524777907341718,0.1085550672650337,0.2770953774452209,-0.0028939223848283,0.4202769994735718
5.958412841796875,-0.5514984122132882,-0.2904020191036164,0.0369511357784271,0.2694060206413269,0.0564415715634822,0.3587486743927002
5.96844091796875,-0.6266366918385029,-0.3804652979969978,0.1815238573640585,0.2164861410856247,0.0995402708649635,0.2613262832164764
5.9784677734375,-0.6656810005038977,-0.4665589426070451,0.476895043182373,0.1348623782396316,0.1214543581008911,0.1616572141647339
5.988494873046875,-0.6438472812931985,-0.5009795369945467,0.7380781281948089,0.0436167269945144,0.1099636927247047,0.0694663822650909
5.998522705078125,-0.5663770515890791,-0.4367179310947656,0.9748930801481008,-0.0312383398413658,0.0867521092295646,-0.0063077425584197
6.0085498046875,-0.4706683506872505,-0.2771705624129623,1.074942769396305,-0.0794472694396972,0.071447268128395,-0.0767750218510627
6.01857763671875,-0.4425227083833888,-0.0763657390609383,1.0745020398914813,-0.0938403233885765,0.0608553439378738,-0.1280938684940338
6.028604736328125,-0.3914200419273227,0.114284696958214,1.0367916101783514,-0.0827084109187126,0.0575943067669868,-0.1498272567987442
6.0386328125,-0.3076558631781488,0.3290292714007198,1.0124801757425068,-0.0566158257424831,0.0750867426395416,-0.1460381150245666
6.04865966796875,-0.2983208842030726,0.5032940975472331,1.0381091225177048,-0.0338961333036422,0.0944447368383407,-0.1269056946039199
6.05868798828125,-0.2967970173703506,0.6350545377023518,1.0999702431470155,-0.0244211386889219,0.1117867082357406,-0.0993704795837402
6.06871484375,-0.3292095964036882,0.722129302304238,1.215323884510994,-0.0203349497169256,0.1163122132420539,-0.0783667936921119
6.07874267578125,-0.3507057542230933,0.7688102433279156,1.2875631912916898,-0.0221219304949045,0.1163172721862793,-0.0644845366477966
6.088769775390625,-0.4809132658477872,0.7382650290690362,1.3207026598274707,-0.0255709793418645,0.1029887944459915,-0.0575387887656688
6.0987978515625,-0.5451777578243986,0.6956174352146685,1.3118056521445511,-0.0264378394931554,0.0777265876531601,-0.0570903122425079
6.108824951171875,-0.5740536506315693,0.6834561650387942,1.3027894019961357,-0.027455810457468,0.0464164838194847,-0.062900885939598
6.118852783203125,-0.5782555958334357,0.681124361090362,1.237248716071248,-0.0306742414832115,0.0178740564733743,-0.0785325765609741
6.128879638671875,-0.6192051535982638,0.6738353731259703,1.122487779903412,-0.035432793200016,-0.0005458523519337,-0.0892634391784668
6.138907958984375,-0.6419060840975492,0.6602054917022585,0.948109118118882,-0.0431575588881969,-0.0032526892609894,-0.0917532294988632
6.148934814453125,-0.6615246845420449,0.6652585373081267,0.7366682613968849,-0.0462399758398532,0.0149694178253412,-0.0926280617713928
6.158962890625,-0.6842565947014838,0.6262566064797341,0.5370984597325325,-0.0541543550789356,0.0468256175518035,-0.0959972292184829
6.168989990234375,-0.6989493561163544,0.6415136507138609,0.4352671477645635,-0.0734308063983917,0.0905433893203735,-0.0972818583250045
6.179017822265625,-0.7194875556237995,0.6761426271550357,0.3891197290956973,-0.0840355083346366,0.1204016879200935,-0.1059829369187355
6.189044921875,-0.7345482005029916,0.6572216535858809,0.329330154043436,-0.0897484272718429,0.1255218386650085,-0.1146207451820373
6.19907275390625,-0.7303098322808742,0.6585315671406686,0.3662976564347743,-0.0913061127066612,0.114414058625698,-0.1316053122282028
6.209099853515625,-0.777076113500446,0.6786418966248631,0.3694230949789285,-0.0952228680253028,0.0960647314786911,-0.1585887968540191
6.2191279296875,-0.8257776005662977,0.7066197446137666,0.3333160088092088,-0.1040523126721382,0.06085055321455,-0.1781092286109924
6.22915478515625,-0.7967446175012737,0.7137209549210966,0.2950841855704784,-0.1121998354792594,0.0265116319060325,-0.1853041052818298
6.239182861328125,-0.7912815297897905,0.7085691251158713,0.1696954724043607,-0.1204138249158859,0.0087968185544013,-0.1880407780408859
6.2492099609375,-0.8195593836385756,0.7129201599322259,-0.0063169280618429,-0.1228159070014953,-0.0067649376578629,-0.1845640838146209
6.259237548828125,-0.79362071332708,0.7061088724821806,-0.1755214020788669,-0.1149747669696807,-0.0231028981506824,-0.1748672574758529
6.269264892578125,-0.7350131876662374,0.7275713472276926,-0.4129647150635719,-0.1035515516996383,-0.0215647332370281,-0.1479274779558181
6.279292724609375,-0.6566739565752446,0.738620564508438,-0.6287474003821611,-0.0898756831884384,-0.0061008213087916,-0.1096770167350769
6.289319580078125,-0.5740946036964655,0.6723449884377419,-0.8468541447341441,-0.0648495927453041,0.0151791982352733,-0.0636492371559143
6.29934765625,-0.4553453285448253,0.593980038383603,-1.074377536728978,-0.037240594625473,0.0527987480163574,-0.018541146069765
6.309374755859375,-0.4378086489409208,0.495870523417741,-1.2286428002893923,-0.0160535518079996,0.1093738749623298,0.0007894097361713
6.319403076171875,-0.466504143679887,0.3654682198733091,-1.2982657870918513,-0.0048043597489595,0.1557203382253646,-0.0043811174109578
6.3294296875,-0.4382192755684256,0.268235487741977,-1.242213060480356,0.0008142255246639,0.1694738268852234,-0.034215897321701
6.339456787109375,-0.4152943270549178,0.1999934339039027,-1.133539335271716,0.0044630225747823,0.1408333927392959,-0.0783543363213539
6.34948486328125,-0.3428299062814563,0.1948226071372628,-1.0463888750851154,0.0115513922646641,0.0799734890460968,-0.112846665084362
6.35951171875,-0.1820046631509438,0.2132034824803471,-1.05678693498075,0.0221278704702854,0.0167977195233106,-0.122761346399784
6.36953955078125,0.0234814498851075,0.2693345350250601,-1.2246259658634662,0.0434186607599258,-0.0498823598027229,-0.1097473576664924
6.37956689453125,0.2170638111703097,0.2966077418759465,-1.4987667321264744,0.0690507888793945,-0.1132717207074165,-0.0839157626032829
6.3895947265625,0.287418582846038,0.2667335587464273,-1.7558306913822888,0.0711263567209243,-0.2320165038108825,-0.0775442570447921
6.399621826171875,0.191104682592675,0.057332975680381,-1.6743232055187225,0.0298300459980964,-0.2981326878070831,-0.0812436565756797
6.40964990234375,0.2618961469189264,-0.1511855638541281,-1.7035025382518767,-0.0415936820209026,-0.260650634765625,-0.1091788485646247
6.4196767578125,0.1042610415992327,-0.5095011354938149,-1.904149029237032,-0.094853438436985,-0.1146345660090446,-0.1525667905807495
6.429705078125,-0.0683001954997889,-0.908970116907358,-2.2089362781763078,-0.1071859747171402,0.0960792526602745,-0.1929593682289123
6.439731689453125,-0.1186102868060581,-1.1263256045006216,-2.280890922796726,-0.0753518790006637,0.305444985628128,-0.2187747210264206
6.449760009765625,-0.0467508644547313,-1.176248011663556,-2.163666226863861,-0.0153486374765634,0.4748411178588867,-0.2396270930767059
6.459786865234375,-0.0732163716519251,-1.1792948320135477,-1.7938526712626215,0.0305829010903835,0.561023473739624,-0.2739198207855224
6.469814697265625,-0.198496692540124,-1.198248392678052,-0.9753951844513415,0.0290104746818542,0.5920075178146362,-0.33148393034935
6.479841552734375,-0.3463073366010561,-1.2344798358798026,-0.0404436540693044,-0.016808146610856,0.56998211145401,-0.40975421667099
6.489869873046875,-0.5046440143188461,-1.3110117252878843,0.8471487437665463,-0.0942464917898178,0.4992263615131378,-0.5094203352928162
6.499896728515625,-0.6946755512546747,-1.4197494556434451,1.593575013589859,-0.1736504882574081,0.4326545298099518,-0.5921319723129272
6.509924560546875,-0.7550576123073697,-1.4456969668485224,2.034962105539441,-0.2073528319597244,0.3624194264411926,-0.644117534160614
6.519951904296875,-0.6682869452185929,-1.3918113551430404,2.1400971352279186,-0.195222407579422,0.3170466125011444,-0.6598166227340698
6.529979736328125,-0.5453864686716348,-1.1856995844893157,2.142130686882138,-0.1315920054912567,0.2565840184688568,-0.6459858417510986
6.540006591796875,-0.3404611313235014,-0.9359298738949,2.1014929715454578,-0.0335831567645072,0.1701473891735077,-0.6012641787528992
6.55003466796875,-0.1315562228199094,-0.6781856772899627,2.089766293394565,0.0701643824577331,0.1058725044131279,-0.5465174317359924
6.560061767578125,-0.0289797550404444,-0.5160081793002784,2.035049783822894,0.172815129160881,0.0118482680991292,-0.4929090738296509
6.57008984375,0.0041603710824623,-0.4751182427681982,1.8998966324895616,0.2429685145616531,-0.0896185860037803,-0.4210636913776397
6.58011669921875,0.1167097321480512,-0.3356817150272428,1.866801003095508,0.2827284634113312,-0.2044461071491241,-0.3272415995597839
6.59014453125,0.2524186176680028,-0.2961542990200221,1.6105156269967555,0.3070435225963592,-0.3106614351272583,-0.224625751376152
6.600171875,0.3641579775249585,-0.2933544391684234,1.2085673959881067,0.324175089597702,-0.3767376542091369,-0.1142449155449867
6.610199462890625,0.4741389494072646,-0.3103052817083895,0.6901590236783027,0.3444136381149292,-0.40993532538414,0.0010061727371066
6.6202265625,0.5790086792230605,-0.4474984144367277,0.0862485429108142,0.3661261200904846,-0.4051312506198883,0.1047751754522323
6.630254638671875,0.6236369255006313,-0.6093953419193625,-0.4775935468405485,0.3969106078147888,-0.3658100366592407,0.1865522563457489
6.640281494140625,0.5867995157623663,-0.7950501616083085,-0.9506143789380788,0.4214290082454681,-0.3273169696331024,0.2245726138353347
6.6503095703125,0.5204773606035858,-1.003349067042768,-1.2252104877531529,0.4041365385055542,-0.2125357538461685,0.2184016555547714
6.660336669921875,0.4132716255882754,-1.053764080028236,-1.3773860855579376,0.3393951058387756,-0.1109902188181877,0.1621879190206527
6.67036474609375,0.1671109906028024,-1.277591686245054,-1.1061790346592664,0.2540568709373474,0.0456782132387161,0.0999113544821739
6.6803916015625,0.2299803749592043,-1.3602031878277658,-1.061249175086617,0.1739620268344879,0.1973268687725067,0.0202783104032278
6.690419677734375,0.0341855800552293,-1.3866153939351438,-0.8523726158946752,0.1180733814835548,0.2997565269470215,-0.0689090713858604
6.70044677734375,-0.118169429437071,-1.3014967318370938,-0.4620721525818109,0.0832706615328788,0.332215666770935,-0.1489684879779815
6.710474853515625,-0.144253061177209,-1.0228791124209762,0.0938859059214591,0.056918803602457,0.3031192421913147,-0.204350471496582
6.72050146484375,-0.1314362862346693,-0.641581236057356,0.647720396399498,0.0254974979907274,0.2194637358188629,-0.229583665728569
6.73052978515625,-0.0787368155738338,-0.3195985221672803,1.1636363673716783,-0.0137153696268796,0.1229050904512405,-0.2236380726099014
6.740556640625,-0.0302244213392958,-0.059228360972926,1.4814537782758477,-0.0550699979066848,0.0514396950602531,-0.1851588636636734
6.75058349609375,0.0132934160109609,0.144475910147652,1.5793845756739378,-0.0670935437083244,0.0051078470423817,-0.1222838833928108
6.76061181640625,0.0642888957655057,0.2764697937324643,1.496003112632036,-0.0479062646627426,-0.0300341621041297,-0.0461531616747379
6.770638671875,0.1453758181294426,0.3952575742635876,1.3169132044166325,0.0023734904825687,-0.0417344197630882,0.0296563431620597
6.7806669921875,0.1454943299425765,0.4711763732746243,1.1443348700523377,0.0610820762813091,-0.04656433314085,0.0889747962355613
6.790693603515625,0.1117686224840581,0.4596053971420973,1.056065050446987,0.1112275347113609,-0.0622751824557781,0.1365016102790832
6.8007216796875,0.0812870845785364,0.39204292306602,1.044912372791767,0.1346484422683715,-0.0876132994890213,0.16795115172863
6.810748779296875,0.0717502446221187,0.3262615602530538,1.143306111526489,0.1243345662951469,-0.117533154785633,0.1832285225391388
6.820776611328125,0.0590261529317125,0.2760530296251177,1.2533686607450245,0.0876820161938667,-0.1617541313171386,0.18339204788208
6.830803466796875,0.069045698371157,0.2574715902086347,1.3029606669098135,0.0432616434991359,-0.2066969275474548,0.1859781444072723
6.840831787109375,0.1396172180701047,0.2791440544430166,1.2199410229176282,0.0030513752717524,-0.2573819458484649,0.1914290934801101
6.850858642578125,0.2012156691752374,0.3182392165128141,1.0017273110598326,-0.0211872570216655,-0.3054722845554352,0.2004915922880172
6.86088671875,0.2559224062715657,0.35052784037292,0.7161766775101422,-0.0311722476035356,-0.3316642045974731,0.2194825857877731
6.870913818359375,0.2912508910179138,0.3696976741366088,0.401748324522376,-0.0372403562068939,-0.3219282031059265,0.2390825152397155
6.880941650390625,0.3054733863062225,0.3646555152509361,0.0708569125115871,-0.0516983903944492,-0.2619341015815735,0.2684220373630523
6.89096875,0.284197538440302,0.337132863683626,-0.2309457676589489,-0.0727630034089088,-0.2149775773286819,0.3047102987766266
6.90099658203125,0.3677311233039945,0.2886715420491993,-0.3891214826613664,-0.0903483852744102,-0.2037613987922668,0.352687656879425
6.911023681640625,0.5048652923867106,0.291260681759566,-0.4794079027861356,-0.0906178057193756,-0.157063141465187,0.3742013573646545
6.9210517578125,0.3439257386941463,0.2186502035789191,-0.6662070702046156,-0.0964780896902084,-0.1455500274896621,0.3832116425037384
6.93107861328125,0.2570413820978254,0.2526937813475728,-0.711706838619709,-0.0730973780155181,-0.0904370844364166,0.4027045667171478
6.941106689453125,0.2555103914045729,0.240969368219003,-0.905952814912796,0.0094643449410796,-0.042917501181364,0.4354001879692077
6.9511337890625,0.2879424057907425,0.4348717917714267,-1.223726971197128,0.0991780459880828,-0.1670319885015487,0.4782592356204986
6.961161376953125,0.7530134661938994,0.6117043495140969,-1.0415320827037096,0.1473426520824432,-0.1843563765287399,0.5170407295227051
6.971188720703125,0.476502025276795,0.4754374647852033,-0.9608645547956228,0.1346543729305267,-0.1197972521185875,0.5310696363449097
6.981216552734375,0.0890207110378891,0.1216824790593236,-1.0406488701283931,0.0693999975919723,-0.0895256400108337,0.5621809959411621
6.991243896484375,0.3843904355514794,-0.0368297744210809,-0.7294307113587856,-0.0447086580097675,-0.0976673513650894,0.5606762170791626
7.001271484375,0.2436948841927572,-0.0867909792244434,-0.4951724581509828,-0.1520817130804062,-0.0965003594756126,0.5147044658660889
7.011298583984375,-0.1835867812432348,-0.1975184951577335,-0.6399678825765848,-0.2097916603088379,-0.1411107182502746,0.4676926434040069
7.021326904296875,-0.251836780925747,-0.2132608386907726,-0.856052765712142,-0.2197103351354599,-0.2104133665561676,0.4563505351543426
7.031353515625,-0.0319963263826444,-0.0796129042886197,-1.060425583744049,-0.2059642523527145,-0.2201031893491745,0.4780356585979461
7.0413818359375,0.0878186509049031,0.1349941613793373,-1.2461451392322778,-0.1891314685344696,-0.2036834806203842,0.5380904674530029
7.05140869140625,0.2497395894507877,0.3768413353461772,-1.38394617472589,-0.1579930186271667,-0.2019547373056411,0.6260433197021484
7.061436767578125,0.412455633030273,0.5437592327959835,-1.4773293918222188,-0.0852154865860939,-0.2370368391275406,0.7172229886054993
7.071463623046875,0.4691617089839652,0.5611098883084953,-1.6379373024076225,0.0358152873814106,-0.2720497548580169,0.7814599871635437
7.08149169921875,0.3342031669072807,0.4829051703173667,-1.902525811949372,0.1656041741371154,-0.2588705718517303,0.8153889179229736
7.0915185546875,0.1425634823887608,0.308802402864769,-2.101277867490053,0.2367811203002929,-0.2064387947320938,0.8277477025985718
