seconds_elapsed,ax,ay,az,gx,gy,gz
0.062280029296875,0.0332088074449449,-0.0153652903815731,0.5814537342876196,0.1929044723510742,0.0239610150456428,1.336891531944275
0.07230810546875,-0.0062124082414433,0.068143580165971,0.6331891822218895,0.1788668781518936,0.0934289470314979,1.299521565437317
0.082336181640625,-0.0225298482486978,0.1238159108914434,0.694757457384467,0.1543636620044708,0.1480626314878463,1.248108148574829
0.0923642578125,-0.1438632946746423,0.1620060138802975,0.7500888839840889,0.1321373283863067,0.1814172863960266,1.1923836469650269
0.102391845703125,-0.238153470548056,0.110207638511341,0.7347054368913173,0.1189858317375183,0.1805517673492431,1.1467602252960205
0.112419921875,-0.2725940117450431,0.0095468681600876,0.6806617120146751,0.1179244294762611,0.1620538085699081,1.1087273359298706
0.122447998046875,-0.2674594984007999,-0.0227203293194994,0.6060030691325664,0.122891753911972,0.1347148716449737,1.0755797624588013
0.13247607421875,-0.2575669403418898,-0.0228791548767127,0.5675777691483497,0.1320239752531051,0.112820379436016,1.0470775365829468
0.142504150390625,-0.3068607307450846,-0.0076374908748082,0.5462596713095903,0.1409708708524704,0.1037504523992538,1.0170719623565674
0.152531005859375,-0.3563782103689387,-0.0222375873038545,0.5165215356498957,0.1419280469417572,0.11166762560606,0.9891051650047302
0.16255908203125,-0.3943741424925625,-0.0061038698330521,0.5088227978408336,0.1344778537750244,0.1411685347557068,0.9643287658691406
0.172587158203125,-0.4200925576495006,0.0034848464410752,0.4885246906995773,0.1125186830759048,0.1811294257640838,0.9453559517860411
0.182614990234375,-0.4037355162842199,-0.0235745715286582,0.4233510845214128,0.0751449465751648,0.21376433968544,0.9295074343681335
0.192643310546875,-0.3063858432423323,-0.0630253421030938,0.3557920445114374,0.0306958351284265,0.229249358177185,0.9208444952964784
0.2026708984375,-0.1868938964972272,-0.1192667596871033,0.2552823365360498,-0.0146066648885607,0.2211000919342041,0.9097092747688292
0.21269921875,-0.0785780813481658,-0.1893038071831688,0.1822171003252267,-0.0508875176310539,0.1935509145259857,0.8994824886322021
0.22272705078125,-0.0041735410912893,-0.2417129165953025,0.0889244841217994,-0.0667162835597992,0.1400064677000045,0.8811008334159851
0.232755126953125,0.0511815038459375,-0.2972565611734986,-0.0020990181058645,-0.063838355243206,0.0671200007200241,0.8592858910560608
0.242783203125,0.1911647787494584,-0.2840812551168725,-0.0232721545159816,-0.0472476668655872,-0.011577476747334,0.8218964338302612
0.252809814453125,0.2783831530731171,-0.2416111001886427,-0.0157721541494131,-0.0220303442329168,-0.0776169076561927,0.7687912583351135
0.262838134765625,0.2595946102445945,-0.1537160139135085,0.0507949522137641,0.0111968517303466,-0.1098246425390243,0.7024140954017639
0.272865966796875,0.2550082323024049,-0.0629267770994454,0.1252951896637678,0.044128768146038,-0.1117814630270004,0.6266568303108215
0.282894287109375,0.1957184417321346,0.040722507543303,0.2621241652548313,0.0749271586537361,-0.0732979848980903,0.5516678094863892
0.292921875,0.058496758762747,0.149784355286695,0.3380605729877948,0.1013429462909698,-0.0165681447833776,0.4971097707748413
0.302949951171875,-0.0090798169039189,0.2166024772688746,0.3431295468151569,0.1202018558979034,0.0502495020627975,0.4571192264556885
0.31297802734375,0.0595350523019209,0.1934715213218703,0.3222463332623243,0.13522270321846,0.1140574663877487,0.4305812418460846
0.323006103515625,0.1159837559610605,0.103548271953687,0.219408474600315,0.140808418393135,0.1498708575963974,0.4252940714359283
0.333034423828125,0.198080092829559,0.0431583563880994,0.1056757124364376,0.1282639652490615,0.1566990911960601,0.4413639008998871
0.3430625,0.2692694521659053,0.0329520927375182,0.0497194319367408,0.1074670627713203,0.1416791379451751,0.4574001133441925
0.35308935546875,0.2654492910895496,0.0281621550472453,-0.0002589431971311,0.0936401858925819,0.1078776940703392,0.4731033444404602
0.3631171875,0.2228048938392661,0.0374594140941277,-0.0649707770824432,0.0965009555220604,0.0597562342882156,0.4959021210670471
0.373145263671875,0.1822491028986871,0.1100932000851258,-0.095406247356534,0.1143089234828949,0.0077886073850095,0.5301055312156677
0.38317333984375,0.2452608183352276,0.2141913975391536,-0.1316921972244978,0.1325883269309997,-0.0334821343421936,0.5598447918891907
0.393201171875,0.285848958909139,0.3431118650279939,-0.0566273116290569,0.1438657194375991,-0.0455155447125434,0.5767800807952881
0.403229248046875,0.254346297794953,0.445161934313178,0.0894914703547954,0.135434940457344,-0.0337848551571369,0.5799404382705688
0.41325732421875,0.1803265556045807,0.590072071159631,0.2864262473404407,0.1150356009602546,-0.0051037068478763,0.5765498876571655
0.42328515625,0.1438079112255945,0.7404651694618165,0.4776473228543996,0.0979250594973564,0.0204418674111366,0.560982882976532
0.4333134765625,0.1536483737710863,0.8337658959064632,0.5738076034486294,0.0913204327225685,0.0599901638925075,0.5397659540176392
0.443341064453125,0.1875493464649655,0.9163625652462244,0.5241431165695191,0.0894532948732376,0.0892870649695396,0.5211925506591797
0.4533681640625,0.1712367104969918,0.9791074099075048,0.4621142381578683,0.0833790004253387,0.1116824001073837,0.5050638914108276
0.463396240234375,0.2064239236091263,1.0375574799843132,0.4185317015409469,0.0764686316251754,0.1185341775417327,0.4846073389053345
0.47342431640625,0.2546108487489633,1.0244780720502138,0.3035971623718738,0.0674493685364723,0.1209332570433616,0.4582268297672272
0.483452392578125,0.2452409811235964,1.0104884174034,0.2469277651667595,0.0521625652909278,0.1270113885402679,0.4304080009460449
0.49347998046875,0.2245071494461968,1.0368597069784995,0.146490537905693,0.0322780832648277,0.1195561960339546,0.4090386033058166
0.50350830078125,0.2678080561101436,1.0174653437439352,0.0486702151447534,0.007973276078701,0.0921546667814254,0.3919339179992676
0.5135361328125,0.3442502579407766,1.001187139768526,0.0004530044645071,-0.0148876197636127,0.0611525326967239,0.3710198402404785
0.523564453125,0.3408684700153768,0.9580589958555996,-0.0560971502751111,-0.0273352339863777,0.0251308809965848,0.3429179191589355
0.53359228515625,0.3039727907512337,0.9155893889166414,-0.1262748483508825,-0.0297091901302337,-0.0155614838004112,0.3170201778411865
0.5436201171875,0.3298611556475982,0.9296442908193916,-0.1504267083108425,-0.0239391829818487,-0.0538553446531295,0.2943138182163238
0.553647216796875,0.3758515571238472,0.9297846491381524,-0.1742091504365205,-0.018578577786684,-0.0858772844076156,0.2714689970016479
0.56367529296875,0.4065911614436656,0.9007529081821442,-0.1322217740565538,-0.0108370352536439,-0.1027777045965194,0.2532931864261627
0.573703369140625,0.4199357231199741,0.8720616512268781,-0.067546765050292,-0.0062955673784017,-0.1039341390132904,0.2423678487539291
0.58373095703125,0.4633966061186045,0.8269087234880774,0.033034839117527,-0.0090817669406533,-0.0936348959803581,0.2379456758499145
0.59375927734375,0.4872977792531252,0.82989497275725,0.1758633473843336,-0.015784977003932,-0.0638944953680038,0.2346803694963455
0.603787109375,0.423204552190192,0.82711615569368,0.2881032406419515,-0.0304467435926198,-0.0548259019851684,0.2222979962825775
0.613815185546875,0.3032230318298563,0.8388529168471693,0.3513379877120256,-0.0429867692291736,-0.0447679385542869,0.2190089970827102
0.62384326171875,0.3218871080284938,0.8138849181987344,0.3267641029477119,-0.0404120236635208,-0.0463402718305587,0.2222045212984085
0.633871337890625,0.3804219703119248,0.7564042046107351,0.2665367210000753,-0.0329802371561527,-0.0499162450432777,0.233262151479721
0.643899169921875,0.3481923831626772,0.7606197034139186,0.2279430787116289,-0.020756596699357,-0.0639018416404724,0.2580316960811615
0.65392626953125,0.3784817960295826,0.7301526689577847,0.219798350700736,-0.0178619641810655,-0.0807663574814796,0.2840506434440613
0.663954345703125,0.3896190569199621,0.7247061670549213,0.2729921807497739,-0.0225485954433679,-0.0700782984495163,0.3068278729915619
0.673982421875,0.3060488115740008,0.7856191201139241,0.2785235113918781,-0.0344519764184951,-0.0500183403491973,0.3336923718452453
0.68401025390625,0.1743961791749112,0.826934880842641,0.2677092719107866,-0.0527478940784931,-0.0250378921627998,0.361323207616806
0.694038330078125,0.1503126352108083,0.8757601404186338,0.2675216403841972,-0.0749402195215225,0.0022238574456423,0.3852073848247528
0.704066162109375,0.1166486313442699,0.8742885334961116,0.2046393600136041,-0.0976564511656761,0.0189250726252794,0.4009599685668945
0.714094482421875,0.0404532438815571,0.8946676699843257,0.1050584573209285,-0.1184159442782402,0.0272184386849403,0.4225499331951141
0.724122314453125,0.0545187037109397,0.8860607312891632,-0.0053746787756681,-0.1378975063562393,0.020776517689228,0.4443340599536896
0.734150390625,0.1175995936598628,0.867775571405515,-0.1439011059343815,-0.1600846201181411,0.0081731211394071,0.4632295966148376
0.74417822265625,0.1379411928829736,0.7987722508713603,-0.2608481539696455,-0.1887314468622207,-0.0133430901914834,0.4754197001457214
0.754205322265625,0.1344471584884449,0.7537751712813973,-0.3191103733241558,-0.2245850563049316,-0.0355712473392486,0.4898817539215088
0.7642333984375,0.1913432953878305,0.7375729551516473,-0.3390390626311302,-0.2601763308048248,-0.0520109385251998,0.5033978223800659
0.77426123046875,0.2466749046505428,0.7256855334810912,-0.3271007875561714,-0.2942114770412445,-0.0789173766970634,0.515503466129303
0.784289306640625,0.280946025831066,0.7061619909089059,-0.3483230238050222,-0.3193064630031585,-0.1152341067790985,0.5252240300178528
0.794317138671875,0.3205270351890474,0.709015042252466,-0.3119488111317157,-0.3333254754543304,-0.1436747610569,0.5179798603057861
0.804345458984375,0.278971620485559,0.7729036501213907,-0.2902402526706457,-0.3265267014503479,-0.1359063237905502,0.4835193157196045
0.814373291015625,0.1039883073387667,0.8337771479528396,-0.3551163372069597,-0.3076448142528534,-0.1064487025141716,0.4291300177574157
0.8244013671875,-0.0938427243668586,0.8893032934069633,-0.4052081095874309,-0.2831943333148956,-0.0619456805288791,0.3587048649787903
0.83442919921875,-0.2034430629011243,0.9104087714083492,-0.403352252587676,-0.25397589802742,-0.0194629617035388,0.2812037169933319
0.8444560546875,-0.3234490966482087,0.8304169508047401,-0.4545797509998083,-0.2306244820356369,0.0231481492519378,0.210194244980812
0.854484375,-0.4230826793761923,0.7037888320367783,-0.4818377602815628,-0.2116463631391525,0.0387112386524677,0.1542893797159195
0.86451220703125,-0.4203762334290891,0.5169827234208584,-0.5684025295346975,-0.1932116895914077,0.0297094900161027,0.1258963644504547
0.87454052734375,-0.3730713883534073,0.2375467368265613,-0.6787362969100474,-0.1731108725070953,-0.0104817794635891,0.1166077405214309
0.884568115234375,-0.319842048599571,0.0154815702800697,-0.7690747394829988,-0.160037949681282,-0.0763590633869171,0.1359809190034866
0.89459619140625,-0.2345825167261064,-0.1217577636520843,-0.7850012074112892,-0.1576268523931503,-0.1393657624721527,0.1715113520622253
0.904624267578125,-0.1422147237500175,-0.2038228925315663,-0.6466834545671939,-0.1402936577796936,-0.1877221167087555,0.2081455290317535
0.91465234375,-0.1558853390429168,-0.2062644952637143,-0.5296089807599783,-0.144410490989685,-0.242624282836914,0.2459409832954406
0.924680419921875,-0.14635156782642,-0.2274584004672244,-0.1777338174313306,-0.159975066781044,-0.2205397486686706,0.272552877664566
0.934708251953125,-0.2046012564929202,-0.1599814492501318,0.0251776958763599,-0.1817938536405563,-0.1688669770956039,0.291558027267456
0.9447353515625,-0.439606053751707,0.037651000276627,0.2342442246824503,-0.1989701837301254,-0.1000548899173736,0.3088025152683258
0.95476318359375,-0.4740428320890292,0.2132004868056625,0.4257517159223556,-0.221803218126297,-0.0250202901661396,0.3312392234802246
0.964791259765625,-0.3803384567469358,0.2864015147579833,0.4283469931125641,-0.2442731112241745,0.0463226027786731,0.3396444320678711
0.974819091796875,-0.3745520553652197,0.2956922161999158,0.4732990645170211,-0.2659573853015899,0.0879328325390815,0.3368216454982757
0.98484716796875,-0.4605314259458333,0.2849188019195571,0.4253057257205248,-0.2856900691986084,0.0904825404286384,0.3360898196697235
0.994875244140625,-0.4830784810576587,0.2724409948741085,0.3323760976105928,-0.2905289232730865,0.0531999617815017,0.3349316716194153
1.0049033203125,-0.4241040583131835,0.2088057224454358,0.2077051773250103,-0.2839346826076507,-0.0239267796277999,0.3222489058971405
1.01493115234375,-0.4437340204019099,0.1214658771665766,0.0769651662588119,-0.2587282955646515,-0.1091416552662849,0.2978943586349487
1.02495947265625,-0.4886809772398322,0.1245434762473218,-0.0067746087014675,-0.2177006900310516,-0.167440116405487,0.2654352188110351
1.034987060546875,-0.5883845199314877,0.1274476549899205,-0.0446790996819734,-0.1738160699605941,-0.1880141645669937,0.2381113618612289
1.045014404296875,-0.6539262653023005,0.1656084222864359,0.0348100320965051,-0.136542722582817,-0.1627450287342071,0.2206652611494064
1.055042236328125,-0.6592644114598631,0.2036589706741273,0.1857698243707418,-0.1198663711547851,-0.1032949015498161,0.2010033577680587
1.065070556640625,-0.7019932538568973,0.2214173302046954,0.3399076621592045,-0.118990458548069,-0.0264975912868976,0.1694243997335434
1.07509814453125,-0.8146008113831281,0.1585017320863902,0.4578676866292953,-0.1272251307964325,0.0500508695840835,0.1314163357019424
1.085126220703125,-0.9290218480721116,0.056450932148844,0.4969207631230354,-0.1268664002418518,0.0927730351686477,0.0970687493681907
1.095154296875,-0.943125046095997,-0.0733824124012142,0.4015542632550001,-0.114459328353405,0.0938009992241859,0.080566756427288
1.10518212890625,-0.820455382630229,-0.2366900834646075,0.2370259643554687,-0.0886410474777221,0.0555662661790847,0.0619959980249404
1.11521044921875,-0.7428585674043744,-0.3541909294577315,0.0803337659090757,-0.0510446578264236,-0.0008814977481961,0.0496856346726417
1.125238037109375,-0.7761772649645805,-0.479794454418309,-0.0532902761608362,-0.0153875909745693,-0.0700259432196617,0.0592602305114269
1.13526611328125,-0.694401483553648,-0.6144371354788541,-0.0631593437463045,0.0121613508090376,-0.1220681890845298,0.090012215077877
1.145293212890625,-0.5198240477940067,-0.6989144309334456,0.0408656788736581,0.0225796364247798,-0.156359851360321,0.1374710649251938
1.1553212890625,-0.4143384145695716,-0.7316427613850682,0.1815419775426387,0.0110988467931747,-0.1779621541500091,0.1905875504016876
1.165349365234375,-0.3222843271851539,-0.7388898829691112,0.4717237780243158,-0.0103087071329355,-0.1671856641769409,0.2424749881029129
1.175377197265625,-0.20758794415351,-0.7229128538973629,0.7234498833835125,-0.0323942005634307,-0.1333643496036529,0.2835239171981811
1.1854052734375,-0.1469117224598303,-0.6369886475700884,0.9339841466546058,-0.0511106289923191,-0.0873550474643707,0.3115209341049194
1.195433349609375,-0.1305351726764813,-0.4109697053214535,1.1027730256080628,-0.0660833716392517,-0.0421141758561134,0.3202117085456848
1.205461181640625,-0.1221784824153408,-0.212510312584415,1.226379531532526,-0.0730121135711669,-0.0074006682261824,0.3012084364891052
1.215489501953125,-0.163322832099907,-0.0261220275217667,1.2721627930641173,-0.063590794801712,0.0075916778296232,0.2645634114742279
1.22551708984375,-0.2096792904095724,0.0999614629754796,1.2664292178481815,-0.041098803281784,0.0104519128799438,0.2057767957448959
1.235544189453125,-0.2650488205298781,0.2555153781069442,1.24800625692904,-0.0009376013185828,0.0223290063440799,0.1280901730060577
1.245572265625,-0.4146979320643469,0.3758583887234329,1.1875322067439555,0.0522063076496124,0.0388272888958454,0.0510281436145305
1.255600341796875,-0.543733404234983,0.4626823569020256,1.0670651678889989,0.1004902943968772,0.0509940348565578,-0.0106922481209039
1.265628173828125,-0.5674329538501799,0.5219828697957098,0.9920371071726084,0.1295954436063766,0.0706281810998916,-0.0551691688597202
1.27565625,-0.5398027867877856,0.5658601881081238,0.963589011323452,0.1354196369647979,0.1020381301641464,-0.0921236500144004
1.285684326171875,-0.5808765554541722,0.5411191666159778,0.943478535708785,0.124603733420372,0.1270894110202789,-0.112204685807228
1.295712158203125,-0.5947301260985434,0.508376186584495,0.930104674872756,0.0953783243894577,0.1526259779930114,-0.1249259486794471
1.305740478515625,-0.6418121952690183,0.5188213735574856,0.912476663723588,0.0641293227672576,0.1688883006572723,-0.1464557349681854
1.315768310546875,-0.7999746123984456,0.555525512304902,0.7964443924456834,0.0372152216732502,0.1752171069383621,-0.1657188385725021
1.325795166015625,-0.8836233480744063,0.5255179120540618,0.6531961974620819,0.0191773660480976,0.1634560525417328,-0.1770500540733337
1.335822509765625,-0.9176803698465228,0.5121492388498038,0.5211737453699111,0.008585313335061,0.1425402760505676,-0.1823731362819671
1.3458505859375,-0.9099969757370652,0.4941169942812994,0.3601028934478759,0.000304480548948,0.1115040704607963,-0.1843526661396026
1.35587841796875,-0.8931963553227483,0.4756971386346966,0.2356809794872999,-0.0138377165421843,0.0934661701321601,-0.1874988675117492
1.365906494140625,-0.9022074909046292,0.4614224199688062,0.1427069277137518,-0.0330377779901027,0.0806033685803413,-0.1932984292507171
1.3759345703125,-0.9335418097145854,0.4378261480649933,0.1071872860431671,-0.0631232038140297,0.0678089410066604,-0.2006407380104065
1.38596240234375,-0.9714303724735974,0.4395959707491099,0.0967833809286355,-0.0960121750831604,0.0578468516469001,-0.2039209604263305
1.39599072265625,-0.9652541680566966,0.4184088058136403,0.0622644407331943,-0.12275031208992,0.0484935641288757,-0.2065992951393127
1.406018310546875,-0.9332486719869076,0.3542425135144963,0.0054711248874664,-0.1336306631565094,0.0387133695185184,-0.2081588506698608
1.416046630859375,-0.9200536748491228,0.3069508567139506,-0.1205336743503808,-0.1346735507249832,0.0276426095515489,-0.2098965644836425
1.426073486328125,-0.8708896848380565,0.2629116623707115,-0.2280173129916191,-0.1294689327478408,0.023313907906413,-0.2168013453483581
1.436101806640625,-0.8564718679070472,0.2162665598453953,-0.2957067013829946,-0.1209213659167289,0.0145595241338014,-0.2277444005012512
1.446129638671875,-0.8502255939286202,0.1669006175214424,-0.3466723339885473,-0.1237091645598411,0.005273348186165,-0.2397331446409225
1.456157470703125,-0.807804867632687,0.0997314536118879,-0.2944605007141828,-0.1296468675136566,-0.0023160153068602,-0.2495470643043518
1.466185546875,-0.7105980005949736,-0.0104477077236399,-0.2681862417727708,-0.1327497214078903,-0.004208989907056,-0.2501087188720703
1.476213623046875,-0.5695957579072565,-0.1131436006316915,-0.2865074958831071,-0.1327280700206756,0.0079271905124187,-0.2396826446056366
1.48624169921875,-0.445972191250138,-0.1635768799262121,-0.252118904069066,-0.131221517920494,0.0246510431170463,-0.2206034958362579
1.49626953125,-0.3824347714390606,-0.1351337890457362,-0.1820458354115486,-0.1345090568065643,0.0565118715167045,-0.2087844312191009
1.50629736328125,-0.3626416912104934,-0.074903776749596,-0.1293967797636985,-0.1430905610322952,0.1021555215120315,-0.2124345600605011
1.516324462890625,-0.4143257742837071,0.0337047377357259,-0.1276227558284997,-0.14505136013031,0.1695371568202972,-0.2374597489833831
1.5263525390625,-0.4831100087070837,0.1441339283095672,-0.2232119585365057,-0.1407127976417541,0.245801568031311,-0.2859377861022949
1.536380615234375,-0.6203169142324477,0.2483480072282254,-0.388169296503067,-0.1246268451213836,0.3079663217067718,-0.3456574082374573
1.54640869140625,-0.7210284283902496,0.4000526995856314,-0.677282590970397,-0.0939397662878036,0.3434619903564453,-0.4141019582748413
1.5564365234375,-0.7566065953150392,0.4925640657508745,-1.0445084681659935,-0.0530704110860824,0.3351543247699737,-0.4828633666038513
1.566464599609375,-0.784047048491612,0.4854914604835212,-1.4395342064350842,-0.0177936442196369,0.2532307207584381,-0.547516942024231
1.576492431640625,-0.6921260859675705,0.4266244801688939,-1.7032792508900163,0.010181501507759,0.1130489557981491,-0.5987918972969055
1.586520751953125,-0.4717721837433055,0.2688632277188822,-1.79269999409616,0.0426595509052276,-0.0643916055560112,-0.6244687438011169
1.596548583984375,-0.2706220358186401,0.0379379183260723,-1.7373001784354447,0.0773397609591484,-0.236867755651474,-0.6130952835083008
1.60657666015625,-0.0019051577678881,-0.1790665638724342,-1.5055202980399132,0.1093323156237602,-0.3542660176753998,-0.5658167600631714
1.616603515625,0.3344654711052775,-0.3119751876819878,-1.1254700105845927,0.1232246905565261,-0.3801293969154358,-0.5044476985931396
1.626631591796875,0.5629310027884319,-0.3596463453194126,-0.654120911091566,0.1089674532413482,-0.3367086946964264,-0.4418756067752838
1.63665966796875,0.596716221881844,-0.3252681287689134,-0.1599538305908441,0.0617286078631877,-0.2482116520404815,-0.3763027191162109
1.646687255859375,0.6877998933315277,-0.308023308251053,0.2886667197436094,-0.006248312536627,-0.1494480669498443,-0.303415447473526
1.656715576171875,0.8849015513166785,-0.3284210033092647,0.6610679537504911,-0.0788207575678825,-0.0672696754336357,-0.2320490628480911
1.666743408203125,0.9648698449142276,-0.3506267707027494,0.9317483504265546,-0.1335598975419998,-0.0235522910952568,-0.1683952510356903
1.676771728515625,1.009350061023235,-0.3574275002261624,1.0540104560047387,-0.1590112596750259,-0.0043322658166289,-0.120451420545578
1.686799560546875,1.067283194553852,-0.3420212202470749,1.022002621847391,-0.1441867649555206,0.0029746489599347,-0.1000311002135276
1.69682763671875,0.9977139837652444,-0.2711438860019668,0.9044131842553615,-0.1152459383010864,0.0182504765689373,-0.1101522669196128
1.7068544921875,0.8498954121261835,-0.1608905999843031,0.840168383359909,-0.0890960916876792,0.0387285873293876,-0.1486402750015258
1.716882568359375,0.7564141414828598,-0.0616517887275665,0.8957289425402879,-0.0680320337414741,0.0748290717601776,-0.2088117450475692
1.72691064453125,0.667347107085213,0.0331123613331466,0.9253688785225151,-0.0495433025062084,0.119218111038208,-0.2840681672096252
1.7369384765625,0.5283551082413643,0.0921403774283826,0.8456424308568239,-0.0214320551604032,0.1676681488752365,-0.3552361726760864
1.746966552734375,0.4740121812224387,0.1162245059143751,0.65898121060431,0.0197790302336215,0.205101802945137,-0.4113300740718841
1.756994384765625,0.5017004351476207,0.0695641327546909,0.4163724776804447,0.0597241707146167,0.2270529866218567,-0.4573273062705993
1.7670224609375,0.5092230492047966,-0.0238388484880328,0.129977794522047,0.0886767283082008,0.223474770784378,-0.496579110622406
1.777050537109375,0.4773929827671497,-0.1906222693705931,-0.1206418108999729,0.1030787825584411,0.1887535452842712,-0.5167089700698853
1.78707861328125,0.4633179148592055,-0.3830702928636222,-0.3112362789481878,0.1040987744927406,0.1288862079381942,-0.5051670670509338
1.79710546875,0.548463063105382,-0.5819265759637579,-0.4819049802988767,0.0897263810038566,0.0485271327197551,-0.4692783653736114
1.807133544921875,0.6866385944671929,-0.7108753562316298,-0.5743734206378459,0.0652527213096618,-0.035479087382555,-0.4165278077125549
1.81716162109375,0.8408455519691109,-0.8025213012065738,-0.566051582494378,0.0466294698417186,-0.1110203713178634,-0.3565355837345123
1.827189697265625,0.9705391227222978,-0.8463169691175222,-0.4899667062014341,0.0277500543743371,-0.1700605154037475,-0.2955039143562317
1.8372177734375,1.0586828317299484,-0.8564366504631936,-0.3020908494621515,0.0073206480592489,-0.209619253873825,-0.2386946082115173
1.84724560546875,1.1394141455892473,-0.7896715373098849,-0.0214367557823658,-0.0198518503457307,-0.242064282298088,-0.2061601132154464
1.8572734375,1.1327174974948166,-0.5934876517567783,0.3601280278891324,-0.0303836148232221,-0.2474059462547302,-0.1934487968683242
1.867301513671875,1.0540581676039844,-0.4454267227292061,0.6750988171905279,-0.0100778108462691,-0.2331937253475189,-0.1905563324689865
1.87732958984375,1.0888463531948624,-0.3499917242022231,0.8799655562192201,0.0310754161328077,-0.2149508595466613,-0.1833640187978744
1.8873564453125,1.0582989469788968,-0.189137547238171,1.0111883823662997,0.0686547458171844,-0.1852888464927673,-0.164770096540451
1.897384521484375,1.1441551295712589,-0.0375225059255957,1.1631453689843416,0.0928499028086662,-0.1695172488689422,-0.1586046367883682
1.90741259765625,1.230231384655088,0.0518128240194171,1.4021996242970227,0.0935271456837654,-0.1271330416202545,-0.1544610261917114
1.917440673828125,1.169140736941621,0.1357767996570095,1.5673556997060776,0.0757984668016433,-0.0722520127892494,-0.1455435305833816
1.927468505859375,1.1772983974993227,0.181940292677842,1.7421072864562273,0.0628365948796272,-0.0163032598793506,-0.1528637558221817
1.93749658203125,1.058508644206822,0.3082341014575213,1.8424480676054955,0.050832737237215,0.0561920553445816,-0.1636894196271896
1.9475244140625,0.9947992653623224,0.4514592808917164,1.7380822687238453,0.0454824455082416,0.1203984767198562,-0.1699776798486709
1.957552734375,1.000678094267845,0.573113301041536,1.6097487342774868,0.0410797819495201,0.1856053471565246,-0.1891969740390777
1.96758056640625,0.887713832258433,0.6543377687126398,1.4237486082822084,0.0436465367674827,0.2374986261129379,-0.2185367494821548
1.977608642578125,0.7398918996185064,0.6891025003626943,1.1466045685499906,0.0536357127130031,0.2532968521118164,-0.2579429745674133
1.987635498046875,0.6480293162181973,0.6881742796018719,0.8126993616759777,0.0637477338314056,0.2199762016534805,-0.2857019007205963
1.997663330078125,0.6973463048338889,0.6738660605251788,0.5029764099001884,0.0689871534705162,0.1576157212257385,-0.3089303076267242
2.007691650390625,0.7803057430714369,0.6278390533655882,0.2556593531548977,0.0733289048075676,0.0774705559015274,-0.3291522264480591
2.017719482421875,0.7397044872876256,0.5442712009061128,0.0738800597250461,0.0731959640979766,0.0019241240806877,-0.3467357158660888
2.027747802734375,0.6716590520001947,0.4366430026950314,-0.0539963786035776,0.0707650259137153,-0.0574582405388355,-0.3533286452293396
2.037775390625,0.6646757689841091,0.3830397881275043,-0.1150567042440176,0.0633645057678222,-0.0941071659326553,-0.3412242829799652
2.047803466796875,0.6452421697176992,0.3546183610895648,-0.1647626921772956,0.0527872294187545,-0.1162247210741043,-0.3144035935401916
2.05783154296875,0.6652721274420619,0.3280889218106865,-0.1707335832804441,0.0385736040771007,-0.1151795238256454,-0.2794695198535919
2.067859619140625,0.6938457493670285,0.3045944297809154,-0.1820686317652463,0.0106133399531245,-0.127238854765892,-0.249572604894638
2.077886474609375,0.5990501812547445,0.3438691131360828,-0.2148456967294216,-0.0141940480098128,-0.1457951664924621,-0.2188571989536285
2.087914306640625,0.5854627142006531,0.3309086188739165,-0.2952899372756481,-0.0385550446808338,-0.1732813864946365,-0.1720779687166214
2.097942626953125,0.7179431026607751,0.2562782887708396,-0.3742582600504159,-0.0708410292863845,-0.215432807803154,-0.1112248748540878
2.107970458984375,0.8186817970864474,0.2678570828836411,-0.3298480404376983,-0.1101327762007713,-0.2417834550142288,-0.052269946783781
2.11799853515625,0.9325184580162168,0.2513744789099321,-0.229473941540718,-0.147852674126625,-0.2450136840343475,-0.0113097177818417
2.128026611328125,0.9573781739845872,0.2136015053546056,-0.1952963621288538,-0.1820724308490753,-0.2303300648927688,0.0162028651684522
2.138054443359375,0.974271075792238,0.2592948235804215,-0.1149737021356821,-0.2121609151363372,-0.1948830634355545,0.0330548137426376
2.14808251953125,0.9885122940473258,0.3531019286446273,-0.0859352391779422,-0.2332286536693573,-0.1450190991163253,0.0260293949395418
2.158110595703125,0.9480468665376304,0.4215041414804756,-0.0847206026911735,-0.255530446767807,-0.0815338790416717,-0.0011635029222816
2.1681376953125,0.8523908091384917,0.4682059426290914,-0.1344511405438184,-0.2882359325885772,-0.0537224896252155,-0.0345675311982631
2.17816552734375,0.816237618804723,0.4417077752713114,-0.2161632090687751,-0.3310190737247467,-0.0630706325173378,-0.0518389567732811
2.188193359375,0.915441943269968,0.4121834284927695,-0.272758956515789,-0.3665206134319305,-0.098888024687767,-0.0657310709357261
2.1982216796875,0.994957889990136,0.3575996784552931,-0.3703483931303024,-0.3840546309947967,-0.1494605988264084,-0.0938225239515304
2.20824951171875,0.8115604938391595,0.3776235717650503,-0.4771820434302091,-0.3644412457942962,-0.1774874329566955,-0.1443637162446975
2.21827783203125,0.5526555098265409,0.4285217651575803,-0.7150871287077665,-0.3110512197017669,-0.1777248531579971,-0.2103892713785171
2.228305419921875,0.3679206545267254,0.4636765921037644,-0.963641033771634,-0.2463145852088928,-0.1448300182819366,-0.2835761606693268
2.238333251953125,0.2466360156785696,0.4933709616869687,-1.1422650780409571,-0.192231148481369,-0.101163700222969,-0.3654021918773651
2.248361572265625,0.1540772667076438,0.4535820451993494,-1.209411445596814,-0.1520850658416748,-0.0598410293459892,-0.467849999666214
2.258388671875,0.0327505422834306,0.3263110254179686,-1.26906190443933,-0.1224850267171859,-0.0042520589195191,-0.5844565033912659
2.268416748046875,-0.0947971755474805,0.1006914212178438,-1.390149121019244,-0.099719800055027,0.0265772268176078,-0.694948136806488
2.2784443359375,-0.1802033493500202,-0.1309624216452241,-1.590779245391488,-0.0856684073805809,0.011393810622394,-0.768804132938385
2.28847265625,-0.0929712022293359,-0.4333293115697801,-1.8109066819161173,-0.0775721371173858,-0.0914348289370536,-0.7956945896148682
2.29850048828125,0.1357427877895534,-0.828399838828668,-1.952692987653613,-0.0724425092339515,-0.2571766376495361,-0.7583061456680298
2.308528564453125,0.4391827137731015,-1.2750254890188577,-1.9319740247517825,-0.0680176690220832,-0.4622983634471893,-0.675061047077179
2.318556640625,0.7250722969535738,-1.639099624185264,-1.708274574959278,-0.0838176906108856,-0.6068875789642334,-0.5610166192054749
2.32858447265625,0.943949587286636,-1.7992713353104888,-1.2205313900262116,-0.1331892311573028,-0.6492350101470947,-0.4458785355091095
2.338612548828125,0.9768392457798124,-1.764818007697165,-0.4847328972011804,-0.193609818816185,-0.6161751747131348,-0.3518433570861816
2.348639404296875,0.8148848159562796,-1.5602835693627597,0.3641916240662336,-0.2439979016780853,-0.5384278893470764,-0.2811534702777862
2.358667724609375,0.646675855782628,-1.297209263776243,0.9503215334713458,-0.2706732451915741,-0.4379596412181854,-0.2378027886152267
2.3686953125,0.532684369617328,-1.0409314864620565,1.3374357679635285,-0.2655612826347351,-0.3099215030670166,-0.2321441024541854
2.3787236328125,0.292401230096817,-0.8061454099878669,1.600506858679652,-0.2377086877822876,-0.1491163969039917,-0.2501180171966553
2.38875146484375,-0.0136004361335188,-0.6036337096527219,1.6553244905382394,-0.2018976956605911,-0.0094780661165714,-0.2841649353504181
2.398779541015625,-0.185058388165757,-0.4244911944672465,1.6582266417205334,-0.1762759685516357,0.1161000207066536,-0.3265120983123779
2.4088076171875,-0.253472949026525,-0.3240783709950744,1.6098977873593567,-0.1604567915201187,0.2307192832231521,-0.3962520360946655
2.418835693359375,-0.3874517958834767,-0.3673717154070735,1.4660095409065483,-0.147589236497879,0.3221666216850281,-0.4943921864032745
2.428863525390625,-0.5397805384233594,-0.4266554598290473,1.2011883916527033,-0.1322307884693145,0.3773358762264251,-0.6067461371421814
2.438890380859375,-0.6372614000968635,-0.5384365034032613,0.8842267207950353,-0.1030430793762207,0.3996710777282715,-0.7089865207672119
2.448918701171875,-0.5641208336275071,-0.7072831769585609,0.5200169765502214,-0.0568822398781776,0.3993653655052185,-0.800060510635376
2.458946533203125,-0.3754376790933311,-0.9649855802483857,0.1336708038210868,0.0040361871942877,0.3819016516208648,-0.873022735118866
2.468974365234375,-0.2448804772481322,-1.2163570269510149,-0.2302507711321115,0.0571819618344306,0.3624837398529053,-0.9337624907493592
2.47900244140625,-0.197476044255495,-1.407028505758196,-0.5207558122187853,0.0885434970259666,0.3362427949905395,-0.9713338613510132
2.489030517578125,-0.1314860071279108,-1.523705943071842,-0.6715799954146147,0.0830930694937706,0.2763504385948181,-0.9804301261901855
2.49905859375,0.0227760415621101,-1.6721505376547574,-0.7500386151015758,0.0570140741765499,0.1790683418512344,-0.9701627492904664
2.509086669921875,0.2114680369898676,-1.8019269643858076,-0.7655711152762175,0.0310919284820556,0.0641755834221839,-0.9510987997055054
2.5191142578125,0.2348708321481943,-1.9012056692615151,-0.7772703208982944,0.0287117213010787,-0.0603811591863632,-0.9176164269447328
2.529141357421875,0.2352539862468838,-1.9772747634634371,-0.7792945202022791,0.050392247736454,-0.187316209077835,-0.8612256050109863
2.53916943359375,0.427929717548564,-2.029694978791475,-0.659835197085142,0.0758880078792572,-0.312607079744339,-0.7996614575386047
2.549197509765625,0.5897277147013694,-1.9235843820691108,-0.3837240075320005,0.0943445116281509,-0.3853028416633606,-0.7646656632423401
2.5592255859375,0.6298684403013438,-1.7030083249941468,0.024065935242176,0.1061723753809928,-0.3877778649330139,-0.7581865787506104
2.56925341796875,0.5091801599111407,-1.4258020336806774,0.4673492162019014,0.1160564348101615,-0.3425595164299011,-0.7800865769386292
2.579281494140625,0.4073775625810026,-1.0927753632068633,0.8720417774826288,0.1188023313879966,-0.2566997110843658,-0.808630645275116
2.589309326171875,0.366758844205737,-0.7659791846204549,1.1860668103665113,0.1255891174077987,-0.148031011223793,-0.8350683450698853
2.599337646484375,0.3933757060397416,-0.5496291477426887,1.3643237748891115,0.1261868774890899,-0.0293236449360847,-0.8560692071914673
2.609365478515625,0.4744525454010814,-0.412587698444724,1.4794880311608314,0.1236390322446823,0.0904003605246543,-0.8765544891357422
2.619392578125,0.474104462615773,-0.2678399856183677,1.5176947199583053,0.1184089332818985,0.1991869211196899,-0.8960980772972107
2.62942041015625,0.4565064812786877,-0.1743253972273319,1.476571851453185,0.1112357079982757,0.2765109837055206,-0.9070798754692078
2.63944873046875,0.4297376437533646,-0.0882879397839307,1.3745593376994132,0.1079755201935768,0.3293574452400207,-0.9220491051673888
2.6494765625,0.3683038816906511,0.0284585441779345,1.1785878527879714,0.1177328079938888,0.3471883833408355,-0.9444364309310912
2.65950439453125,0.2689348681829869,0.1106666891241446,0.8659539820015429,0.1386805325746536,0.3427105247974396,-0.966530442237854
2.669532470703125,0.1604128264047205,0.2035034878514707,0.5654705677360296,0.1667473316192627,0.322396457195282,-0.9854745268821716
2.679560302734375,0.1037067504510283,0.3265942628061398,0.3186339879840612,0.1862208396196365,0.295475423336029,-1.0021833181381226
2.689588623046875,0.0287901142198592,0.4131563286455348,0.1227624563157558,0.2036277949810028,0.2573690414428711,-1.015180587768555
2.699616455078125,-0.0739001526650041,0.4286215357376262,-0.0324473946183919,0.2037841230630874,0.2143320739269256,-1.018344521522522
2.7096435546875,-0.0596313888158649,0.4347328216921537,-0.1343745681762695,0.185678094625473,0.1672431379556656,-1.0029308795928955
2.71967138671875,0.0253919962141662,0.4388828540436923,-0.1644973192393779,0.1593358963727951,0.1251748651266098,-0.9803872108459472
2.72969970703125,0.1022484414014965,0.4335378397539258,-0.1773749209910631,0.121193028986454,0.0887012854218483,-0.9553852081298828
2.7397275390625,0.1146535302706062,0.463331979917176,-0.1684989560961723,0.0784196332097053,0.0520746223628521,-0.9323586821556092
2.749755615234375,0.1473651287831366,0.5086048442412168,-0.1619908893764018,0.0370397008955478,0.0109183974564075,-0.90844988822937
2.759783447265625,0.2670226048208773,0.5233086750393733,-0.111889180123806,0.0051231067627668,-0.0317904390394687,-0.8824713230133057
2.7698115234375,0.3535681579168885,0.5283347961056977,-0.0817056387841701,-0.0146183734759688,-0.0637382492423057,-0.8680604100227356
2.779839599609375,0.3921312589365989,0.5939496797779574,-0.0133487263947725,-0.0242635291069746,-0.0784140676259994,-0.8661295175552368
2.78986767578125,0.3949231546774506,0.6814600227855145,0.0398673154860734,-0.0328319855034351,-0.0931775718927383,-0.8817146420478821
2.799894775390625,0.3730965958599,0.7760090687908232,0.1100198791205882,-0.0443746298551559,-0.0921899229288101,-0.904018759727478
2.80992236328125,0.4283754885546862,0.8538453187957405,0.2218792486280202,-0.0507872551679611,-0.0946046113967895,-0.9366872310638428
2.819950439453125,0.4420526431862264,0.900812821675837,0.2841138787448406,-0.0586373433470726,-0.0769528076052665,-0.9639344811439514
2.829978515625,0.4579613562621176,0.9047818714372812,0.3431996894419193,-0.0577204152941703,-0.0641264915466308,-0.987208127975464
2.840006591796875,0.5313478603165597,0.8957134527102112,0.3743313252866267,-0.0569405891001224,-0.0405426621437072,-0.9986628890037536
2.85003466796875,0.5857924210790545,0.8812989967800676,0.3556055820286273,-0.0625848919153213,-0.0074797850102186,-1.0114165544509888
2.8600625,0.6189679838415235,0.9124356010608374,0.3334036870926618,-0.0850974768400192,0.0405131503939628,-1.0193088054656982
2.87009033203125,0.5911708261817693,0.9579601385910064,0.278432325977087,-0.1231628358364105,0.0973503366112709,-1.0275771617889404
2.88011865234375,0.5723076472144574,0.9669961163531988,0.2052916864424943,-0.1646030843257904,0.1672366261482238,-1.0395138263702393
2.8901455078125,0.5702744608864188,0.9279078224156052,0.0841167915791273,-0.2076024711132049,0.2431021034717559,-1.0418986082077026
2.90017333984375,0.6120690181080252,0.9225666805833578,-0.0880289965867996,-0.252023309469223,0.3067434728145599,-1.0427734851837158
2.910201416015625,0.6233243524201214,0.8865703613117337,-0.2699678644925355,-0.2941521406173706,0.3387245535850525,-1.0580168962478638
2.9202294921875,0.5923271566100419,0.829255213548988,-0.5068365924596786,-0.3294312357902527,0.3317099511623382,-1.0866748094558716
2.930257568359375,0.56281457333453,0.7533632294796406,-0.7385580206662417,-0.3582362532615661,0.2857624292373657,-1.1267969608306885
2.940285400390625,0.5419899581011385,0.6890745163772255,-0.958943231344223,-0.3740054368972778,0.2213208079338073,-1.1776440143585205
2.950313720703125,0.4125748389631509,0.6280002352766693,-1.0727163255184888,-0.3623106777667999,0.1640138477087021,-1.235658049583435
2.96034130859375,0.1823798896715044,0.5554306005630641,-1.2288380306005475,-0.3310597240924835,0.1256885975599289,-1.298452615737915
2.97036962890625,0.0092150606561452,0.4379439292257651,-1.2891659503132105,-0.2861183285713196,0.1106630489230156,-1.372126579284668
2.980396484375,-0.1382160460352897,0.2622747527066618,-1.2881249168276787,-0.2439341098070144,0.127246156334877,-1.4395610094070437
2.9904248046875,-0.2744493207555264,0.0658048898190259,-1.2586965777695178,-0.2211654186248779,0.1699193269014358,-1.47612464427948
3.000452392578125,-0.3637127545081078,-0.0386620313495397,-1.159481585779786,-0.2251590937376022,0.2386429905891418,-1.4712145328521729
3.01048046875,-0.2952968784730881,-0.10068802368436,-1.0514514191716908,-0.2456483840942382,0.2991896867752075,-1.4422560930252075
3.020508544921875,-0.1698932599987834,-0.2569231625456363,-1.0217559536099434,-0.2726870477199554,0.3086218535900116,-1.4003735780715942
3.03053662109375,0.0168923903509974,-0.4811813787320628,-1.0010673858463763,-0.2978291511535644,0.2841330170631408,-1.349487066268921
3.040564697265625,0.1912796738334,-0.6853669670961797,-0.9294190306961536,-0.3067783415317535,0.2327111661434173,-1.3006994724273682
3.05059228515625,0.292127089330554,-0.8099212752647698,-0.8209037109196186,-0.2971190512180328,0.168536439538002,-1.2697521448135376
3.06061962890625,0.3281348067790269,-0.9132297471132128,-0.6863982098400593,-0.272550880908966,0.0900817960500717,-1.2472363710403442
3.0706474609375,0.3798392750531434,-1.0014745053425431,-0.5642863263875245,-0.2477722913026809,-0.0083134891465306,-1.2251166105270386
3.080675537109375,0.4923267133310436,-1.074211167186126,-0.3067874828457832,-0.2263415902853012,-0.1042939499020576,-1.1993757486343384
3.090703369140625,0.6453188151504844,-1.1650231455549598,-0.018028993165493,-0.2064035683870315,-0.1838633418083191,-1.1690552234649658
3.1007314453125,0.8147170581739396,-1.265214289100468,0.3053706017851829,-0.187477633357048,-0.2145507782697677,-1.133978009223938
3.110759521484375,0.924846535148844,-1.2763497233599423,0.6247960324078798,-0.1692570745944976,-0.1764047145843505,-1.0978775024414062
3.12078759765625,0.923204101704061,-1.2046088676206768,0.9258429257750512,-0.1510258018970489,-0.0513963028788566,-1.0705368518829346
3.1308154296875,0.8379216273464262,-1.1098845381136984,1.1637959418475627,-0.145436093211174,0.122559517621994,-1.0427545309066772
3.14084375,0.7210776012942195,-1.0011384052559733,1.2429355295360087,-0.1582272797822952,0.287445455789566,-1.0189117193222046
3.15087060546875,0.7882734340149908,-0.9632008157234638,1.27060971840322,-0.1775889992713928,0.4101122617721557,-1.0085933208465576
3.1608984375,0.8201935898888856,-0.9382688382364808,1.183144785439968,-0.1915385425090789,0.4785208106040954,-1.0165696144104004
3.170926513671875,0.7411577548358589,-0.8933636747136712,0.9085346480995417,-0.1915044486522674,0.4891707897186279,-1.0430262088775637
3.18095458984375,0.6584875818684697,-0.8276959283430129,0.5159311685413122,-0.161482349038124,0.449881762266159,-1.0921218395233154
3.190982421875,0.5323305877435952,-0.745626497747749,0.1303553956627845,-0.0924529507756233,0.3895081877708435,-1.15051007270813
3.201010498046875,0.4013512880288064,-0.7121813242636621,-0.2409609657168388,-0.0100578926503658,0.330215573310852,-1.2090404033660889
3.21103857421875,0.2791180432189256,-0.6371504140030593,-0.4760065699100494,0.062251191586256,0.2622285485267639,-1.2554038763046265
3.22106640625,0.1814380057115107,-0.5229339599754661,-0.494726467949152,0.1159365102648735,0.1897578239440918,-1.2737393379211426
3.2310947265625,0.2236499846275895,-0.5711997590377926,-0.4281710520237684,0.1484997868537902,0.120668239891529,-1.2552732229232788
3.241121337890625,0.3669100892446935,-0.7072410183172673,-0.31522330275774,0.1473880857229232,0.0736387148499488,-1.198261857032776
3.251149658203125,0.503031720284,-0.7149648905675858,-0.0467196655988693,0.118986539542675,0.0455881729722023,-1.1107476949691772
3.261177490234375,0.6776827692691236,-0.7228308016370981,0.2490343820571899,0.0687779933214187,0.0213029365986585,-1.0127795934677124
3.27120556640625,0.7884176647912711,-0.774399149376154,0.5272077648371458,0.0198517348617315,-0.0136534497141838,-0.9112285375595092
3.281233642578125,0.8352502161800861,-0.7810198826901614,0.7670271593034267,-0.0208392944186925,-0.0457834303379058,-0.820240318775177
3.29126123046875,0.8575297063969075,-0.675912983117625,0.9221025702029466,-0.0408947616815567,-0.060267299413681,-0.748298704624176
3.30128955078125,0.8072360547687858,-0.4840495180469006,1.0426549492537975,-0.0511254072189331,-0.0510248206555843,-0.7050564289093018
3.3113173828125,0.6596509996246546,-0.2156175578847527,1.1880191134780644,-0.0458286479115486,-0.0162130445241928,-0.6864888668060303
3.321345703125,0.5121240313433111,0.066314008384943,1.3439052562385796,-0.0326140858232975,0.0340395271778106,-0.685630738735199
3.33137255859375,0.3913756182637065,0.3045227527841925,1.467636265325546,-0.0041619362309575,0.0871211215853691,-0.6996421217918396
3.34140087890625,0.3206691470734775,0.4775674260186031,1.5134978527903555,0.0265348218381404,0.138668954372406,-0.7149208188056946
3.3514287109375,0.265815055662021,0.587100581068173,1.4730401701956986,0.0491980575025081,0.1811152100563049,-0.7190271615982056
3.361456787109375,0.306607888495177,0.676882631867379,1.3966606948703526,0.0581192448735237,0.2111406773328781,-0.7105215787887573
3.37148486328125,0.4066220680385827,0.7011958198688923,1.3160574643701315,0.0529796108603477,0.2290387153625488,-0.6986526846885681
3.381512939453125,0.4641286832528188,0.6919048444323241,1.1901070256680248,0.0390782952308654,0.2420775741338729,-0.6852953433990479
3.391540771484375,0.4587124303577467,0.7128561547853052,1.0187252076119184,0.0195469371974468,0.2450640350580215,-0.6682026386260986
3.40156884765625,0.4885430300738662,0.795853660010919,0.812877640852332,0.0029639664571732,0.2280046343803405,-0.6535906791687012
3.4115966796875,0.5456798621276393,0.8687158479303121,0.5877993039220571,-0.008438091725111,0.2050154209136963,-0.6533435583114624
3.421623779296875,0.4922068498110398,0.945018385561928,0.3675520404100418,-0.0065398989245295,0.1531199812889099,-0.6676206588745117
3.431651611328125,0.3978488328658044,1.0217778001155704,0.1436748959630727,0.0017819467466324,0.0687624737620353,-0.682400643825531
3.4416796875,0.3916315292535349,1.06605840199925,-0.0019201544076204,0.0131630152463912,-0.0277046505361795,-0.6943737864494324
3.451707763671875,0.4802036562737077,1.0845298051699996,-0.0999210944324731,0.0236457493156194,-0.1185016632080078,-0.7048919796943665
3.46173583984375,0.5330904296675697,1.0750787438008933,-0.1481850668638944,0.0326748378574848,-0.1877126693725586,-0.69512540102005
3.471763916015625,0.5853440562570468,1.0463916515640914,-0.1162590657711029,0.0297189988195896,-0.2224093973636627,-0.6638883948326111
3.48179150390625,0.7104479245997964,1.0270125589638948,-0.0281190100252628,0.0148483384400606,-0.2239902019500732,-0.615739643573761
3.49181982421875,0.7899630676023661,0.9935236924685538,0.0679752195954322,-0.0140677317976951,-0.2099542766809463,-0.5604686737060547
3.50184765625,0.8122162543341517,0.9478615730986,0.1381827282875776,-0.0553775951266288,-0.1989936232566833,-0.4985604584217071
3.511874755859375,0.836786558901891,0.903846344152838,0.2050327432453632,-0.0979998931288719,-0.1923471838235855,-0.4362334311008453
3.52190283203125,0.9295891265660524,0.839360866369307,0.2742997562170028,-0.1206719353795051,-0.1695384085178375,-0.3823026418685913
3.5319306640625,0.8589287595398724,0.8146246306501328,0.2568143684089183,-0.1309964805841446,-0.144785925745964,-0.3331156373023987
3.541958740234375,0.7493748904958367,0.8787637061487883,0.1795791530370712,-0.1337900757789611,-0.1199356094002723,-0.2917024791240692
3.551986572265625,0.735140613438189,0.9409995783746242,0.1460123989999294,-0.1371770799160003,-0.0979797169566154,-0.2576470375061035
3.562014892578125,0.7084351234726607,0.9419493533801286,0.079618895637989,-0.1448175609111786,-0.0765910446643829,-0.224038764834404
3.572042724609375,0.7037049531456082,0.8817340271964669,-0.0149795424669981,-0.1547319740056991,-0.058879692107439,-0.1892757266759872
3.58207080078125,0.7421494692869484,0.8449876202099025,-0.1083224275529384,-0.1667421460151672,-0.03590003028512,-0.1669913381338119
3.59209765625,0.717443994032219,0.810396491561085,-0.2425181320309639,-0.1797050833702087,-0.036984734237194,-0.1483667939901352
3.6021259765625,0.6462209516219795,0.7993072345308959,-0.4028863886415958,-0.201614961028099,-0.0706843808293342,-0.1330775767564773
3.61215380859375,0.5948872163563966,0.8499980687830596,-0.4690525129884481,-0.2115208506584167,-0.0875270143151283,-0.1430753469467163
3.622181640625,0.459957425450161,0.9467422867450862,-0.5450725073516368,-0.1911301016807556,-0.0600312836468219,-0.1819428205490112
3.632209716796875,0.0935464448340237,1.0235533584207297,-0.7492465879410505,-0.1488361805677414,-0.001227093860507,-0.2531411051750183
3.64223779296875,-0.2408998101141303,1.0559593981154265,-1.0270908848971128,-0.1081662252545356,0.0370549261569976,-0.3283143639564514
3.652265869140625,-0.3341946913398802,0.9524034543119372,-1.2851520384967323,-0.0820699110627174,0.0284409336745739,-0.3912301957607269
3.662293701171875,-0.3013981910228729,0.6954024042245001,-1.4290671729564666,-0.0595728904008865,-0.0071424976922571,-0.4430768191814422
3.67232177734375,-0.3327963688492775,0.4163910362504422,-1.5935031173974274,-0.0294634588062763,-0.0597836039960384,-0.4747250080108642
3.6823486328125,-0.3610949001599103,0.1600255075875669,-1.7860130636781453,0.0100075947120785,-0.1299373060464859,-0.4882561862468719
3.692376708984375,-0.2708661285065114,-0.0723811264041811,-1.9981834037184716,0.0501158647239208,-0.2153352946043014,-0.4868369996547699
3.70240478515625,-0.1022923536084592,-0.3124828449431807,-2.1474714633882046,0.0846482142806053,-0.3152975738048553,-0.4668810963630676
3.712432861328125,0.041787177632749,-0.5581701085295527,-2.085079012361169,0.1051074191927909,-0.415477991104126,-0.4285001456737518
3.722460693359375,0.1492147021725773,-0.7101474072832614,-1.839331981411576,0.11255993694067,-0.4805726408958435,-0.3754283785820007
3.73248876953125,0.223595039569959,-0.7818572102971375,-1.4650859963208436,0.1055534332990646,-0.4973617494106293,-0.3162777125835418
3.7425166015625,0.2561232443396002,-0.8023128460876643,-0.9657704470157624,0.0962087139487266,-0.4519649744033813,-0.2615349888801574
3.752544921875,0.2352048133429139,-0.7758893148686736,-0.4923457102924585,0.0790776684880256,-0.3574943840503692,-0.2076610773801803
3.76257275390625,0.1579408102679997,-0.7159137887902557,-0.1076993272185325,0.0509473532438278,-0.2510418593883514,-0.1482036709785461
3.772599609375,0.2036013222027569,-0.66414721506536,0.230893160688877,0.0221031866967678,-0.1716402620077133,-0.0838244035840034
3.782627685546875,0.3353547480951994,-0.6628383244238794,0.5245914448589086,0.0002281425986438,-0.1125801652669906,-0.0266033243387937
3.79265576171875,0.4108591210864484,-0.7093127830900251,0.7015735671401023,-0.0008568291086703,-0.0741709917783737,0.0165204443037509
3.802683837890625,0.3801391347825527,-0.7082033605434,0.7936392718970775,0.0193827040493488,-0.0301298256963491,0.0391130000352859
3.8127119140625,0.2516657534740865,-0.6057998381780461,0.8564058169335126,0.0531838126480579,0.0317583084106445,0.0285485070198774
3.82273974609375,0.0072577160432934,-0.4532984790176153,0.8697878610759973,0.1017589420080185,0.1054036691784858,-0.0116566587239503
3.832767578125,-0.2650899562578648,-0.3392349870620295,0.8523550802379846,0.1497387140989303,0.166203111410141,-0.0540768206119537
3.8427958984375,-0.376015040589869,-0.3175144093696028,0.8084814517199993,0.1793164610862732,0.2145870476961136,-0.0843081772327423
3.85282275390625,-0.3601948825802654,-0.2701070903001353,0.7714093199104071,0.1869714558124542,0.2493474185466766,-0.1031979769468307
3.862850830078125,-0.3140705525260418,-0.270820572331734,0.7605600091159344,0.1746522635221481,0.2685096561908722,-0.1185929253697395
3.872878662109375,-0.3421602633915841,-0.3404325993487611,0.745631320053339,0.1606203317642212,0.2757691740989685,-0.1338528543710708
3.88290673828125,-0.4071565402414649,-0.4302038730256259,0.6854705736011266,0.1585618257522583,0.2568555176258087,-0.1433148384094238
3.892934814453125,-0.4256496437873691,-0.5526658485574647,0.5189759430646896,0.1715625822544098,0.2112057358026504,-0.1425955146551132
3.902962646484375,-0.4174536970458924,-0.6246768630076199,0.3824257844150066,0.1985104382038116,0.1716886013746261,-0.1258949041366577
3.912990966796875,-0.4189544569976627,-0.6427016183894128,0.2855336824148893,0.2219052463769912,0.1398366689682006,-0.1090317592024803
3.9230185546875,-0.4606118707709014,-0.6771513658061623,0.2873889548927545,0.2253440469503402,0.108463317155838,-0.0948829427361488
3.933046875,-0.5186310020845383,-0.6875672536194324,0.4116600622057914,0.2113731056451797,0.0970095917582511,-0.0888468846678733
3.94307373046875,-0.5354555148310959,-0.6854201585881412,0.5339017095178366,0.1904875338077545,0.0845887586474418,-0.098087191581726
3.95310205078125,-0.599249284023419,-0.6400134752839803,0.6102817693650722,0.1716882884502411,0.0746969804167747,-0.11092309653759
3.963129638671875,-0.6333727951604873,-0.5382802899282425,0.6201455762535333,0.1662411391735077,0.0533566176891326,-0.1254061907529831
3.97315771484375,-0.6065371760092675,-0.4388653183870017,0.6275070449322462,0.1723088771104812,0.0281521957367658,-0.1335125863552093
3.983812744140625,-0.5561144911739975,-0.3291408785490319,0.6104845984607935,0.1781731992959976,0.0157507788389921,-0.1277598738670349
3.9938408203125,-0.49746232265383,-0.2509351011119782,0.6520002656757831,0.1773910224437713,0.0179561432451009,-0.1252357214689254
4.003868896484375,-0.442608377372846,-0.0979927749847061,0.7943518040806055,0.1637618094682693,0.0218501724302768,-0.1243104934692382
4.013896484375,-0.3960737129520624,0.0454187390681356,0.9495727609306572,0.142303392291069,0.0363942272961139,-0.1287688910961151
4.023923828125,-0.3116136608932167,0.1202141235398128,1.1086094766765833,0.1150126308202743,0.0568786524236202,-0.1351652592420578
4.03395166015625,-0.3275469238884747,0.260568989968393,1.2344336586505174,0.1002536639571189,0.0824900045990943,-0.1591182500123977
4.04397998046875,-0.4062966354764997,0.4422680029699579,1.2597025399416684,0.1056424304842948,0.0969591364264488,-0.1934118419885635
4.054007568359375,-0.4905065852317958,0.5945777120158076,1.1840788514196872,0.1270515769720077,0.1056016311049461,-0.2325541824102401
4.064035888671875,-0.5338979101255535,0.7149922169659286,1.076975736528635,0.1547760069370269,0.1140547841787338,-0.2682216465473175
4.074063720703125,-0.5729205184157937,0.8071022723212837,0.9817518600016832,0.1723520755767822,0.1165027618408203,-0.2968482375144958
4.084091796875,-0.5911835395328701,0.8736599532689898,0.9553215337157248,0.1790044754743576,0.1117053031921386,-0.3115644454956054
4.094119873046875,-0.5407860622040928,0.9056923373457044,0.9533324057251216,0.1747045367956161,0.1057054698467254,-0.3218615651130676
4.104147705078125,-0.4508659911736846,0.899778656322509,0.9164134186506272,0.1587533205747604,0.111978568136692,-0.3217042982578277
4.1141748046875,-0.4343685184244066,0.8985724223379046,0.8981184680253267,0.1353009790182113,0.1351201087236404,-0.3271936178207397
4.12420263671875,-0.5072334828227758,0.9840127176057548,0.8467559450566768,0.1076074838638305,0.1621432304382324,-0.3349881768226623
4.13423095703125,-0.5124388694461435,1.052812113065645,0.7123287699103354,0.0848217457532882,0.1819350570440292,-0.3463598787784576
4.1442587890625,-0.4510041575353592,1.0837666387777776,0.5567705439299344,0.0587600618600845,0.2064098417758941,-0.3589470684528351
4.15428662109375,-0.4881071228746324,1.108262124543637,0.3501344571411609,0.030191533267498,0.2222212851047516,-0.3689166307449341
4.164314697265625,-0.4611298302303999,1.095469862987846,0.1544026262044906,-0.0025186161510646,0.2165012657642364,-0.3651227355003357
4.1743427734375,-0.3960398106824606,1.0517001332357525,-0.0225023391872644,-0.0384710244834423,0.1906869709491729,-0.3635911345481872
4.184370849609375,-0.3602709434911608,0.9591772592958062,-0.1715519139260053,-0.0748772844672203,0.1519392132759094,-0.3605411350727081
4.19439892578125,-0.3259866888344288,0.8441103259187192,-0.2838379844129085,-0.1103258207440376,0.1026289314031601,-0.3511875867843628
4.20442578125,-0.2517930331155658,0.7402228120733052,-0.3664209905534982,-0.1401461213827133,0.0541969425976276,-0.3453644514083862
4.21445361328125,-0.2259950864490121,0.6756241562388837,-0.3731611124634743,-0.1577967554330825,0.0174178890883922,-0.3475021719932556
4.22448193359375,-0.2316650949094444,0.6474615993328392,-0.3606868308156729,-0.1690336912870407,-0.0079573132097721,-0.3626906871795654
4.234509765625,-0.2714123642124235,0.6435295936461538,-0.3214408620983362,-0.1798575818538665,-0.0207122564315795,-0.3866194486618042
4.244537841796875,-0.3156214352298527,0.6802878372009843,-0.2441115387022495,-0.1864143162965774,-0.0173933692276477,-0.4152054488658905
4.254565673828125,-0.354349809813872,0.6769430568177253,-0.1858697776138782,-0.1929193437099456,0.0079692443832755,-0.4421353340148926
4.26459375,-0.3514509465672075,0.6164904147468507,-0.1617424675732851,-0.2003149092197418,0.0399636067450046,-0.4636801481246948
4.274621826171875,-0.3852645149722695,0.5458204031094909,-0.1421744282722473,-0.2079520672559738,0.0881425887346267,-0.4762385487556457
4.28464892578125,-0.3985098540578037,0.4985943954236805,-0.1341571260333061,-0.2176156193017959,0.1338570117950439,-0.4868201613426208
4.2946767578125,-0.4347160166878253,0.4127832940820604,-0.1527811624825,-0.2237108051776886,0.1541143506765365,-0.4844430387020111
4.304704833984375,-0.4713508530586958,0.3213817523222416,-0.2247095036178827,-0.2310072481632232,0.1454333215951919,-0.4691177904605865
4.314732666015625,-0.421317825128138,0.2110203114886768,-0.2990641951173544,-0.2434295564889907,0.1296253353357315,-0.4420840442180633
4.3247607421875,-0.3867420767115428,0.1391833749637939,-0.3357090414255857,-0.2537727057933807,0.1294143497943878,-0.4099994301795959
4.334789306640625,-0.3782404250217601,0.1185005976201966,-0.3325502851337194,-0.2614524662494659,0.1622071862220764,-0.3884755074977875
4.3448173828125,-0.4596136900464072,0.1904195864053443,-0.3280237476199865,-0.2653045058250427,0.2170483767986297,-0.3939372897148132
4.364246337890625,-0.8206142995189875,0.4541085898241028,-0.4685293658971786,-0.2144781500101089,0.2663005292415619,-0.5441151261329651
4.374274169921875,-1.0589854679383337,0.5122649376513436,-0.689953271973133,-0.1333484202623367,0.2772954106330871,-0.6689084768295288
4.384302490234375,-1.3567973249070346,0.6008162776118144,-1.0191378800660371,-0.0339305624365806,0.2768542468547821,-0.794623076915741
4.394330322265625,-1.5771993405893443,0.7261863226100802,-1.3832441639363764,0.0685739815235138,0.2493429630994796,-0.8993755578994751
4.404358154296875,-1.6583559671886263,0.6248609874028712,-1.7060007848083971,0.1458652168512344,0.1768198758363723,-0.9486566185951232
4.41438525390625,-1.401870100081712,0.2527724726069718,-1.9029039976119997,0.1772044897079467,0.0551467090845108,-0.9176685810089112
4.424413330078125,-0.8808258263103663,-0.2015030347492545,-1.8746376880705355,0.1579083204269409,-0.1058980301022529,-0.8057451844215393
4.43444140625,-0.2510460506731644,-0.6295604703307152,-1.7059914324581622,0.1014101505279541,-0.2664677202701568,-0.6473174691200256
4.44446923828125,0.3267159894896671,-0.9571082710020244,-1.351594057175517,0.0196223109960556,-0.4031005501747131,-0.4771720170974731
4.454497314453125,0.7477047653265297,-1.0246631462935358,-0.8289590070813894,-0.0670286938548088,-0.4482778906822204,-0.3280355334281921
4.464525146484375,0.9648708678275346,-0.8945676436759531,-0.29207857401371,-0.1334146857261657,-0.4069360792636871,-0.2301096320152282
4.47455322265625,0.9210718389157204,-0.693247052821517,0.1590039825201034,-0.1863785684108734,-0.3040059506893158,-0.1906794011592865
4.484581298828125,0.8099665026459842,-0.409774906046316,0.5017150116622447,-0.2278687804937362,-0.189255803823471,-0.1958076655864715
4.494608154296875,0.7273634766306728,-0.1109067084250971,0.7702513820469379,-0.2506015300750732,-0.0934845358133316,-0.2279642671346664
4.50463623046875,0.7146373391136527,0.0295263926051557,0.8998796324789523,-0.2494295835494995,-0.0346215143799781,-0.2729468941688537
4.514664306640625,0.7077692069098352,-0.0233583349620923,0.9396773898601531,-0.2194599658250808,-0.0199211295694112,-0.3155880868434906
4.5246923828125,0.7825540334548801,-0.1401258617119863,0.8921773875385522,-0.1708437949419021,-0.0364388078451156,-0.3531017899513244
4.534720458984375,0.888536546818167,-0.2117783085154369,0.8444464990705252,-0.118044763803482,-0.0517394691705703,-0.386942058801651
4.544748046875,0.9418076068218796,-0.2741425563612952,0.8261287520915269,-0.0828206539154052,-0.0606950707733631,-0.4136505424976349
4.5547763671875,0.9291901173111052,-0.3112124962138012,0.9131114544957876,-0.0694976598024368,-0.0461198538541793,-0.4463259279727936
4.56480419921875,0.7804480741515755,-0.3242147837910801,0.9952285966902972,-0.0645275563001632,-0.0103495754301548,-0.4917407035827636
4.57483251953125,0.585249181047827,-0.3663694795619696,0.9906862770855426,-0.0486817508935928,0.0216786637902259,-0.5354388952255249
4.584859375,0.3932284795887768,-0.4147460455223917,0.8658253871858119,-0.0127571411430835,0.0403956696391105,-0.5744909048080444
4.59488720703125,0.3108994482092559,-0.4938880443636327,0.6802046158969401,0.0418496429920196,0.054610826075077,-0.5978848934173584
4.604915283203125,0.19697730095312,-0.5875460598133504,0.468150011190772,0.0951559916138649,0.0707467645406723,-0.606084942817688
4.614943359375,0.0917947057958692,-0.6841722043536603,0.319950915801525,0.1350165903568267,0.0775431543588638,-0.6010369062423706
4.624971435546875,-0.0122573509614914,-0.8181213867247105,0.2230599828451871,0.1517402678728103,0.0794771015644073,-0.561553418636322
4.634999267578125,0.0755932203184813,-1.00527324003838,0.1890758801788091,0.1463593542575836,0.0520438849925994,-0.4901338219642639
4.64502734375,0.2547073131270707,-1.1766869876027106,0.1816448533952236,0.1210111677646637,-0.0038209594786167,-0.3888054490089416
4.65505517578125,0.4551417687967419,-1.323624392493069,0.2200625545948743,0.0878585427999496,-0.0703152939677238,-0.2752410769462585
4.665082275390625,0.5992400778036564,-1.3780783056057988,0.3047854953736066,0.0616761893033981,-0.123331531882286,-0.1739357262849807
4.6751103515625,0.6318312648069113,-1.29330670337975,0.4561445160984992,0.0407866202294826,-0.1577217280864715,-0.0953461080789566
4.68513818359375,0.5660174610290676,-1.0517504021182655,0.6500742660492658,0.0317540727555751,-0.1650286018848419,-0.0528835840523242
4.695166259765625,0.493638599647209,-0.7383695854220539,0.8494096744358539,0.0314952135086059,-0.1420585811138153,-0.0385129004716873
4.705194091796875,0.4145495000369846,-0.4659958288315683,1.0123042346537112,0.0434062369167804,-0.1049158573150634,-0.0451698191463947
4.715222412109375,0.4015160501364618,-0.1950028225423768,1.1665431947290896,0.0485743694007396,-0.0626701340079307,-0.0584408827126026
4.725250244140625,0.4055081885125488,0.0934114202775061,1.3253110304057598,0.0540802553296089,-0.0175230074673891,-0.0911536067724227
4.735278564453125,0.3937242272164672,0.2959250751077197,1.4179858069717883,0.0645222440361976,0.0205724462866783,-0.1370369493961334
4.74530517578125,0.3527303919184952,0.4118933595050126,1.3994640618532894,0.0755828246474266,0.0511630959808826,-0.1847346723079681
4.75533349609375,0.3798297035071998,0.5075452521856874,1.3493997620016336,0.0863571763038635,0.0649414956569671,-0.225484237074852
4.765361328125,0.461789024791494,0.5877945912143215,1.2840163124650716,0.0944378226995468,0.073275588452816,-0.2573735117912292
4.775389404296875,0.5451335898891091,0.609801328904368,1.1708242330491545,0.0934662967920303,0.0844068080186843,-0.2812114655971527
4.785417236328125,0.5822415967296809,0.6456040618326515,1.042717493095994,0.0827525481581687,0.0937254577875137,-0.3112182021141052
4.7954453125,0.5788727778837084,0.6902289471093564,0.9205623550236224,0.0621671080589294,0.0876412019133567,-0.3380644619464874
4.805473388671875,0.5796952732477337,0.6819142693590372,0.7996756294518709,0.0362953320145607,0.0522439293563365,-0.3611400127410888
4.815501220703125,0.604933759400621,0.6897654943160713,0.7049456739217043,0.0115058310329914,0.0141348959878087,-0.3879303634166717
4.825529296875,0.5536384564492851,0.6649778206706046,0.5784843630880117,-0.0003655175678431,-0.0229596868157386,-0.412296324968338
4.83555615234375,0.4951373137723654,0.6557010198898613,0.4566828607589006,-0.0001418120227754,-0.0574966222047805,-0.4304092824459076
4.845584228515625,0.5308592000167817,0.6501695431172847,0.3393272319227456,0.0043652625754475,-0.0764887034893035,-0.4409545958042145
4.8556123046875,0.5564053638793528,0.6589744155373424,0.2172252853423356,0.0072326883673667,-0.0903690978884697,-0.4454955458641052
4.865640380859375,0.5737194137085229,0.6358946417883038,0.1655097111523151,-0.0011043751146644,-0.0963938385248184,-0.4481231868267059
4.87566845703125,0.5172160937853157,0.6259120308257639,0.1788520078063011,-0.0189744513481855,-0.0899436622858047,-0.4472526013851166
4.8856962890625,0.48709290433079,0.6069686262290924,0.2098527107477188,-0.0439459905028343,-0.080833688378334,-0.4361893534660339
4.89572412109375,0.48213900825046,0.5766983929866925,0.2135223391711711,-0.070533663034439,-0.0612107217311859,-0.4245430827140808
4.90575244140625,0.4235298751544207,0.5302797926936298,0.1410948163419962,-0.0910962000489234,-0.0536376349627971,-0.4066734910011291
4.915779296875,0.3961630717359483,0.4621500035909935,0.0105523736745119,-0.1062061786651611,-0.0613956898450851,-0.3870438635349273
4.92580712890625,0.4515677097022533,0.4050809030111879,-0.1226636721163988,-0.1184751093387603,-0.0757709667086601,-0.3726306855678558
4.935835205078125,0.3865985400550067,0.3952117623604834,-0.2339180614680051,-0.1296095252037048,-0.096708208322525,-0.3692434132099151
4.94586328125,0.3644519555028527,0.4138005083005875,-0.3271533945262432,-0.1349587440490722,-0.1252383887767791,-0.3726658225059509
4.955891357421875,0.3639684828348458,0.3667534373782575,-0.4187117342829704,-0.1368117779493332,-0.1492108255624771,-0.3910019695758819
4.965919189453125,0.3578939121615141,0.3355789487725124,-0.4534153833955526,-0.1405485570430755,-0.1533297002315521,-0.414726048707962
4.975947509765625,0.345627647241205,0.3062727199903689,-0.4965501762449741,-0.1478799730539322,-0.1521331518888473,-0.4401496648788452
4.98597509765625,0.3509774838365614,0.270622328079585,-0.5576069947540759,-0.166314959526062,-0.1612642705440521,-0.4599798321723938
4.99600244140625,0.4425561357289552,0.20496473777676,-0.6334779360353946,-0.1930917203426361,-0.1957767158746719,-0.4680883586406708
5.0060302734375,0.5148846551630646,0.1405426258193328,-0.6614975773394107,-0.2220993340015411,-0.2301099002361297,-0.4699856042861938
5.01605859375,0.544228311612457,0.127035384394601,-0.6700064624875783,-0.2374274283647537,-0.239223763346672,-0.4853624403476715
5.026086181640625,0.4604707817997783,0.2051956421894952,-0.7120575517535209,-0.2280362248420715,-0.1828720569610595,-0.533377468585968
5.0361142578125,0.1431895966641604,0.2780519848899915,-0.8895113831996917,-0.2124431580305099,-0.1137893795967102,-0.6005131006240845
5.046142333984375,-0.1263437488686293,0.2647266028381884,-1.0957114166587592,-0.1987979114055633,-0.0670909285545349,-0.6653421521186829
5.056170166015625,-0.1028750488672405,0.1055772204980254,-1.166304125276208,-0.1800423413515091,-0.0165523868054151,-0.72735995054245
5.066198486328125,-0.099318013972789,-0.1234345834236591,-1.3508856166452168,-0.1587695330381393,0.0436923094093799,-0.788170576095581
5.07622607421875,-0.1091230764113366,-0.3613665932407602,-1.623330684906244,-0.151716947555542,0.0882110446691513,-0.8315281867980957
5.08625341796875,0.009564677811414,-0.5880069553233683,-1.837392537781596,-0.1764264851808548,0.0798022672533989,-0.8623241782188416
5.09628125,0.1903602939661592,-0.8741746978580951,-1.9148767594784497,-0.2125155180692672,-0.011175574734807,-0.8680270314216614
5.1063095703125,0.4272055679924786,-1.3098758531257508,-1.8803075504004956,-0.2361071407794952,-0.1912868916988372,-0.847033679485321
5.116337158203125,0.7343775201112032,-1.7422616002351046,-1.7580062818557023,-0.2343638390302658,-0.4065797626972198,-0.7886379957199097
5.126365234375,1.0000710682854057,-1.95392019136101,-1.4998796618044377,-0.2146929800510406,-0.5648351311683655,-0.7072769999504089
5.136393310546875,1.2008723114408553,-1.9515084540441632,-1.0741209316194056,-0.1952385753393173,-0.6537458300590515,-0.6173868179321289
5.14642138671875,1.2745685390315948,-1.773049391078204,-0.3291992211401462,-0.183634802699089,-0.6337706446647644,-0.5470876693725586
5.156449462890625,1.209522358625382,-1.4816786730729044,0.449662168341875,-0.1840712875127792,-0.5258393883705139,-0.5316378474235535
5.16647607421875,0.8558290399588644,-1.1539501090072095,1.1081336758583784,-0.1891122013330459,-0.3401231467723846,-0.5828390717506409
5.17650439453125,0.397897202052176,-0.8302909863375126,1.5661930856674908,-0.181411400437355,-0.1106851920485496,-0.6782417893409729
5.1865322265625,0.0121520639561116,-0.5614756528809667,1.7210212438076733,-0.156139999628067,0.123647391796112,-0.7915576100349426
5.196560302734375,-0.2630298819229006,-0.3458808913499117,1.6275836661756038,-0.1050866618752479,0.3191284835338592,-0.8978110551834106
5.20658837890625,-0.4051553564868867,-0.300834346595034,1.3044424299001691,-0.0377877987921237,0.4377320110797882,-0.9744684100151062
5.2166162109375,-0.3554740646034479,-0.4904907300755381,0.7720411880731582,0.0077637056820094,0.4679029583930969,-1.0281667709350586
5.226644287109375,-0.1721376048594713,-0.7580334132477641,0.2697007379889488,0.0414310619235038,0.4114015400409698,-1.074526071548462
5.23667236328125,-0.1119687481660395,-1.1237587496872992,-0.1486281344562768,0.0728630125522613,0.2824915051460266,-1.0950767993927002
5.2467001953125,-0.0401826650455594,-1.5093968472123145,-0.5854436807066202,0.1030697003006935,0.1187259256839752,-1.0718475580215454
5.25672705078125,0.1134441544808447,-1.7321397269323466,-0.8444991060405969,0.1240410283207893,-0.0295764617621898,-1.0145152807235718
5.266755126953125,0.2202902258709073,-1.8151242996111512,-0.8971557604730128,0.1286774724721908,-0.124010182917118,-0.9425160884857178
5.276783203125,0.2099173004165291,-1.8037173549339172,-0.7556096932321786,0.1115626543760299,-0.1514511406421661,-0.8732691407203674
5.286811279296875,0.1352916830211877,-1.7622255069859325,-0.4928080671072006,0.0688085332512855,-0.1416136920452118,-0.7968212366104126
5.29683935546875,0.1772121316447854,-1.7182113009534776,-0.1363718794733285,0.014840374700725,-0.1235156431794166,-0.7246567606925964
5.306867431640625,0.2248030271202325,-1.6163634762421248,0.1830085429638624,-0.0366165228188037,-0.1008727997541427,-0.6681541800498962
5.31689501953125,0.2570573833845556,-1.4746239322558043,0.4033019837051629,-0.0669541880488395,-0.0806005522608757,-0.6312158703804016
5.32692333984375,0.3072296736553311,-1.2819950357705354,0.5604775817543268,-0.0811893790960311,-0.0573331341147422,-0.611611008644104
5.336949951171875,0.3398023020885884,-1.0215518093399705,0.6903361338108778,-0.0801629945635795,-0.0439510121941566,-0.6063629388809204
5.34697802734375,0.383076795669645,-0.764676139197871,0.8130190951496362,-0.0623497664928436,-0.0351256653666496,-0.6180054545402527
5.357005615234375,0.4619913424305618,-0.546283125250414,0.9246206905037164,-0.0297707878053188,-0.0117412433028221,-0.6480789184570312
5.367033935546875,0.4177081101983785,-0.3468887897508219,0.9643196636855602,0.009104972705245,0.0248873401433229,-0.6920315027236938
5.377061767578125,0.2949132129177451,-0.2017352726025506,1.0146674566537142,0.0423918254673481,0.0639929324388504,-0.739705502986908
5.387090087890625,0.2714681860528886,-0.0912675401166081,1.026079662027955,0.0649203211069107,0.1015316545963287,-0.78670734167099
5.397117919921875,0.327202202104032,0.0033670287476852,1.041566569495201,0.0714235007762909,0.1337338089942932,-0.8347467184066772
5.407145751953125,0.3363182593651115,0.0142042655118741,1.008600703960657,0.0727257207036018,0.1535596251487732,-0.8809469938278198
5.4171728515625,0.3188201582059264,0.0259879162807017,0.9391022203207016,0.066265158355236,0.1624729633331298,-0.9293310046195984
5.427200927734375,0.2669571383692324,0.0533791234880685,0.7776531827360391,0.0628684163093566,0.169643685221672,-0.9825782775878906
5.43722900390625,0.1471814427793026,0.0825413954885676,0.6201958451360464,0.0640540570020675,0.1624438166618347,-1.0320777893066406
5.447256591796875,0.0919900822374969,0.0867065706103108,0.4850684127658605,0.0826090052723884,0.1546468585729599,-1.0779156684875488
5.457284912109375,0.0506019869249314,0.0814170311011373,0.3287695975512266,0.1111844554543495,0.1503495872020721,-1.1124690771102903
5.467312744140625,0.0058142392367124,0.0920911497254855,0.1239367607921361,0.1298625469207763,0.144697368144989,-1.1308892965316772
5.4773408203125,0.00785400143601,0.0985842563381418,0.067695818132162,0.1270510405302047,0.1330702751874923,-1.132406234741211
5.487368896484375,0.0975644483037292,0.06465325383218,0.0364659826099872,0.0979536324739456,0.1091895103454589,-1.1279261112213137
5.49739697265625,0.1579855261925608,-0.0209302355989115,0.0706628512442111,0.0616909712553024,0.0979829281568527,-1.1220849752426147
5.507423828125,0.1744320724721998,-0.0564510600130073,0.0827151080876588,0.027078989893198,0.0921346321702003,-1.1064627170562744
5.517451904296875,0.247401374027878,-0.0451163905541179,0.0557435145318508,0.0007517784833908,0.0805059447884559,-1.0799951553344729
5.52747998046875,0.3437073467031121,-0.0026944769480964,0.0468202033638954,-0.0168728791177272,0.0605750083923339,-1.0610088109970093
5.537508056640625,0.4307704939324409,0.0381826754509354,0.0273211376458406,-0.0334649048745632,0.0372638255357742,-1.0557094812393188
5.54753564453125,0.4201794687479734,0.1201926788929849,0.0370019891828298,-0.0553544424474239,0.0090553807094693,-1.0715641975402832
5.55756396484375,0.4063842406947165,0.2445367966433055,0.131865215703845,-0.0719312876462936,-0.0063672517426311,-1.1069554090499878
5.567591796875,0.3462888876289129,0.3684999522520229,0.2079752264380455,-0.0769520252943039,-0.0020888587459921,-1.1566402912139893
5.5776201171875,0.2247672251544892,0.4929785283032804,0.2012953102827072,-0.0611136779189109,0.0084830913692712,-1.1987546682357788
5.587646728515625,0.1836000791162252,0.5712746874375269,0.2204506771296262,-0.0379467718303203,0.0161205921322107,-1.223151922225952
5.5976748046875,0.2464639470472931,0.6036756125656888,0.2545405782580375,-0.0188697520643472,0.0315464213490486,-1.2323297262191772
5.607702880859375,0.2968318329554051,0.6047944970604032,0.3134673990011215,-0.0143006276339292,0.042454183101654,-1.2379862070083618
5.61773095703125,0.2798220998350531,0.6109128338102251,0.3861018425792455,-0.0193182881921529,0.0459341332316398,-1.2492226362228394
5.627759033203125,0.2035669815417379,0.6369664357382804,0.4381061705827713,-0.034018263220787,0.0464440286159515,-1.2643061876296997
5.637786865234375,0.0992129461631178,0.6861940655700862,0.503033108523488,-0.0364569202065467,0.0564415380358696,-1.2799330949783323
5.64781494140625,0.0045006724201142,0.724697691487521,0.4731020806401967,-0.0302449092268943,0.0743418931961059,-1.2865947484970093
5.6578427734375,-0.0913129866935312,0.767567915116623,0.4098661645263433,-0.0183656122535467,0.1002118363976478,-1.2932854890823364
5.667869873046875,-0.1955505560856312,0.7859484981987624,0.3488923481255769,-0.0066009182482957,0.1318435817956924,-1.2968288660049438
5.67789794921875,-0.3172521051716059,0.7675545441783964,0.2250982106745243,0.0012285087723284,0.1671717464923858,-1.279856562614441
5.68792578125,-0.3339014805469661,0.703698596470058,0.0471457820564508,-0.0038246975746005,0.1941121816635131,-1.2424031496047974
5.697953857421875,-0.2355824875488877,0.6472301286645233,-0.0917231749296188,-0.0346523821353912,0.2026622593402862,-1.2049790620803833
5.707981689453125,-0.2126201296344399,0.5710932664560153,-0.1759551173210144,-0.0790134742856025,0.193465307354927,-1.1713117361068726
5.718010009765625,-0.2659160318184644,0.4970588198868557,-0.2863713022828102,-0.1209883540868759,0.1698827445507049,-1.1446574926376345
5.728037841796875,-0.3064130235102027,0.4516966698441654,-0.3991378497630357,-0.1416395008563995,0.1371660977602005,-1.1181942224502563
5.738066162109375,-0.3126274410456419,0.455213190065138,-0.560052049818635,-0.1471402645111084,0.0860448405146598,-1.0995057821273804
5.7480927734375,-0.3835536924663931,0.4800351678390055,-0.670270081859827,-0.1476618200540542,0.0414571054279804,-1.0830533504486084
5.75812109375,-0.3781841282572597,0.5153364540511742,-0.725675742739439,-0.1506895720958709,0.0034958771429955,-1.0796970129013062
5.76814892578125,-0.405225133787468,0.5634025292903184,-0.7051485030174255,-0.1554541289806366,-0.0063504055142402,-1.1008756160736084
5.778177001953125,-0.4915658850263804,0.6077023473311215,-0.6492477520972489,-0.156616061925888,0.0173543915152549,-1.1460776329040527
5.788204833984375,-0.6389199809588492,0.6064496073236688,-0.6609381898909806,-0.1543135493993759,0.0666598677635192,-1.1962003707885742
5.798232666015625,-0.7177780482921748,0.5932790870400145,-0.7193208207547664,-0.1546389907598495,0.1112752705812454,-1.2355307340621948
5.808260986328125,-0.658299511950463,0.5753555270103737,-0.7970558023422956,-0.1624648123979568,0.1211166307330131,-1.2552422285079956
5.818288818359375,-0.5292650626931339,0.5125190220102668,-0.872322932511568,-0.1719270199537277,0.0993625968694686,-1.265201449394226
5.82831591796875,-0.3923362799894064,0.3660026920761913,-1.0058195488095285,-0.1712602227926254,0.0518739633262157,-1.2621471881866455
5.83834375,-0.2282812246248126,0.1354287168717011,-1.1324158841997385,-0.1701970845460891,-0.0286419186741113,-1.2444273233413696
5.848371826171875,0.0854553467065095,-0.1047580587354023,-1.1586971574038267,-0.1818642914295196,-0.129654660820961,-1.1981276273727417
5.85839990234375,0.4675284452263266,-0.2744871320152655,-1.0087287142544985,-0.2022665143013,-0.1949338018894195,-1.147825837135315
5.868427978515625,0.7587371045377105,-0.4233574411969631,-0.7742623712539672,-0.2317475974559784,-0.2003585547208786,-1.1006160974502563
5.8784560546875,0.8968191489297896,-0.497847376448661,-0.5079629661411047,-0.2732244431972503,-0.1665185689926147,-1.051098346710205
5.88848388671875,1.0222077159654348,-0.4597699765866622,-0.1382604696989059,-0.3277196288108825,-0.1329566091299057,-0.994380533695221
5.89851171875,1.268699062476307,-0.4211894860407337,0.2428483868986368,-0.382304310798645,-0.1096238568425178,-0.948794424533844
5.908538818359375,1.4327660274744034,-0.3967036814186722,0.5647755712091922,-0.4084918200969696,-0.0946496650576591,-0.9322679042816162
5.918567138671875,1.4162158746898172,-0.3055505614619702,0.7490250541448593,-0.3968570232391357,-0.0494603514671325,-0.9631294012069702
5.9285947265625,1.1834350736234336,-0.1068312848128844,0.8069400674968957,-0.3584417700767517,0.0381065011024475,-1.031518578529358
5.938622802734375,0.7689432951230555,0.1420060677017085,0.7571966701626777,-0.298381894826889,0.1303309649229049,-1.1266469955444336
5.94865087890625,0.4517218773506581,0.2946724446981213,0.6336053618073463,-0.2462507784366607,0.2032196372747421,-1.230289101600647
5.958678955078125,0.2610284789726138,0.3792262942539527,0.5372212093293667,-0.2065062969923019,0.2541525959968567,-1.3237996101379397
5.96870703125,0.1479031081173568,0.3141853745447471,0.4174842383146285,-0.1687752902507782,0.2669090032577514,-1.3889602422714231
5.97873486328125,0.1985626704484224,0.0782297337013762,0.1727396624058484,-0.1325642764568328,0.2509079575538635,-1.4172313213348389
5.9887626953125,0.3385396617416292,-0.1562989613451063,-0.0340460619866848,-0.1158197298645973,0.2293671667575836,-1.416824460029602
5.9987900390625,0.4176401595287025,-0.347076677005738,-0.2114361805468797,-0.1012466475367546,0.2012836039066314,-1.3882763385772705
6.00881787109375,0.4371258543085307,-0.5356301042130217,-0.3681985216200351,-0.0953515321016311,0.1574430912733078,-1.3305842876434326
6.018845703125,0.4954770671207457,-0.7358832484990357,-0.4312351157695054,-0.0973907187581062,0.1139014661312103,-1.2601889371871948
6.028873779296875,0.4928814976695925,-0.7856307374864816,-0.4205471330165863,-0.0993987619876861,0.0771431177854538,-1.1890041828155518
6.03890185546875,0.3530075283594429,-0.8065209653019905,-0.379189286711812,-0.0931986570358276,0.0401592664420604,-1.114284873008728
6.048929931640625,0.3006912848625332,-0.843323559455201,-0.3360276058554649,-0.0907302796840667,0.0038146171718835,-1.0290158987045288
6.058957763671875,0.3484245844833553,-0.8450447572246194,-0.203197929033637,-0.0927028805017471,-0.0238649472594261,-0.9344061017036438
6.068986083984375,0.4267744830988347,-0.8584862764693796,0.0045084173351526,-0.1072684526443481,-0.0545877665281295,-0.8345590829849243
6.0790126953125,0.5743384954549372,-0.8784954106014221,0.2385375379621982,-0.1344294995069503,-0.0899835750460624,-0.7389103174209595
6.089041015625,0.7717937161181122,-0.8567702663317323,0.5325508794307708,-0.1621001362800598,-0.1144109815359115,-0.6636003255844116
6.09906884765625,0.8645149621743708,-0.745025901506096,0.7861655750155448,-0.1696233004331588,-0.1143489256501197,-0.6206827163696289
6.10909716796875,0.8011717862937598,-0.508493017897196,0.9783248081624508,-0.1651719659566879,-0.0974087342619896,-0.5993247628211975
6.119124755859375,0.7211101883895695,-0.1944138984722085,1.109898931965232,-0.1393209248781204,-0.0726860761642456,-0.5930077433586121
6.12915283203125,0.7145652967907488,0.0325771767442114,1.2170657597422598,-0.1134453862905502,-0.0403491742908954,-0.5989492535591125
6.139180908203125,0.7345712160523981,0.2151080374600365,1.3239847502380608,-0.0981314107775688,0.0006419350393116,-0.608485996723175
6.149208984375,0.7510715383458882,0.3894667889676987,1.4414882631123065,-0.0981334149837493,0.0509172603487968,-0.6208135485649109
6.159236083984375,0.8219285969879477,0.5349679870424792,1.5366922658950088,-0.1055399253964424,0.1037277430295944,-0.6337296366691589
6.169263671875,0.8860615350067615,0.6208114928163587,1.536673561194539,-0.1220688298344612,0.149991288781166,-0.6489848494529724
6.1792919921875,0.9287859204243868,0.6922917248580605,1.5029852266043424,-0.1406891345977783,0.1868837922811508,-0.6640785932540894
6.18931982421875,0.9769293352160602,0.8036488439317793,1.400225693875551,-0.1437170654535293,0.2120769470930099,-0.6925473213195801
6.199347900390625,0.9495641392327844,0.8727205535270273,1.1633026053726672,-0.1227473244071006,0.2098063230514526,-0.7247164249420166
6.2093759765625,0.8866815666012465,0.962381242968887,0.9007599224448204,-0.0877216160297393,0.2045975923538208,-0.7586847543716431
6.21940380859375,0.8367703384194523,1.0815984278932214,0.6627309185266494,-0.0495523996651172,0.1898764371871948,-0.8031781911849976
6.229431884765625,0.6624895109862089,1.1792227896906435,0.4731155246436596,-0.0153329502791166,0.1731529235839843,-0.8502737283706665
6.239458740234375,0.5390569733891636,1.1649325446620582,0.3150508688002824,-0.0033457961399108,0.1349456161260604,-0.8865358829498291
6.249487060546875,0.5654919758502394,1.1303010840028525,0.1979290487200021,-0.0116730881854891,0.0824645310640335,-0.902352809906006
6.2595146484375,0.6163491796452552,1.036985890641436,0.1034299793362617,-0.0268443189561367,0.0284883826971054,-0.8930552005767822
6.269542724609375,0.6627447278562932,0.8681329334758222,-0.0119996498733758,-0.0407215394079685,-0.024789024144411,-0.861057460308075
6.27957080078125,0.7024551722802221,0.7264405896320939,-0.1046335099071264,-0.0525544956326484,-0.0713706389069557,-0.7994036674499512
6.289598876953125,0.7819166123341769,0.6531001166764646,-0.1959960348308086,-0.0648138299584388,-0.1200764626264572,-0.7174216508865356
6.299626953125,0.8685944135077297,0.5651093332082033,-0.2009843446373939,-0.0890834778547287,-0.1664740592241287,-0.6203563809394836
6.309655029296875,0.9405194667074828,0.494606239102967,-0.1191372515559196,-0.1228652745485305,-0.2004326581954956,-0.5221589803695679
6.319681884765625,0.984396821552515,0.478326025833562,0.0615688596844673,-0.1590882539749145,-0.2226053327322006,-0.4426143169403076
6.3297099609375,0.9496863773729652,0.5390245689569041,0.2463841598093509,-0.1827387362718582,-0.2210259586572647,-0.3855849206447601
6.339738037109375,0.8237601963292807,0.6559518528457731,0.4065443266272545,-0.1883300393819809,-0.1912262588739395,-0.3419996201992035
6.349765869140625,0.7306736971572041,0.7680360440850258,0.4565186101078987,-0.1762503236532211,-0.1520950496196746,-0.2995639145374298
6.359793701171875,0.7265356475044041,0.8977804682426154,0.5046107331037522,-0.1717847287654876,-0.103044144809246,-0.2634349465370178
6.36982177734375,0.7414015735290944,1.007101113052666,0.5695581293106079,-0.1713888645172119,-0.0577886141836643,-0.239979475736618
6.379849853515625,0.6798426507167518,1.0244318948209286,0.5688496887803077,-0.1713566482067108,-0.0195916946977376,-0.2251731008291244
6.3898779296875,0.63124162835069,1.0415288678333163,0.5334674097537994,-0.1646044552326202,0.0241620317101478,-0.2085850238800048
6.399906005859375,0.5963759205441922,1.070767967929691,0.4178232610106468,-0.1446837484836578,0.05955171585083,-0.1930593252182006
6.409932861328125,0.5656669670909643,1.1063728036656977,0.206659467664361,-0.1283897459506988,0.0713150948286056,-0.1865133643150329
6.419960693359375,0.519661587241292,1.1428165744438767,0.0717290191709995,-0.1229337379336357,0.0703611522912979,-0.1975500434637069
6.42998876953125,0.4288836572725326,1.1428414166241885,-0.0548521186500787,-0.1273241490125656,0.0688104778528213,-0.2208420634269714
6.440016845703125,0.2768307359993457,1.087358379659429,-0.1741547899007797,-0.1490044146776199,0.0775890573859214,-0.2364468574523925
6.450044921875,0.1878939769178629,1.0885757195599377,-0.2499403909862041,-0.1733113825321197,0.0831575840711593,-0.2388315349817276
6.46007275390625,0.1811387305039912,1.0398176069360223,-0.3493722405970096,-0.1895326972007751,0.0706678926944732,-0.2321206331253051
6.470100830078125,0.1480854789469391,0.9451198731750248,-0.5141320101648569,-0.1930624693632125,0.0444986075162887,-0.2204544991254806
6.480128662109375,0.1618058881983161,0.8984547873076051,-0.6935287923723459,-0.1815493553876876,0.0139705259352922,-0.2240577638149261
6.490156005859375,0.0237513163350522,0.9067369510278104,-0.8770715883433818,-0.1527574360370636,0.0060585252940654,-0.2439698129892349
6.50018359375,-0.2043636848773807,0.937985710446164,-1.0392471866369246,-0.1224256232380867,0.0117305256426334,-0.2800937592983246
6.5102119140625,-0.3973299966234713,0.9247842105023564,-1.135865147870779,-0.10121401399374,0.0175075400620698,-0.3251973390579223
6.52023974609375,-0.5013972509499639,0.832096720585227,-1.171499355831742,-0.0875858217477798,0.0117465909570455,-0.362993448972702
6.530267822265625,-0.512886467083171,0.6827567845977842,-1.2436913163393737,-0.0804917588829994,-0.0049820700660347,-0.3846848905086517
6.5402958984375,-0.4607064902517944,0.5355602903798222,-1.2757149325877428,-0.0853160694241523,-0.0411456674337387,-0.3898831009864807
6.550323486328125,-0.3337576881621032,0.3853061256242915,-1.3024760982632635,-0.095766544342041,-0.0950250029563903,-0.3746605515480041
6.560351806640625,-0.1970418906219303,0.1662567301273345,-1.272128306272626,-0.1124349981546402,-0.1726574897766113,-0.3421095311641693
6.57037890625,-0.0554606790024787,-0.0376787559332326,-1.1633616420835255,-0.1372393071651458,-0.2588885426521301,-0.2852021753787994
6.580406982421875,0.1517187939479947,-0.1842532457953319,-0.9789373871028424,-0.1584713608026504,-0.3390675485134125,-0.2218351811170578
6.5904345703125,0.3298173530384898,-0.2589941966660321,-0.6780646812587976,-0.1705398708581924,-0.3901131749153137,-0.166069895029068
6.600462890625,0.3366886270474642,-0.2232516329597681,-0.4239952276438474,-0.1661363244056701,-0.3851775527000427,-0.1238864883780479
6.61049072265625,0.3446441891618073,-0.1411190374678,-0.1485673441797494,-0.1418647170066833,-0.3235920667648315,-0.0918420925736427
6.620518798828125,0.300444470494613,-0.0242019827120006,0.0934054289281368,-0.1197434365749359,-0.2361471652984619,-0.0658341944217681
6.630546875,0.2796826913643628,0.0825055935228243,0.3516723342329264,-0.1112404465675354,-0.1378831565380096,-0.0449655279517173
6.640574951171875,0.2904447622667997,0.1465567350097,0.5409177257597446,-0.1103869080543518,-0.0547342076897621,-0.0310052372515201
6.650601806640625,0.3501473896879702,0.0851919465299695,0.6292115107625722,-0.1196091026067733,-0.0098398867994546,-0.0156745165586471
6.660629638671875,0.4865262834239751,-0.0534899634514004,0.6414847168803215,-0.1286287009716034,0.0125114917755126,0.0055934875272214
6.670657958984375,0.5945277353942394,-0.1615922454476356,0.6275578983366489,-0.1258284300565719,0.0264368802309036,0.0235638208687305
6.680685791015625,0.6092180125910789,-0.2497786245532333,0.5479214670419693,-0.10561503469944,0.0206700712442398,0.0283601749688386
6.6907138671875,0.5476880236122756,-0.2736090705391019,0.4552542892605066,-0.0783983692526817,0.0042085945606231,0.0246848501265048
6.70074169921875,0.5159866981208324,-0.2173694430533796,0.4306564390987157,-0.0578201226890087,0.0151957320049405,0.0204213950783014
6.710769775390625,0.4172038139380514,-0.1906699444372206,0.4808627777695655,-0.0346440561115741,0.0290058553218841,0.0117964455857872
6.7207978515625,0.2274144517276436,-0.218734374731034,0.5771124902129173,0.0055683460086584,0.0517801418900489,-0.0135941328480839
6.730824462890625,-0.0030743659440428,-0.2359396304234862,0.5651701234847307,0.057229459285736,0.0781185626983642,-0.0575705021619796
6.740852783203125,-0.2412731004059314,-0.1635666142605245,0.4504501038491725,0.1011369973421096,0.1093598380684852,-0.0987831875681877
6.750880615234375,-0.3724770757220685,-0.0938008579865097,0.4465414059728383,0.1316461861133575,0.1361430436372757,-0.1221163794398307
6.760908935546875,-0.4161309240095317,-0.147914579359442,0.439468106585741,0.1525890231132507,0.1624774485826492,-0.1276629418134689
6.770936767578125,-0.4128999061990529,-0.3544667141918092,0.3775982181280851,0.1625362038612365,0.1763404160737991,-0.1168990209698677
6.78096484375,-0.4407532510254532,-0.5287876544397324,0.3023077070832252,0.1626086384057998,0.1788517832756042,-0.0943740084767341
6.79099267578125,-0.4741452330175787,-0.6401477691881359,0.255250187832117,0.1620992124080658,0.1810148656368255,-0.0641724988818168
6.801020751953125,-0.5195516240607947,-0.7561125281877815,0.1569791986942291,0.1684023886919021,0.1785908639430999,-0.0367912016808986
6.8110478515625,-0.5858100298009813,-0.8254882622309029,0.0733820470750331,0.1674526184797287,0.1514062881469726,-0.0169531274586915
6.821075927734375,-0.6043598319701851,-0.8733592167567461,0.0153127199441194,0.1582569926977157,0.133600652217865,0.0062770936638116
6.831103759765625,-0.5842928301710635,-0.867216549283266,0.0101110596477985,0.1539556980133056,0.1084610745310783,0.0419974699616432
6.8411318359375,-0.5625668091185391,-0.7705546027772128,-0.0376274276047945,0.1583504378795623,0.0731907039880752,0.0772718340158462
6.85115966796875,-0.3957626011762767,-0.707620080762729,0.0524608395993709,0.1597489118576049,0.0436111837625503,0.1067233607172966
6.86118798828125,-0.2593833421140909,-0.6777412945233285,0.0855406869024038,0.1551618874073028,0.0200832206755876,0.1253665536642074
6.8712158203125,-0.2125422420926392,-0.5415469270413741,0.3022989392548799,0.1376822143793106,0.0116758905351161,0.1341202557086944
6.881244140625,-0.1908632750522345,-0.3977785075759515,0.5259475356429815,0.1196448877453804,0.0107797365635633,0.130902886390686
6.891271728515625,-0.1403255124699324,-0.2655989652259275,0.6714514005988836,0.1009543538093566,0.0267278254032135,0.1177716255187988
6.901298828125,-0.1442703045729547,-0.1549052419643849,0.8151192822992801,0.0897075533866882,0.0489393845200538,0.1045911163091659
6.911326904296875,-0.0934080592766404,-0.031933782540448,0.8964344604611396,0.0912487655878067,0.0756598934531211,0.0962417349219322
6.921354736328125,-0.0450217756398022,0.0679836951628327,0.921876360231638,0.1010942086577415,0.1020704582333564,0.0879595652222633
6.9313828125,-0.0118516927700489,0.1465474922573194,0.9249526989370584,0.1041941791772842,0.1246524080634117,0.0814737156033515
6.94141064453125,0.0042108226280659,0.2621983264695853,0.9136930537760256,0.1035156100988388,0.1465371996164322,0.0594930499792099
6.95143896484375,-0.0368758785851299,0.3871787510957569,0.9566291091829536,0.0979801267385482,0.175935611128807,0.0193518698215484
6.961466796875,-0.1669952735349535,0.4969949974030256,0.9729852007001638,0.087601251900196,0.2113284915685653,-0.0285051353275775
6.971494873046875,-0.3070907766412943,0.6310089155733585,0.963396703621745,0.0869942680001258,0.2508434057235718,-0.0774279236793518
6.981521728515625,-0.4150576687548309,0.7484447700388729,0.8824877681732177,0.0932676047086715,0.2753500938415527,-0.1266913414001464
6.9915498046875,-0.5139687824271619,0.7845914575666189,0.7609481316506862,0.1006557047367096,0.2843476831912994,-0.1647939085960388
7.001577880859375,-0.5537488580211997,0.7310466221228241,0.6110837333977223,0.1057801619172096,0.2778929769992828,-0.1815268099308014
7.011605712890625,-0.493989678107202,0.6455547427982091,0.4682224919050932,0.0995371118187904,0.2613759040832519,-0.1745024174451828
7.021634033203125,-0.4113724774360656,0.5697056480225176,0.395125691512227,0.0728314667940139,0.2393832504749298,-0.1518815159797668
7.03166162109375,-0.3568286210175603,0.4704503240223974,0.3763075937956571,0.0237353555858135,0.2140404284000396,-0.1264840364456176
7.041689697265625,-0.3518038516581058,0.4276869948338717,0.3816618143051862,-0.026696391403675,0.1908384412527084,-0.1125162988901138
7.0517177734375,-0.4350580350585281,0.4247817018464207,0.4010761243492364,-0.0676159858703613,0.1748429387807846,-0.1092275381088256
7.0617451171875,-0.5097346885213628,0.4748748989989981,0.3638175300568342,-0.083973117172718,0.1518854200839996,-0.112467274069786
7.071772705078125,-0.5493334527317434,0.5951627453621476,0.314167656224966,-0.0854399874806404,0.1525935679674148,-0.1203630119562149
7.08180078125,-0.5433073608426376,0.6864619227260351,0.2196341000497341,-0.0755926817655563,0.1527232527732849,-0.1405811905860901
7.091828857421875,-0.5774014632221312,0.7544866805516183,0.1751964079082012,-0.0872663408517837,0.0571167021989822,-0.1834184825420379
7.101856689453125,-0.4956127127317711,0.7450446062065661,0.2609977915734052,-0.0780443474650383,0.1208277717232704,-0.2403515428304672
7.111885009765625,-0.6875526405721902,0.7349405608214438,0.012562544453144,-0.0729410722851753,0.1193314343690872,-0.2755888402462005
7.12191259765625,-0.9167365131251514,0.846990265269205,0.0772188487589359,-0.0596628151834011,0.1037932261824607,-0.3088120222091675
7.131940673828125,-0.5748140770774335,0.7476812383204698,0.0664513710290193,-0.0486685782670974,0.1325576156377792,-0.3209705948829651
7.1419677734375,-0.5755974094748497,0.5794761506043374,-0.1184323181569576,-0.0425832532346248,0.1366096138954162,-0.3261784315109253
7.151995849609375,-0.5410408406827598,0.4797098083421587,-0.0500029250532388,-0.0508425571024417,0.189548060297966,-0.3162388801574707
7.16202392578125,-0.6244248610079288,0.4747235078295692,-0.1958522424459457,-0.0645732805132865,0.2174393385648727,-0.3039702177047729
7.1720517578125,-0.5902954315867275,0.5387224807377904,-0.2531400638103485,-0.072471335530281,0.2163488566875457,-0.2973471283912658
7.182079833984375,-0.5420930896820501,0.476230295663327,-0.3337280967414379,-0.0753787085413932,0.2006516456604004,-0.3087057769298553
7.19210791015625,-0.543467227579467,0.4302591834094375,-0.4648533077329397,-0.0658251792192459,0.1800687313079834,-0.313834547996521
7.2021357421875,-0.5498308077946304,0.4444612386979162,-0.5419114129722118,-0.0590255931019783,0.1555181145668029,-0.3050719499588012
7.2121640625,-0.4921147876134142,0.4744154282610863,-0.5212047250300645,-0.0609305948019027,0.1390438675880432,-0.2950791716575622
7.222190673828125,-0.449054959696345,0.4925777654826641,-0.4303974959015846,-0.0703395381569862,0.1426417976617813,-0.2933805882930755
7.23221875,-0.4977736170927062,0.5584199185721576,-0.3480740174800157,-0.0743627697229385,0.1949972808361053,-0.3159623742103576
7.242246826171875,-0.6531830457195639,0.6530081275440752,-0.3994569987148046,-0.0606717318296432,0.2654136717319488,-0.3629080355167389
7.25227490234375,-0.8616631529398262,0.7610848367076367,-0.6138596278518438,-0.043515421450138,0.3286781013011932,-0.422153115272522
7.262302734375,-1.0352635238282382,0.8762162136230617,-0.8481833475112914,-0.0304890982806682,0.3621055781841278,-0.4789218604564667
7.27233056640625,-1.1054248552910984,0.898507102016732,-1.135841182473302,-0.0336523428559303,0.3491504490375519,-0.5208848118782043
7.28235888671875,-1.07616442014575,0.8292002684913575,-1.3530997855633498,-0.0445971339941024,0.2961252927780151,-0.5380331873893738
7.29238671875,-0.966254138879478,0.6269328983061015,-1.5850246273875237,-0.0666163340210914,0.2121828198432922,-0.528340220451355
7.3024150390625,-0.7521130832880735,0.3630632045581937,-1.7362018618047237,-0.0929936096072197,0.0971840620040893,-0.4838398993015289
7.312441650390625,-0.4719742821866646,0.1596656612992286,-1.6652175235211848,-0.1113620921969413,-0.0264068804681301,-0.4203194677829742
7.3224697265625,-0.2835517878826707,-0.0382849051328375,-1.5743629481196402,-0.1210346966981887,-0.1685259342193603,-0.3472076952457428
7.332497802734375,-0.0929066490931436,-0.2057165607910603,-1.3160960428148507,-0.1224288642406463,-0.2786226868629455,-0.283275842666626
7.342526123046875,0.0350911688591353,-0.2200121395818889,-0.8948252716988324,-0.1166950687766075,-0.3237864375114441,-0.2480033338069915
7.352554443359375,-0.0025157456805929,-0.2017577036300674,-0.4937888948380947,-0.120687261223793,-0.3596563041210174,-0.2424694150686264
7.36258203125,-0.072606021201238,-0.19176559418682,0.0148234751224517,-0.13678739964962,-0.2741877436637878,-0.2619243562221527
7.372610107421875,-0.0558434312423691,-0.2036351148745045,0.394135511431098,-0.1507177352905273,-0.1811990588903427,-0.2784858047962188
7.38263818359375,-0.2184614760737866,-0.1984640323795378,0.6252554666131734,-0.1632439196109771,-0.0932366997003555,-0.2727943658828735
7.392665283203125,-0.1387175658166408,-0.2483827132154256,0.83457158626616,-0.1740310043096542,0.020173754543066,-0.2455594092607498
7.402693359375,0.1525352979626506,-0.4676821014180779,0.7560369787335396,-0.1958960890769958,0.0538696646690368,-0.1750154644250869
7.412720947265625,0.174938852950558,-0.6434986139860004,0.7522790875047445,-0.1628598272800445,0.0195897947996854,-0.07273880392313
7.422749267578125,0.560873083877936,-0.8727503641434013,0.7433154443264007,-0.0599768497049808,-0.0427963510155677,0.0780288651585578
7.432777099609375,0.8737396674416958,-1.0721481702417135,0.5112766207337379,0.0218129213899374,-0.0397380925714969,0.1969958990812301
7.442805419921875,0.8896104596599936,-1.0445738615524025,0.3322989407211542,0.0219607260078191,-0.0590710416436195,0.2334407269954681
7.452833251953125,0.7087770687781274,-1.0070878151796758,0.7710708817362785,-0.039138063788414,-0.0585310235619545,0.2002110332250595
7.462861083984375,0.4006450394555926,-0.9038174103192984,1.2850918327420948,-0.1066169738769531,-0.0074353460222482,0.1108433455228805
7.47288818359375,0.0105498894564807,-0.6286113529123365,1.415811385542154,-0.1363425254821777,0.060622364282608,0.0106535833328962
7.482916015625,-0.1620575614044442,-0.3921734906431287,1.2788584913104772,-0.1203859224915504,0.125103622674942,-0.0814776793122291
7.4929443359375,-0.1299631814748048,-0.2497487408716231,1.0154776039928195,-0.0703075751662254,0.2092776894569397,-0.1611312478780746
7.502971923828125,-0.1096801988374441,-0.1667156528759747,0.7316916420280933,-0.0225975811481475,0.278997927904129,-0.2388020604848861
7.513000244140625,-0.1990681357525289,-0.1321526543430984,0.5388011719971895,0.0124624790623784,0.3041821122169494,-0.2949102520942688
7.523028076171875,-0.2010439110712148,-0.1767817043382674,0.4252566258817911,0.0585173219442367,0.3009562194347381,-0.287272572517395
7.53305615234375,-0.0359020103179849,-0.2476192545622587,0.2073579713225364,0.1293365806341171,0.2697512209415436,-0.2351760864257812
7.543084228515625,0.168096129182633,-0.3459820501694455,-0.1280032795786857,0.2072833180427551,0.2233435064554214,-0.159503161907196
