seconds_elapsed,ax,ay,az,gx,gy,gz
0.0664228515625,-0.1648537314616143,0.2651747849971055,0.2118207959502935,-0.0353219769895076,0.6143609285354614,0.1658869981765747
0.07645068359375,-0.0557649226460605,0.0962291080467402,0.2034744078874588,-0.1275153011083603,0.6758884787559509,0.2083838582038879
0.086478759765625,0.0701001758601516,0.0394428064636886,0.249927531504631,-0.1707510203123092,0.747422993183136,0.2626860439777374
0.0965068359375,0.188756292835623,0.0031849136464297,0.1303390290498733,-0.165482759475708,0.8224394917488098,0.3338241279125213
0.10653466796875,0.2576619251489639,-0.0432717171020805,-0.0025473463952541,-0.1614910215139389,0.8664345741271973,0.4103438258171081
0.116561767578125,0.1819078151803463,-0.0258738614469766,0.0076665891051292,-0.143620952963829,0.8423345685005188,0.4896011054515838
0.126589599609375,0.0429749991778284,-0.0397910353794693,0.0760030432283878,-0.0733724609017372,0.7933637499809265,0.5509570240974426
0.136617919921875,-0.0903153904909268,-0.0607820932209491,0.0286760593861341,0.0033931552898138,0.7526916861534119,0.5788203477859497
0.146645751953125,-0.1840191813111305,-0.050044572237879,0.0963701239526271,0.0514947511255741,0.7549762725830078,0.5725141763687134
0.156673828125,-0.3610631898473948,0.0021777824304997,0.2785749493181705,0.0306081101298332,0.7479993104934692,0.5207160115242004
0.16670068359375,-0.6073678912123665,0.1269631228759885,0.53352235481143,-0.0622724145650863,0.7201944589614868,0.4410307109355926
0.17672900390625,-0.7861991850242018,0.130389882454276,0.8036994781404733,-0.1796123683452606,0.6623867750167847,0.3506456911563873
0.1867568359375,-0.7547893898252397,0.0470728629507124,0.8904811050146818,-0.2872035503387451,0.5985981822013855,0.256671667098999
0.196784423828125,-0.7163586099483072,-0.0467808942668139,0.5732417862594127,-0.3300159871578216,0.4879401326179504,0.1642940789461136
0.206812744140625,-0.656337198901549,-0.0736662708438932,0.177078568392992,-0.2763573229312897,0.3560267686843872,0.09333336353302
0.216840087890625,-0.4953380239762365,-0.0406137499392032,-0.2513794838786125,-0.1461377888917923,0.2506636083126068,0.0646106377243995
0.2268681640625,-0.3729184628140181,0.0116442605644464,-0.6539952388852834,-0.0072911046445369,0.1590479612350464,0.0684247910976409
0.236896240234375,-0.3025227380733937,0.1272099372439086,-0.65622109824121,0.1157876849174499,0.0757802426815033,0.0802146047353744
0.246924072265625,-0.3029204504203982,0.2555228672936558,-0.4764835397720336,0.2031912952661514,0.016478719189763,0.0990675687789917
0.2569521484375,-0.3332118543149903,0.2923334255576134,-0.3200046918153763,0.2039090245962143,-0.0210390947759151,0.1055526360869407
0.266979248046875,-0.2926113109172322,0.2868555786684155,0.0480097054094076,0.1231566071510315,-0.0540227442979812,0.0986221134662628
0.277007080078125,-0.1443052845547907,0.267703865083307,0.3830570680558681,-0.0001064739190042,-0.1028113216161727,0.0884014368057251
0.287034912109375,-0.0390044013466918,0.2453935413368046,0.6604197189748287,-0.1248184144496917,-0.1799399852752685,0.092534527182579
0.29706298828125,0.1230702618896029,0.2508392395220696,0.8724784153342247,-0.2373433709144592,-0.2502125203609466,0.1260658502578735
0.307091064453125,0.3515625537155196,0.2902662638947367,0.9089894061297178,-0.3095893263816833,-0.2929921150207519,0.1887224018573761
0.3171181640625,0.513874199478887,0.4232293578378855,0.901053352433443,-0.3359671533107757,-0.3016766607761383,0.2769483923912048
0.32714599609375,0.5006639682393521,0.5943725448325275,0.8196995958268642,-0.3575814366340637,-0.3094360828399658,0.3747050762176513
0.337174072265625,0.2840385119536891,0.8204409157134592,0.9573287818849088,-0.352367490530014,-0.3102395534515381,0.4683895111083984
0.3472021484375,0.122110276017338,1.0011763261135669,1.1793395479381084,-0.3156556189060211,-0.2641160786151886,0.5668649077415466
0.35722998046875,-0.071057531383913,1.2479608103521167,1.0340887809604409,-0.2514971196651459,-0.1843301802873611,0.6273970007896423
0.367257080078125,-0.33464031621553,1.4745079046607017,0.8044704625129699,-0.1797582060098648,-0.0914087519049644,0.6307448148727417
0.37728515625,-0.5208183560609817,1.4517187113560734,0.654941579824686,-0.1237942725419998,-0.017530532553792,0.6035313010215759
0.38731298828125,-0.4470131151378154,1.3229812722839414,0.6016232466131448,-0.0870962738990783,0.0689644888043403,0.5921069979667664
0.397341064453125,-0.2844533946312032,1.3040917167663573,0.441961676967144,-0.0494556836783885,0.2270848900079727,0.5779014229774475
0.407369140625,-0.2643687475775368,1.3880584323503076,0.0261462486475706,-0.0334504581987857,0.42340749502182,0.5305958986282349
0.41739599609375,-0.574680148499459,1.4430153265491128,-0.2994967413157224,-0.0671849846839904,0.5637496709823608,0.4352760016918182
0.427424072265625,-1.0797291268900036,1.40123940096274,-0.2599170105993748,-0.1457040458917617,0.5863457322120667,0.2984969019889831
0.4374521484375,-1.4640337107889354,1.3116919626370072,-0.1996498811632394,-0.2082212120294571,0.5143383741378784,0.1532598435878753
0.447480224609375,-1.673656558303535,1.1542935886826369,-0.4617746309399604,-0.2011835426092147,0.4259699583053589,0.0239088684320449
0.45750830078125,-1.678574433222413,1.0454865194179117,-0.8555196817487478,-0.1348287612199783,0.3578923642635345,-0.0911332964897155
0.46753515625,-1.5640978669539094,0.9784233731660992,-1.2005927638471126,-0.0165878199040889,0.2989155650138855,-0.1895387023687362
0.47756298828125,-1.438164671647549,0.9640561173785476,-1.332856623479724,0.1259094029664993,0.2230104058980941,-0.2752775549888611
0.487591064453125,-1.3129985151909291,0.9462487310744822,-1.3107961828410624,0.2692064642906189,0.1368077248334884,-0.3362016677856445
0.497619140625,-1.2194448368985205,0.882956773924455,-1.2029039633989334,0.3722239136695862,0.0298226792365312,-0.3792897462844848
0.507647216796875,-1.1416923196543007,0.7807150545246899,-0.8466489775508642,0.3967921435832977,-0.0572491660714149,-0.4054769873619079
0.517674072265625,-1.046935037725791,0.705966614467278,-0.3537345274597406,0.3512254655361175,-0.1072923615574836,-0.4018377959728241
0.5277021484375,-0.9363655618984252,0.717893126039207,0.0488391419708728,0.276785671710968,-0.1341766715049743,-0.379462718963623
0.537730224609375,-0.910171309390664,0.6741909085653722,0.2816577177643776,0.2044864296913147,-0.1444793790578842,-0.3472515046596527
0.547758056640625,-0.9363433500666172,0.6557942511312663,0.3454009988784789,0.1450137794017791,-0.1456725895404815,-0.3069548010826111
0.5577861328125,-0.9543759964939206,0.6211832487381994,0.394021529662609,0.1040178760886192,-0.1343480348587036,-0.2720298171043396
0.56781298828125,-1.0970121970590203,0.6306858210988342,0.4367226072698831,0.0804722160100936,-0.0947106182575225,-0.2422181069850921
0.57784130859375,-1.231146015281975,0.6421658310122788,0.470399251422286,0.0587695799767971,-0.0361921787261962,-0.2261089086532592
0.587869140625,-1.341190005930513,0.7445572610810398,0.5846306107580661,0.0246885120868682,0.0511013455688953,-0.2186451107263565
0.59789697265625,-1.3551587639197706,0.8010491097621619,0.6634352674037217,-0.017680250108242,0.1358242183923721,-0.2193087637424469
0.607925048828125,-1.39755603627488,0.7715390837699174,0.7127239067077636,-0.0425558164715766,0.2395967096090316,-0.2234917730093002
0.617953125,-1.4068221695311367,0.7919657857269048,0.5960550910919904,-0.0329838842153549,0.2510128617286682,-0.2100566625595092
0.627980224609375,-1.1431789780154824,0.7640604184523224,0.3770148652821779,0.00104177207686,0.1904222220182418,-0.1560842543840408
0.638008056640625,-0.7938787797413766,0.6534471034832299,0.1471662452101707,0.0694016516208648,0.1107412427663803,-0.0743840709328651
0.6480361328125,-0.5259761406829581,0.5437167088285089,-0.2103676745325327,0.1292277425527572,0.0607089027762413,0.0302250646054744
0.65806396484375,-0.2423370398430153,0.5684969298198819,-0.3873836990833282,0.1581581830978393,0.031041556969285,0.1403539627790451
0.668092041015625,-0.2669995527388528,0.6992952469445765,-0.2435831309139728,0.1262897849082946,0.0425695218145847,0.1992296874523162
0.678119140625,-0.6124987878274172,0.8170239468768239,-0.0341571211457252,0.0524629615247249,0.0613189749419689,0.2000691145658493
0.68814697265625,-1.0116887331038713,0.894252586377412,0.1900169604212045,-0.0201340150088071,0.0725179463624954,0.1641375720500946
0.698175048828125,-1.1815930259533225,0.8644244343467056,0.1746644929885864,-0.0705074369907379,0.096999317407608,0.1203639954328537
0.708203125,-1.1722259896058589,0.8557577282883226,0.0247930804729461,-0.09999381005764,0.1325248479843139,0.0788880512118339
0.718231201171875,-1.115729683945328,0.835599175748229,-0.1088064116775989,-0.1155677065253257,0.1220772713422775,0.0428706631064415
0.7282578125,-1.111840129160881,0.700515728650242,-0.2353232520908117,-0.1206649094820022,0.0284361392259597,0.0019503475632518
0.7382861328125,-1.142116755611449,0.5540320588767528,-0.3009329115986824,-0.117120511829853,-0.0520006492733955,-0.0427116602659225
0.74831396484375,-1.0132162349320948,0.5293589515216648,-0.3837012111783027,-0.0936017706990242,-0.0943180322647094,-0.0734613388776779
0.75834228515625,-0.8322088757228105,0.5711579657226801,-0.559572741869092,-0.0586102269589901,-0.1389049440622329,-0.0837587192654609
0.7683701171875,-0.6144936149064452,0.5810784712344408,-0.6111199737548828,-0.0365690290927886,-0.2071769088506698,-0.0743093118071556
0.778397216796875,-0.3146802088569849,0.5445999214038253,-0.4904600426763296,-0.0492810942232608,-0.2614571750164032,-0.0601327717304229
0.788425048828125,-0.2139307555752806,0.5589112092204391,-0.321474764367938,-0.1092364639043808,-0.2980501651763916,-0.0604099594056606
0.798453125,-0.3287837356744333,0.6764443865805864,-0.0497445663779973,-0.1916684955358505,-0.286805510520935,-0.0906381756067276
0.808481201171875,-0.5715467823771759,0.8037368875414133,0.1257084466397762,-0.2615188956260681,-0.1891577839851379,-0.1597144603729248
0.818508056640625,-0.8602264712002128,0.8705719241257757,-0.0534387447208166,-0.2976569235324859,-0.0837525278329849,-0.2514022886753082
0.8285361328125,-1.1368693564772605,0.9163322431731968,-0.3251005536496639,-0.3021254539489746,0.0191044621169567,-0.3701837360858917
0.83856396484375,-1.404883602683991,0.9739645671263336,-0.5765501801550388,-0.2685219347476959,0.1055418848991394,-0.521060585975647
0.84859228515625,-1.7998440206319093,0.9773482182152567,-1.022849009543657,-0.2106954008340835,0.1520853042602539,-0.685045063495636
0.8586201171875,-2.074953193535656,0.9487851907495408,-1.350538410642743,-0.1343265920877456,0.1193760931491851,-0.8351863622665405
0.868647216796875,-2.0645735460795462,0.8376574234522879,-1.595766386154294,-0.0489116497337818,0.0310056712478399,-0.949582815170288
0.878675048828125,-1.7620234085425734,0.5878747803110629,-1.7780811016350984,0.0385747887194156,-0.1074861586093902,-1.0098203420639038
0.888703125,-1.3110308683797716,0.2417747663177549,-1.8499322858810423,0.1181560382246971,-0.3232836425304413,-1.0022406578063965
0.898731201171875,-0.7334661043547094,-0.0576998362313956,-1.6859551911234856,0.2019609212875366,-0.568860650062561,-0.9320111870765686
0.908759033203125,-0.143476761308778,-0.2764648983616382,-1.345430273848772,0.2802293002605438,-0.7683976292610168,-0.822758674621582
0.9187861328125,0.3008729615723714,-0.4603221671093255,-0.929563992124796,0.3306224346160888,-0.8858249187469482,-0.7020668387413025
0.92881396484375,0.6249840292606502,-0.5645837749641388,-0.4158452389359474,0.3440381288528442,-0.9039865732192992,-0.5783570408821106
0.93884228515625,0.8709570509858429,-0.5142741220492869,0.1570101783543825,0.3025040030479431,-0.7883601188659668,-0.4521389305591583
0.9488701171875,1.034736650409922,-0.3465767646595835,0.666474781230092,0.2084745466709137,-0.6047281622886658,-0.3278158009052276
0.958898193359375,1.065733627024293,-0.1737270660080015,1.2734715375751255,0.0415052622556686,-0.3401252627372741,-0.2235351949930191
0.968925048828125,0.9688782037727536,-0.0560661706149578,1.6717150688469409,-0.1412768065929412,-0.1043746247887611,-0.146011471748352
0.978953125,0.8577080586384981,-0.0699698274787515,1.8315099094837903,-0.268238753080368,0.0589421316981315,-0.085349440574646
0.988981201171875,0.9274737418472766,-0.1739244882762432,1.619877329581976,-0.3199696540832519,0.142718106508255,-0.0406360998749733
0.999009033203125,0.9905798210363834,-0.2008789845667779,1.2245265971422197,-0.3116456568241119,0.1855553090572357,-0.0026578232645988
1.009037109375,1.1081591025605797,-0.124270815052092,0.9518108952462672,-0.2633030712604522,0.2123606652021408,0.0296533610671758
1.019064208984375,1.095350255196169,-0.0612995412237942,0.7404208919286728,-0.2133698463439941,0.2333844453096389,0.0454978384077549
1.02909228515625,1.0290873924765735,-0.0183707923404872,0.7095891158133745,-0.1817475259304046,0.2550370693206787,0.0340744219720363
1.0391201171875,0.965586030359566,0.0235584971766918,0.8242664653509855,-0.1729178130626678,0.2936217486858368,-0.0070224152877926
1.049148193359375,0.8651618087105453,0.0703196638297289,0.8988912059634924,-0.1628327220678329,0.3443096578121185,-0.0835086554288864
1.059176025390625,0.6976637002199888,0.049632849631831,0.885898453399539,-0.1357856690883636,0.4103717505931854,-0.1781856268644333
1.069203125,0.5385440919635817,0.0296055953212082,0.6758253778994083,-0.0910079255700111,0.4580183327198028,-0.2658656537532806
1.079231201171875,0.466867022175528,-0.0189831520851701,0.3832686649799346,-0.0217907726764678,0.4576063454151153,-0.3289335668087005
1.089259033203125,0.5683241670688614,-0.0456117043569684,0.0487140542864799,0.0575743652880191,0.4153441786766052,-0.3596578240394592
1.099287109375,0.7174203208956867,-0.1221642712268978,-0.2472299629837274,0.1383400559425354,0.3478157222270965,-0.3606770038604736
1.10931494140625,0.8059211727779358,-0.2404530892599373,-0.4194295271635055,0.2039106488227844,0.2720310389995575,-0.3361996710300445
1.11934228515625,0.854637419021502,-0.3068095485471189,-0.462935491412878,0.2337364554405212,0.1900421530008316,-0.2788815200328827
1.129369873046875,0.910287410051003,-0.3640296384375542,-0.424148956900835,0.2273369133472442,0.0952558815479278,-0.1988119184970855
1.139398193359375,0.9873016761485488,-0.3363352835651487,-0.2127531083643436,0.1996493637561798,0.0066301440820097,-0.1133390963077545
1.149426025390625,1.0511354850903152,-0.2405176058635115,0.0299216755330562,0.1537159085273742,-0.0556073375046253,-0.0376061499118804
1.1594541015625,0.9746860132686792,-0.1232882337555289,0.3131874130159616,0.0904423967003822,-0.087002009153366,0.008634315803647
1.169481201171875,0.7612924881089478,-0.0231680365543812,0.6056073478132487,0.0246864221990108,-0.1035864055156707,0.049704935401678
1.179509033203125,0.6715501117330044,0.100412823472172,0.8134171545565128,-0.0252507776021957,-0.120160587131977,0.1001563966274261
1.189537109375,0.7282343411810696,0.2538601217132061,0.965200538173318,-0.0425461195409297,-0.1076088398694992,0.1549636125564575
1.199565185546875,0.7028686484519392,0.4561313643559813,1.0488076266646384,-0.0439189784228801,-0.0732263624668121,0.2043729722499847
1.20959326171875,0.5775420407366008,0.6715482851020992,1.2112065123200415,-0.0394104607403278,0.0084577184170484,0.2326937317848205
1.219619873046875,0.4475201148118823,0.8246144750710577,1.3142664893001317,-0.0367824546992778,0.1160725951194763,0.2480029016733169
1.229647705078125,0.3369576167145743,0.9181898537386208,1.3653735762029886,-0.0460357032716274,0.2125608175992965,0.2517558336257934
1.23967578125,0.2506439361456781,0.9739482005134223,1.3470651815742254,-0.05341212823987,0.2845702767372131,0.2501225173473358
1.249703857421875,0.2759367097690701,0.992098335840553,1.2548065845936536,-0.0569845549762249,0.3173995316028595,0.2451911866664886
1.25973193359375,0.310505772716552,0.9991386097408832,1.1334802985608576,-0.0404886677861213,0.3287722766399383,0.2400880306959152
1.2697587890625,0.2996458491965197,1.0353888307083396,0.9513274956434964,-0.0126851163804531,0.3469723463058471,0.2204156666994094
1.279786865234375,0.2158806840666569,1.118527863296494,0.7768050414741039,0.0103791896253824,0.3798019289970398,0.1905754804611206
1.28981494140625,0.1274435268040746,1.179125612926483,0.6058084233433008,0.0158881992101669,0.3956395983695984,0.1463303416967392
1.299843017578125,0.0784616153616458,1.166740909258276,0.4674509230107069,0.011508896946907,0.3799711465835571,0.1009415462613105
1.30987109375,0.1193851436360739,1.071108963387087,0.2904810756891965,0.0102519150823354,0.3326316475868225,0.0549149140715599
1.319897705078125,0.1526728798024356,0.9382648927137256,0.0645101738333702,0.0142370704561471,0.2499090731143951,0.0207524187862873
1.329926025390625,0.2325203600319102,0.854540680648759,-0.0832107826501131,0.0306214075535535,0.1422003954648971,-0.0017551218625158
1.339953857421875,0.3412640817368403,0.781529512712732,-0.2197171021580696,0.0565512739121913,0.0231325924396514,-0.017913319170475
1.34998193359375,0.4188430690450593,0.7182877513799816,-0.2048217308431863,0.0810832604765892,-0.0846430882811546,-0.0317190513014793
1.360009765625,0.4176943739339709,0.6625776276610791,-0.1349345401465892,0.0992718487977981,-0.1723495125770568,-0.0407429076731205
1.370036865234375,0.4113669975433498,0.6179891288720071,-0.0504489152550697,0.1066198870539665,-0.2380027323961258,-0.0337116681039333
1.38006494140625,0.4747715482223779,0.5732289998430758,0.072613985311985,0.0993140414357185,-0.2781826555728912,-0.0140229193493723
1.390093017578125,0.5128921296389773,0.5524773037154227,0.2441653147161006,0.0817588791251182,-0.2858376502990722,0.0164980050176382
1.400120849609375,0.5198607996078208,0.5561218707628548,0.4088122715592384,0.0559576451778411,-0.2549724280834198,0.0538911819458007
1.410148681640625,0.4891998134821653,0.5732295843649655,0.5393827712774276,0.0169280599802732,-0.1920119822025299,0.0892685130238533
1.420176025390625,0.4798767624069004,0.6141273388773203,0.6328828927516937,-0.0321590565145015,-0.113831415772438,0.1214839667081832
1.430203857421875,0.4462216724991798,0.5738993733853102,0.5911819320976733,-0.0750521868467331,-0.0316703878343105,0.1539167165756225
1.440231689453125,0.3923971798637881,0.5243864968713373,0.4550543827742337,-0.1086548864841461,0.0277844183146953,0.1977384984493255
1.450259765625,0.4692355414051562,0.5404294307861477,0.2992348755091428,-0.1277984827756881,0.0632352456450462,0.2511025667190552
1.460287841796875,0.5977051233213394,0.5036614695549011,0.1232873569726943,-0.1579787582159042,0.0685594379901886,0.298971563577652
1.47031494140625,0.6759184630103409,0.4748437366757541,0.0407698172837495,-0.1981617361307144,0.0814671143889427,0.3335708677768707
1.4803427734375,0.6215431680917739,0.4694976994726806,-0.0248363350927829,-0.2510688900947571,0.1039812117815017,0.3482760488986969
1.490370849609375,0.4629795497503131,0.4956475283168256,-0.0622469050765037,-0.3098721504211426,0.1200499013066291,0.3485471904277801
1.500398681640625,0.3680027067869901,0.5379952624417841,-0.1311719727426767,-0.3641404509544372,0.1060496643185615,0.3463865518569946
1.510426025390625,0.3285719926198944,0.5464979370448738,-0.2377946106404066,-0.4033046960830688,0.0538578443229198,0.3321608603000641
1.520453857421875,0.223248107562121,0.5357894229605794,-0.3530114738821983,-0.4114883244037628,-0.0242856927216053,0.3047396242618561
1.53048193359375,0.1066317527859471,0.502355209261924,-0.4793465279877185,-0.3868050575256347,-0.1090653613209724,0.2599418461322784
1.540509765625,-0.0082101579299196,0.5006625799998641,-0.5539513948559761,-0.3384186029434204,-0.1690192520618438,0.1934887617826461
1.550537841796875,-0.1985683512705378,0.508753605062142,-0.653936202174425,-0.2792210578918457,-0.206529289484024,0.1029189005494117
1.56056494140625,-0.4462482317125424,0.4787497311383485,-0.7151730534255504,-0.2097119987010955,-0.2523026168346405,-0.0133336763828992
1.570593017578125,-0.6476112369365989,0.3445857369728386,-0.7959335203140974,-0.1297767758369445,-0.2976312637329101,-0.1418436914682388
1.580620849609375,-0.7753964898504316,0.1449835674088448,-0.9214227712452412,-0.0447910465300083,-0.3400042951107025,-0.2571258246898651
1.590648681640625,-0.7984175922147929,-0.0297800751052796,-1.0302835434585809,0.0281026810407638,-0.3606786131858825,-0.3421395123004913
1.600677001953125,-0.7330342888087034,-0.1425002992257475,-1.085301081803441,0.0811248794198036,-0.3761854171752929,-0.3930860459804535
1.610703857421875,-0.610449782875739,-0.3155537037558853,-1.116396477290988,0.1102148294448852,-0.4007496237754822,-0.4081171154975891
1.62073193359375,-0.4666766507025808,-0.524587426270917,-1.0742121170341967,0.1262827515602111,-0.4387342929840088,-0.4046331644058227
1.630759765625,-0.3322667189519852,-0.6848242385216057,-1.006893900042772,0.1364267170429229,-0.4644889235496521,-0.3807055652141571
1.6407880859375,-0.2055884408993646,-0.7936957513246685,-0.9714321260392664,0.1393913477659225,-0.4712759852409363,-0.3313542604446411
1.65081591796875,-0.0618432744453661,-0.8209764108296483,-0.8946727114856242,0.1212679669260978,-0.4483335316181183,-0.2681162059307098
1.6608427734375,0.0901523271500133,-0.7834366615083068,-0.7116840422660112,0.0797610059380531,-0.3937461674213409,-0.2047756165266037
1.670870849609375,0.1158650980174541,-0.7207046032633632,-0.474528314051032,0.0197144001722335,-0.3127400279045105,-0.1482758373022079
1.680898681640625,0.1642658668373711,-0.6584721651036292,-0.3019453035116195,-0.0423090234398841,-0.2222926616668701,-0.0882473886013031
1.690927001953125,0.2821373545074835,-0.6580627075199037,-0.1807312456816434,-0.0933417379856109,-0.1247471049427986,-0.0114423939958214
1.700954833984375,0.4927442811559885,-0.679586264802888,-0.1344347739309072,-0.1446086466312408,-0.0544929280877113,0.0796060264110565
1.71098193359375,0.6696835141435266,-0.6847865368597209,-0.0443178651541471,-0.1967662125825882,-0.0282841026782989,0.1724147349596023
1.721009765625,0.7272630119308829,-0.6840262930769473,0.1087818617582321,-0.2504094541072845,-0.0503169670701026,0.2411005795001983
1.731037841796875,0.6970553590632975,-0.7467915960043668,0.2419973230272531,-0.2796139121055603,-0.1055114641785621,0.2793582081794739
1.74106591796875,0.6024639352209866,-0.7798627485442906,0.401240959522128,-0.2774490416049957,-0.172684907913208,0.2947222590446472
1.75109375,0.4678116460818797,-0.7323113813616335,0.514810640078783,-0.2357498258352279,-0.2312071174383163,0.2964253425598144
1.761120849609375,0.320029899321869,-0.6476408283572643,0.5728975028663873,-0.1632721573114395,-0.2613972425460815,0.2819686532020569
1.77114892578125,0.1097271797843277,-0.5585468328874558,0.6518073734521865,-0.0803108662366867,-0.2523825168609619,0.2594572603702545
1.781177001953125,-0.1081548159010708,-0.4603629375111311,0.7462041515052318,-0.0055284975096583,-0.2030341476202011,0.2367855012416839
1.791204833984375,-0.2643776432700455,-0.3963856284454464,0.8210141855567693,0.052138578146696,-0.1349927932024002,0.219500795006752
1.801231689453125,-0.3736374247383326,-0.3467010486263782,0.882929082199931,0.086219847202301,-0.0540721081197261,0.2036797553300857
1.811259765625,-0.4110763440337032,-0.3876952492505311,0.924403248360753,0.0959045812487602,0.0321765169501304,0.1984454244375229
1.821287841796875,-0.3984103026734665,-0.4764862431857735,0.9676403325408696,0.0821903645992279,0.1279720216989517,0.2011426836252212
1.83131591796875,-0.3568712911155074,-0.5156938526540994,0.9572983867466448,0.0511918663978576,0.2293367981910705,0.2071643024682998
1.84134375,-0.3457736315831541,-0.5135219885077327,0.8983464315623044,0.0144972363486886,0.320465087890625,0.2247036248445511
1.851370849609375,-0.3265226223420351,-0.5329267270058393,0.7679267384916544,-0.018754918128252,0.3940353393554687,0.2427396774291992
1.86139892578125,-0.2615573982175439,-0.6052439943935721,0.6023445466250181,-0.0449660159647464,0.4353795647621155,0.2543337345123291
1.871427001953125,-0.1805492036456242,-0.6950513988297432,0.4338490976601838,-0.0707111284136772,0.4354482293128967,0.2597955167293548
1.881454833984375,-0.1302913357169367,-0.743402903414145,0.3326730347305536,-0.0985661968588829,0.409342885017395,0.2531773149967193
1.89148291015625,-0.1340696669455617,-0.7362605573788285,0.2727215471148491,-0.1214249581098556,0.3545182943344116,0.2305968552827835
1.901510009765625,-0.1668706973072141,-0.7220061873812228,0.2067570828199386,-0.1218406707048416,0.2805325090885162,0.1896629929542541
1.911537841796875,-0.1905192291212268,-0.6744093005564064,0.1159369942098856,-0.0972557961940765,0.2053058445453643,0.1439790725708007
1.92156591796875,-0.2513031672393903,-0.5878736112672835,0.083824530634284,-0.0577845573425293,0.1324412226676941,0.0956115275621414
1.93159375,-0.272653961771354,-0.4747188681870699,0.0795598589271306,-0.0142277861014008,0.0493420287966728,0.0519183911383152
1.941621826171875,-0.2499936372770927,-0.3863989988949149,0.1968827545374631,0.0136408619582653,-0.0297274887561798,0.006235591135919
1.95164892578125,-0.2782320541646331,-0.2904125404976308,0.4024024045169353,0.0287722256034612,-0.0844641998410224,-0.0525747537612915
1.961677001953125,-0.3904533157870173,-0.1810094781011343,0.5921762038320303,0.0493752397596836,-0.1155163869261741,-0.1066939160227775
1.971705078125,-0.4696064205441623,-0.0657340896051377,0.713381493833661,0.0681774616241455,-0.1272664219141006,-0.1555694937705993
1.98173291015625,-0.5010115395680069,0.00706591979824,0.8091115663170814,0.0988272503018379,-0.1069172173738479,-0.19732466340065
1.9917607421875,-0.6322424759563058,0.1092128005214035,0.8274491870403289,0.1258305311203003,-0.0670035928487777,-0.2334540486335754
2.001787841796875,-0.7745903610993177,0.209973049191758,0.8334551494568586,0.1352733075618744,-0.0060278605669736,-0.2565178275108337
2.01181591796875,-0.8938925939586013,0.2917345828816294,0.871004251128435,0.1226586252450943,0.0673822984099388,-0.2768351435661316
2.02184375,-1.0136628827210514,0.3007630349244922,0.8191805403888225,0.0929167121648788,0.1239180117845535,-0.2981428503990173
2.031871826171875,-1.137325575812161,0.2793406729936599,0.7070195575863123,0.0686068683862686,0.1641528308391571,-0.3094008266925812
2.04189892578125,-1.1523710961874574,0.2406352408938109,0.5125479558438062,0.059151317924261,0.184144377708435,-0.3138110041618347
2.051927001953125,-1.066747041850537,0.1946722388811409,0.2784609675496816,0.0517600327730178,0.1948047429323196,-0.3054790496826172
2.061954833984375,-1.020824517978728,0.1616849652323871,0.1165542493253946,0.0355347208678722,0.1964497715234756,-0.2876321375370025
2.071982666015625,-0.9807486012432725,0.1388459414366632,-0.0211222830057144,0.0041108503937721,0.1761732995510101,-0.2669142186641693
2.0820107421875,-0.9025059623945504,0.0735068424984812,-0.0912736775964498,-0.0274649187922477,0.1206527724862098,-0.244145005941391
2.092037841796875,-0.7748226354852318,-0.0145249305672943,-0.1799322042584419,-0.0568411275744438,0.0667875632643699,-0.2203366905450821
2.102066162109375,-0.6711513216737658,-0.0253748258836567,-0.2465694532483816,-0.0792353823781013,0.0267429407685995,-0.1988689452409744
2.11209375,-0.601597637247853,0.0353057797241955,-0.2389665770292282,-0.1054832711815834,0.0052279653027653,-0.182190716266632
2.122121826171875,-0.5409290508713573,0.1563748030602932,-0.1240221009880304,-0.1366880685091018,0.0116986483335495,-0.1724342256784439
2.13214990234375,-0.5215616121763363,0.2585319129165261,-0.0628676673233509,-0.1707145124673843,0.0231135487556457,-0.1789972186088562
2.1421767578125,-0.5134816199647262,0.2658890707463026,-0.0076122285693883,-0.2074405699968338,0.0177230462431907,-0.1914546936750412
2.152204833984375,-0.4492836538856848,0.2276320400010794,0.081077277752757,-0.2437290698289871,-0.0026299464516341,-0.2029122412204742
2.162232666015625,-0.3720104811236262,0.1717076890096068,0.1241495267599821,-0.2749208211898803,-0.0334565676748752,-0.21254862844944
2.172260986328125,-0.3124961793487891,0.1667844803284853,0.1261585284948349,-0.2925462126731872,-0.0542854033410549,-0.2217728942632675
2.182288818359375,-0.3458679222704842,0.2203712552178651,0.033435821133852,-0.2965984940528869,-0.0790125876665115,-0.2236610800027847
2.19231591796875,-0.3319910438157618,0.2397017959685996,-0.059985974407196,-0.2947519719600677,-0.1194261908531189,-0.2199395298957824
2.20234375,-0.2345782789424061,0.2442442617038264,-0.1430465349316597,-0.2977549731731415,-0.1552156209945678,-0.2199762761592865
2.212371826171875,-0.1643897672116756,0.1667132782557979,-0.1998626471310854,-0.3063023686408996,-0.173322394490242,-0.2275860011577606
2.222400146484375,-0.2078823057238943,0.0879758416274562,-0.2752981196045875,-0.3170047998428345,-0.1693806499242782,-0.2444384843111038
2.232427978515625,-0.2402229885648004,0.1009191290264949,-0.3136871792316436,-0.3271242678165436,-0.1502142548561096,-0.2571747004985809
2.242454833984375,-0.2254069843627512,0.1611416886685416,-0.3283440656155347,-0.333708643913269,-0.129116952419281,-0.2699392437934875
2.25248291015625,-0.1732062204716727,0.1538833881033584,-0.3689531393796205,-0.3515765964984894,-0.1098627895116806,-0.2712513208389282
2.262510986328125,-0.0373126625671982,0.0798241358865052,-0.3615478315591812,-0.3845747709274292,-0.1064286455512046,-0.2658165991306305
2.2725390625,0.0964992758907843,0.0074057462118566,-0.2470008304029703,-0.4360407590866089,-0.1005413234233856,-0.2672659456729889
2.28256591796875,0.1259088280500844,-0.0438954384909942,-0.1459247207164764,-0.4946984648704529,-0.0926122963428497,-0.2818896174430847
2.292593994140625,-0.0415626390287186,-0.0346219804448075,-0.1124134962588548,-0.5419341325759888,-0.0735112130641937,-0.3096814751625061
2.3026220703125,-0.1671909970364533,0.0178388591545633,-0.1401186647862196,-0.5694645643234253,-0.0401556529104709,-0.3586993515491485
2.312650146484375,-0.3052823755124583,0.0319963081163354,-0.2927022588700056,-0.5666083693504333,0.0066850413568317,-0.4390852451324463
2.322677978515625,-0.564440019111894,0.0809315491391345,-0.460195837315917,-0.5270617604255676,0.0685771703720092,-0.5613054633140564
2.332704833984375,-0.9164766931451857,0.1977901151733472,-0.7273895609200001,-0.4428944289684295,0.1571936011314392,-0.7080926299095154
2.34273291015625,-1.319325818516314,0.3197871766071766,-1.1365326718688011,-0.3176694214344024,0.2525259852409363,-0.8664426207542419
2.352760986328125,-1.606176282618195,0.3703111298598349,-1.5124802001804112,-0.1684004515409469,0.3350982666015625,-1.009406566619873
2.3627890625,-1.5933369670502842,0.2967474608738906,-1.7417928136795755,-0.0213910322636365,0.388925552368164,-1.1246492862701416
2.372817138671875,-1.3227144380412994,0.110145779655734,-1.8545909253418444,0.1091504544019699,0.3955225944519043,-1.2299351692199707
2.382843994140625,-1.0160596416644752,-0.1989089448691345,-1.864398618128896,0.1952864080667495,0.3420985043048858,-1.3238872289657593
2.3928720703125,-0.6594466361589729,-0.5731367184497416,-1.7402432461500166,0.237938106060028,0.2407657504081726,-1.3814947605133057
2.40289990234375,-0.1643874291241168,-0.9630686407111584,-1.4877461564183234,0.2353242188692093,0.0898345485329628,-1.3958067893981934
2.412927978515625,0.4159586727151647,-1.2826396172843872,-1.1725076560914516,0.2126929610967636,-0.1032929420471191,-1.3694134950637815
2.422955810546875,0.9775199215203524,-1.558373936349153,-0.8744120137453079,0.183255448937416,-0.2862563729286194,-1.305214285850525
2.432983154296875,1.3693601616211235,-1.7125576591059564,-0.526217000234127,0.1551973819732666,-0.416482537984848,-1.2172995805740356
2.443010986328125,1.5634331194348632,-1.6788550037294625,-0.0851063871383667,0.1312875151634216,-0.4785120785236358,-1.11372709274292
2.4530390625,1.6545048447184263,-1.5124519969992338,0.3412672600746154,0.1049370914697647,-0.4895641803741455,-1.0082330703735352
2.46306689453125,1.636742247404158,-1.280045070746541,0.8063467777788639,0.0807734355330467,-0.4572102427482605,-0.9294610619544984
2.473094970703125,1.500179667664319,-1.1356127805449068,1.1997779403328894,0.0591345019638538,-0.3963501155376434,-0.8749831318855286
2.4831220703125,1.3727683626294136,-1.02588384719491,1.5424638350337745,0.0410769395530223,-0.3260133564472198,-0.8365870118141174
2.49314990234375,1.2898133083060384,-0.9048213997300714,1.7675936098903418,0.0343756712973117,-0.2484460324048996,-0.811752200126648
2.50317822265625,1.1886407525077465,-0.748576506659761,1.8673200585335488,0.0424727462232112,-0.1485870778560638,-0.8027512431144714
2.513205810546875,1.0540447966657578,-0.5910571366742253,1.8689602269560095,0.0705281943082809,-0.0306090675294399,-0.8166496157646179
2.523233154296875,0.7947098237380384,-0.4458413314120844,1.735270718434453,0.1162714511156082,0.0850541442632675,-0.8514187335968018
2.533260986328125,0.5297126603301614,-0.3565996345672756,1.5193173527240753,0.1635488867759704,0.1915504485368728,-0.9085800051689148
2.5432890625,0.3234833277113735,-0.2681670986808836,1.3321744864344596,0.2099560648202896,0.2740911245346069,-0.9756842255592346
2.55331689453125,0.1809240648400038,-0.2525880742170848,1.1068185016065837,0.2602331340312958,0.3411572575569153,-1.0368366241455078
2.563344970703125,0.1364542787934653,-0.3136732237715274,0.8248387122809886,0.3133373558521271,0.3739343881607055,-1.0796102285385132
2.5733720703125,0.1984428799936547,-0.3778571613252163,0.5426636926442384,0.3604338467121124,0.375285655260086,-1.101635456085205
2.58339990234375,0.2434014542041346,-0.4013786874923855,0.3213157744139432,0.3785081803798675,0.35578253865242,-1.1042461395263672
2.593427978515625,0.3041545770589262,-0.3804586490605026,0.1360246734708547,0.3658871948719024,0.2992652058601379,-1.0926649570465088
2.603455810546875,0.3620553426899016,-0.3751084471389651,0.0139975456923246,0.3443227708339691,0.2095565944910049,-1.0694013833999634
2.613484130859375,0.473468137473613,-0.3609037249693647,-0.0237140530645847,0.3187949359416961,0.1086902469396591,-1.0229002237319946
2.623510986328125,0.615606106192991,-0.3161259872185066,-0.0323871888637542,0.2916219234466553,0.0043784892186522,-0.9681240320205688
2.633539306640625,0.7427901783432811,-0.169184381077066,0.1056587613016366,0.2650047540664673,-0.0876699090003967,-0.915779948234558
2.64356689453125,0.7458779152255505,0.0293333542510867,0.2729348976045846,0.2496596425771713,-0.1678350567817688,-0.8757227659225464
2.653594970703125,0.6968462463572621,0.1837795638689771,0.4062152408033609,0.2484257966279983,-0.2250362932682037,-0.8425784111022949
2.663623046875,0.6343452934544533,0.3530078936856239,0.5675257467001676,0.2518423497676849,-0.2536953687667846,-0.8150730133056641
2.67364990234375,0.6143593940675258,0.5623291279051452,0.7266209146350622,0.2507515549659729,-0.2489081770181656,-0.7956541180610657
2.683677978515625,0.5082797404726966,0.7463202521655709,0.8236427804946899,0.2575625777244568,-0.2330935150384903,-0.781356930732727
2.693705810546875,0.4696590640468522,0.8392734072815626,0.8704226518481969,0.253884345293045,-0.2083824872970581,-0.7495104074478149
2.703734130859375,0.5692724807696417,0.9269399272315204,0.9587941782623528,0.2351154237985611,-0.1691962033510208,-0.7132993936538696
2.713760986328125,0.6201514214724302,1.0154342763077466,1.006334512594342,0.1899390816688537,-0.1189986020326614,-0.671894907951355
2.7237890625,0.6834316881846636,1.089862544500083,1.0690618946641683,0.1261582374572754,-0.0647422820329666,-0.6240025162696838
2.73381689453125,0.768518566904962,1.173714620728418,1.141124091312289,0.0557663291692733,-0.0036218762397766,-0.5804203152656555
2.743844970703125,0.8589373812377452,1.2319789589747785,1.0841250237613915,-0.0072930641472339,0.0473022907972335,-0.5462234616279602
2.753873046875,0.8923547168668359,1.3002265657708048,0.9145616533041,-0.0536812543869018,0.0714263021945953,-0.5271843075752258
2.763900146484375,0.8423726154059171,1.348205291520059,0.7431593769818544,-0.0805019438266754,0.0748830884695053,-0.525303840637207
2.773927978515625,0.7254142422590404,1.370516492049396,0.5723071357578039,-0.0885021984577179,0.0607007145881652,-0.5316396355628967
2.783955810546875,0.6576300882562994,1.4137021383032202,0.3957563906311989,-0.0837521851062774,0.035818800330162,-0.5409122109413147
2.793984130859375,0.6721833681352436,1.467989754938334,0.2255512151390314,-0.0725237354636192,0.0055066412314772,-0.5483097434043884
2.804011962890625,0.6794575238566846,1.5136189949519931,0.1234960312873125,-0.0641534179449081,-0.0329273007810115,-0.5576124787330627
2.814038818359375,0.679326664018631,1.5239096489503978,0.1080412725239992,-0.0658222809433937,-0.0723352953791618,-0.5677732825279236
2.82406689453125,0.689141955590248,1.5316640624694526,0.1263999360352754,-0.0721571445465087,-0.1211803331971168,-0.5781276822090149
2.834094970703125,0.6685971071463078,1.513815686567873,0.1709884348243474,-0.0891833007335662,-0.1678162217140197,-0.5870403051376343
2.844123046875,0.6674304745197296,1.5033847473159432,0.2497556820690631,-0.110784463584423,-0.2062573432922363,-0.5919528007507324
2.85415087890625,0.6077278470985591,1.4932229803942143,0.2995867576867342,-0.1375077217817306,-0.2332277595996856,-0.6048701405525208
2.864177978515625,0.5132255263118073,1.4466462303973733,0.2921311809837818,-0.1485880762338638,-0.2644290924072265,-0.612983763217926
2.8742060546875,0.4985444918673485,1.3605986168861388,0.2633639361828565,-0.1560367792844772,-0.2955331802368164,-0.6032481789588928
2.884234130859375,0.5956794992452487,1.2304751302830874,0.2299789684534072,-0.1494124233722686,-0.3188867270946502,-0.5783755779266357
2.894261962890625,0.6883603036932647,1.1624521260231733,0.1962748517721891,-0.1422853618860244,-0.3214733302593231,-0.535896897315979
2.904288818359375,0.8156842227056622,1.0999091606095432,0.203587805134058,-0.1375398635864257,-0.3086392879486084,-0.4810115694999695
2.91431689453125,0.8587481422759592,1.044492686074972,0.2123579715669155,-0.1576138287782669,-0.2882664501667022,-0.4366099536418915
2.924344970703125,0.7887265115447342,1.0339271606579423,0.2867921580433845,-0.1971260756254196,-0.26568204164505,-0.4163398444652557
2.934373046875,0.6383078404098749,0.9663763039544224,0.2966173864871263,-0.2390439361333847,-0.2399609237909317,-0.4180072546005249
2.944401123046875,0.5333023553851992,0.8613613935142755,0.230745861172676,-0.2765082120895386,-0.2132400870323181,-0.4270971715450287
2.954427978515625,0.4907369599215686,0.8171284301646053,0.1085702648341655,-0.2991777062416076,-0.1937785893678665,-0.4316444993019104
2.9644560546875,0.4996821541277691,0.8325272209569812,-0.0287163913965225,-0.3099539279937744,-0.186491921544075,-0.444006085395813
2.974484130859375,0.4878127795705571,0.7813248569861054,-0.1882066961288452,-0.3160191774368286,-0.179541677236557,-0.4662462472915649
2.984511962890625,0.470530257390812,0.6465325017891824,-0.3478010457575321,-0.3163054585456848,-0.1853068768978119,-0.4776134192943573
2.9945400390625,0.5678485854463652,0.4923103101855143,-0.474205657967925,-0.3143377006053924,-0.2058206647634506,-0.4707629382610321
3.00456689453125,0.7378494340054691,0.3997021325822919,-0.5620961228668689,-0.3202501833438873,-0.2377056330442428,-0.4517841935157776
3.014594970703125,0.9252997588090598,0.2865200448374264,-0.592805149385333,-0.3302471935749054,-0.2809736728668213,-0.4164804518222809
3.024623046875,1.0979307001434266,0.1651996405561454,-0.5135702846288681,-0.3526180386543274,-0.3299505412578583,-0.3688759207725525
3.034651123046875,1.1819717961378395,0.1027608113704249,-0.3555155656576156,-0.3889512121677398,-0.3580237925052643,-0.3276023268699646
3.044678955078125,1.085453934277594,0.131113849347271,-0.2402040098696947,-0.4181532859802246,-0.3496593236923218,-0.2985957264900207
3.0547060546875,0.9030233373321592,0.169291805240605,-0.2019078892230987,-0.4277881383895874,-0.3082726895809173,-0.2859075367450714
3.06473388671875,0.7268577921308577,0.1707722347903996,-0.2249269457608461,-0.4218865633010864,-0.2494769990444183,-0.3060572743415832
3.07476220703125,0.5480574414465577,0.1516281382561661,-0.2605728441596031,-0.4048082530498504,-0.1977408528327942,-0.3564296364784241
3.084789794921875,0.3568835660751909,0.1291391700071282,-0.2386228781580925,-0.3734913468360901,-0.1409396231174469,-0.4436289668083191
3.094817138671875,0.1079181576009839,0.0881069115280639,-0.3117605950832366,-0.3238070607185364,-0.0798895955085754,-0.5667358636856079
3.104844970703125,-0.1784662964243441,-0.02638473814514,-0.5032891291111707,-0.2488020658493042,-0.0319681428372859,-0.6986606121063232
3.114873046875,-0.3060692515738308,-0.2228891928555443,-0.7728828995943069,-0.1529126912355423,-0.0191317871212959,-0.800325334072113
3.12490087890625,-0.1268480451289564,-0.4433889332912862,-0.9868471373140812,-0.0715432614088058,-0.0495405606925487,-0.8677168488502502
3.134928955078125,0.1329397130675614,-0.6434560169532895,-1.014897173756361,-0.0129435453563928,-0.0987944602966308,-0.9034808874130248
3.1449560546875,0.2905774487357586,-0.8623620219241828,-0.9915408480882644,0.0225028619170188,-0.1654930561780929,-0.9117542505264282
3.15498388671875,0.4019110408034175,-1.0446820711672304,-0.9136176504522562,0.0258690696209669,-0.2368844598531723,-0.8802738189697266
3.16501220703125,0.5936284484669566,-1.1102085093710572,-0.7609153984248638,-0.0029750955291092,-0.2830146849155426,-0.8229575157165527
3.175039794921875,0.6511584810893982,-1.0779272650998084,-0.5487976653546095,-0.0607625544071197,-0.2903078496456146,-0.7472763061523438
3.18506787109375,0.6391967520736157,-1.02828009468168,-0.3172726365029811,-0.1388656049966812,-0.2685194611549377,-0.6645728945732117
3.195094970703125,0.7075252420861273,-0.971834715490788,-0.0569482141464948,-0.2265148907899856,-0.2055142521858215,-0.5929427742958069
3.205123291015625,0.6858700212474912,-0.8669256765779108,0.1140156707584857,-0.2898339629173279,-0.0992695689201355,-0.5485803484916687
3.21515087890625,0.5276840771120042,-0.720610933630541,0.1665536672472953,-0.3420515656471252,0.0231109820306301,-0.5208467245101929
3.225178466796875,0.4794992343313992,-0.5766142583671957,0.1988070005983114,-0.3794974684715271,0.1276626884937286,-0.5045852065086365
3.235205322265625,0.5009766874503344,-0.5062758533043786,0.1982230632305145,-0.4013694226741791,0.1937939226627349,-0.5162819623947144
3.245233642578125,0.4041481522057205,-0.5039059458352625,0.1563502531409263,-0.3969288766384125,0.2129929065704345,-0.5573064088821411
3.25526123046875,0.2588771461576223,-0.5148698229201137,0.0568207883745431,-0.3632116317749023,0.1799744069576263,-0.629676878452301
3.265289306640625,0.1340104110389947,-0.5270946598514914,-0.0476455482721328,-0.2936757206916809,0.0999994054436683,-0.7336463928222656
3.2753173828125,0.0003974748849868,-0.5443039706645533,-0.1504348916172981,-0.1856489777565002,-0.0066050421446561,-0.8585363626480103
3.28534423828125,-0.1105115350950509,-0.6114255325727165,-0.2264922953814268,-0.0568750239908695,-0.1106640696525573,-0.9852415919303894
3.295372314453125,-0.1657593750644475,-0.6466073205910623,-0.2303641683787107,0.0795601531863212,-0.1975030601024627,-1.0937880277633667
3.305400146484375,-0.1076079226080328,-0.6825725871372967,-0.0845440770804882,0.1998519301414489,-0.2458623349666595,-1.177384614944458
3.315428466796875,-0.054612391610071,-0.7337205175071955,0.114199795153737,0.2918027639389038,-0.2496144920587539,-1.2540620565414429
3.325456298828125,-0.1168087355431169,-0.784109080877155,0.3050876931905746,0.357047289609909,-0.2267978489398956,-1.3242640495300293
3.3354833984375,-0.136658660525456,-0.8608423380762338,0.4034627272248268,0.4079044163227081,-0.1964156776666641,-1.3665342330932615
3.34551123046875,-0.0360636854194104,-0.938775253388658,0.4378460583418607,0.4468560814857483,-0.1716386973857879,-1.3767967224121094
3.355539306640625,0.1258331689979881,-0.9627535834126174,0.4704407524764537,0.472384363412857,-0.1394422054290771,-1.3528575897216797
3.3655673828125,0.296963861837238,-0.986593089487776,0.4896890583038329,0.4954966306686401,-0.1136670634150505,-1.298870086669922
3.375594482421875,0.4248056672438979,-1.0027147146619857,0.4856020812511444,0.4999858140945434,-0.1010942533612251,-1.2233784198760986
3.385622314453125,0.5465612115394324,-0.9619986733920872,0.5264139841109514,0.4771087169647217,-0.1111657992005348,-1.135636329650879
3.395650146484375,0.6361978625185787,-0.9498379877381026,0.6333598626136779,0.4314684569835663,-0.1174986213445663,-1.0491130352020264
3.405678466796875,0.6500317420817912,-0.91417002363801,0.7521937473088502,0.3732038140296936,-0.102393701672554,-0.9584612250328064
3.415706298828125,0.6711345166694372,-0.7922701755009591,0.8455734572738408,0.3116240203380584,-0.0540083199739456,-0.8616931438446045
3.4257333984375,0.6916006738539785,-0.6096958957685157,0.9188672415435314,0.2561138868331909,0.0294112060219049,-0.763331413269043
3.43576123046875,0.6472170499872416,-0.3686749800253659,0.9345850351572036,0.2016353011131286,0.147155612707138,-0.6759459972381592
3.44578955078125,0.5720139980301261,-0.1615421957608312,0.9281184694916008,0.1465022712945938,0.2777447700500488,-0.6012898683547974
3.4558173828125,0.4512850203033536,-0.0017620412364602,0.9319833282262088,0.0854717716574668,0.403509646654129,-0.5528207421302795
3.465845458984375,0.2859451127599924,0.1288185780169442,0.9015332449048756,0.0205308534204959,0.4798188209533691,-0.537993848323822
3.475872314453125,0.165829225430265,0.2311964544843882,0.8076280497610568,-0.0265540443360805,0.5019547343254089,-0.5552668571472168
3.485900390625,0.077476403716579,0.2542847038008272,0.6026525896608829,-0.0344119668006897,0.4622632563114166,-0.5918920040130615
3.495928466796875,0.0235865542273968,0.2810617246326058,0.3388853333741426,-0.0035613027866929,0.3818998634815216,-0.639164388179779
3.505956298828125,-0.0347124900061637,0.3619135595990345,0.0750152012348175,0.046913057565689,0.2765531837940216,-0.6991965770721436
3.515984619140625,-0.1637065341878682,0.4994857913054525,-0.0890010564893484,0.1031164452433586,0.1853763312101364,-0.7748700976371765
3.52601123046875,-0.3834071236025542,0.6375729502640665,-0.1501759484201669,0.1654016524553299,0.1174763888120651,-0.8600049614906311
3.536039306640625,-0.5950060934957117,0.7062934352688491,-0.1960410430163145,0.223969280719757,0.0678895190358161,-0.9279726147651672
3.5460673828125,-0.6259268630687147,0.7614850150063633,-0.1895300536870956,0.2596687078475952,0.0255918614566326,-0.960486888885498
3.556095458984375,-0.4907396998679265,0.7686838404692709,-0.0874970816671848,0.258707582950592,-0.0065285842865705,-0.9684616923332214
3.566122314453125,-0.4004041799044236,0.7322011989854276,0.0350216290205717,0.2245839685201645,-0.0355453193187713,-0.9698002338409424
3.576150390625,-0.3897831979731098,0.6589440934643149,0.1556184317350387,0.1772946417331695,-0.0647316798567771,-0.9695669412612916
3.586178466796875,-0.3992245051331818,0.580912540083006,0.2365969252884388,0.1331679373979568,-0.1016942262649536,-0.9609958529472352
3.596206298828125,-0.3659626523267477,0.5519948539607227,0.315096461507678,0.0922698900103569,-0.1267203539609909,-0.946916401386261
3.606234375,-0.3222309164974838,0.5369979219675064,0.2950117048561573,0.0647937953472137,-0.158488929271698,-0.928438365459442
3.61626123046875,-0.3292454714346677,0.5576483496777713,0.3824859901696443,0.0482422187924385,-0.1757514923810959,-0.9149448871612548
3.626289306640625,-0.4033533485662192,0.5669492619864642,0.3831733879119157,0.0461777374148368,-0.1698397994041443,-0.8884462118148804
3.6363173828125,-0.4170736847523599,0.5918318473737687,0.3457803535848855,0.048658013343811,-0.1387549787759781,-0.8498979210853577
3.646345458984375,-0.3396639895964414,0.6637007134068756,0.3559825986474752,0.0429878756403923,-0.0720715522766113,-0.8073490858078003
3.656373291015625,-0.2999314064059406,0.6679281949087977,0.3814280055493116,0.0226107574999332,0.0111040212213993,-0.7679502964019775
3.666400390625,-0.2618857533890754,0.6430377184759825,0.4233464083462953,-0.0194962173700332,0.0922649204730987,-0.7327377200126648
3.676428466796875,-0.1926361299436539,0.6050774787202478,0.4671376192778348,-0.0784410536289215,0.160247653722763,-0.6980510950088501
3.68645654296875,-0.1305644353035837,0.5547098120078444,0.4379050950527191,-0.1418650299310684,0.199552446603775,-0.6753290295600891
3.696484375,-0.1400596280753612,0.526514010419324,0.3401999231040477,-0.1885176002979278,0.2183339446783065,-0.6614026427268982
3.706511474609375,-0.2036503124436363,0.5269146271094679,0.1253144788861274,-0.1917791664600372,0.21406090259552,-0.6480993628501892
3.716539306640625,-0.2490634620212018,0.5381474573288113,-0.1804828238785266,-0.1689179241657257,0.1936521530151367,-0.6314900517463684
3.7265673828125,-0.2674205911625176,0.6229799959618598,-0.3974690397679805,-0.1337546110153198,0.1739612817764282,-0.6154059171676636
3.73659521484375,-0.3024140900671482,0.6705613929565996,-0.5274129320204257,-0.1064589694142341,0.1563601046800613,-0.5975791811943054
3.746623291015625,-0.2696916413670405,0.6853948780164122,-0.5593114605844021,-0.0924739092588424,0.1424184590578079,-0.5786288976669312
3.756650390625,-0.1833436566697433,0.6430187945798039,-0.5100187296271324,-0.1054128631949424,0.1415915936231613,-0.5647090673446655
3.766678466796875,-0.180905761998333,0.5773963486555963,-0.4541916284650564,-0.1325432807207107,0.1421657651662826,-0.5485883951187134
3.77670654296875,-0.1420657437333837,0.4835606385514139,-0.4019529071837663,-0.1702166199684143,0.134759783744812,-0.5240859985351562
3.786734375,-0.0180987704660743,0.4297772451113909,-0.3028565731376409,-0.2103730887174606,0.1321951597929,-0.4863553345203399
3.79676220703125,0.0346974020348861,0.4213523849848657,-0.2276560784637928,-0.2494000047445297,0.143644705414772,-0.4498804807662964
3.806789306640625,-0.0495625608745962,0.4930740610996261,-0.1784481031805276,-0.2810908555984497,0.1737115383148193,-0.4237309098243713
3.816817626953125,-0.1849392187654972,0.6391789241559803,-0.1995423291355371,-0.2991454005241394,0.2262533903121948,-0.433500736951828
3.82684521484375,-0.4530158626839518,0.7345585757665336,-0.3068611326038837,-0.3058272898197174,0.2822349071502685,-0.4883125722408294
3.836873291015625,-0.7838716188594699,0.731666945978254,-0.4582137235879898,-0.2972077131271362,0.3093547821044922,-0.5658639073371887
3.846900390625,-0.9131547821808604,0.6510295209474861,-0.6324304728090763,-0.2583889365196228,0.2957050204277038,-0.6555096507072449
3.856928466796875,-0.7558660791460424,0.480749599718675,-0.813088653254509,-0.1978481411933899,0.2410052418708801,-0.7443886399269104
3.866956298828125,-0.4776047623543068,0.2398441635813563,-0.9835188696742058,-0.1129028797149658,0.161121591925621,-0.8457610607147217
3.876984130859375,-0.2326684997983276,0.0525761730747297,-1.1137158599048853,-0.0009005388710647,0.0603095665574073,-0.9567327499389648
3.887012451171875,-0.0173121683993376,-0.1120735237147659,-1.2231886265367269,0.1218549385666847,-0.0505386516451835,-1.065824031829834
3.897039306640625,0.2724453970545902,-0.2867253398848697,-1.2148381468206644,0.2356078624725341,-0.140650600194931,-1.157315015792847
3.907067626953125,0.5898663925196975,-0.4410943926133215,-1.122699961349368,0.3042007684707641,-0.2104254215955734,-1.2349637746810913
3.91709521484375,0.8972671118929981,-0.5242438735302537,-0.8256564584046602,0.3181607127189636,-0.2296451032161712,-1.278417468070984
3.927123291015625,1.1446447397191075,-0.5614884758299217,-0.4815624504715204,0.2940497696399688,-0.1993039697408676,-1.269963264465332
3.9371513671875,1.4179602341391144,-0.638874534381926,-0.2511889297425747,0.2454174757003784,-0.1609605252742767,-1.1981422901153564
3.947178466796875,1.7663000629484653,-0.6746390907242894,0.0338496626317501,0.1667080223560333,-0.1297104507684707,-1.086685061454773
3.957206298828125,2.0030764364570377,-0.6904039383500814,0.3411369116932153,0.0669796019792556,-0.1006687507033348,-0.970255970954895
3.967234130859375,1.9947322403512893,-0.711602866788581,0.6055231766611338,-0.0254427418112754,-0.0743681713938713,-0.8736854791641235
3.977262451171875,1.821277999935299,-0.7264834789257496,0.7935100925594568,-0.0884745717048645,-0.0635723918676376,-0.8047224283218384
3.99167529296875,1.6158800766393542,-0.7031622976362705,0.879512551754713,-0.1217451766133308,-0.063850425183773,-0.7352655529975891
4.001703369140625,1.5069627519331872,-0.6424559730652719,0.923597777196765,-0.110824704170227,-0.0454347021877765,-0.708663821220398
4.0117314453125,1.3033590185776351,-0.4744237211653963,1.0346809016346932,-0.086607776582241,-0.0053538610227406,-0.7013153433799744
4.02175927734375,0.9900693142309784,-0.2538015599263832,1.1802759520053865,-0.0529032722115516,0.0479217544198036,-0.7163376212120056
4.031787353515625,0.7641961736612022,-0.1113598224874585,1.2506763529211282,-0.0152019644156098,0.1053472310304641,-0.7581503391265869
4.041814453125,0.497163230109401,-0.0366730860220268,1.2667834381133318,0.0328651741147041,0.1637537181377411,-0.8301755785942078
4.051842529296875,0.1851537930979393,-0.0119032037615776,1.1925941663086417,0.0895215272903442,0.213465079665184,-0.907496988773346
4.061870361328125,-0.0450329546209424,-0.0148005691708996,1.0262000735372303,0.1512462496757507,0.2427386343479156,-0.9769394397735596
4.071898193359375,-0.1682274456784129,-0.0224187525570392,0.7637485760241747,0.2147490680217743,0.2428368926048278,-1.019433856010437
4.081926513671875,-0.1769227933093905,-0.0694497491274029,0.4991635736137628,0.268808364868164,0.2182626277208328,-1.0378117561340332
4.09195361328125,-0.119294917202508,-0.1988410489983856,0.2936585366815328,0.3137936890125274,0.1798811554908752,-1.0383723974227903
4.101981201171875,-0.1419134940474294,-0.3287279503665864,0.0817407100975513,0.3449566066265106,0.1306723058223724,-1.0130122900009155
4.11200927734375,-0.138902366065327,-0.4418080938406288,-0.0097469025105237,0.3577203452587127,0.0600447542965412,-0.962028741836548
4.122037353515625,-0.0124807319381856,-0.50232539864555,-0.0633791239768266,0.3440848290920257,-0.0373446159064769,-0.8911969661712646
4.132064453125,0.092499063806096,-0.554479875709489,-0.0468166962325572,0.3172638714313507,-0.1388568580150604,-0.7976603507995605
4.142092529296875,0.2271504304965957,-0.5715010070066898,0.0229775554835796,0.2827166020870209,-0.2156690955162048,-0.6810932755470276
4.152120361328125,0.3726302935224026,-0.5090319836121052,0.1698784277558326,0.2347613424062729,-0.2549770772457123,-0.5584635138511658
4.1621484375,0.476572387099266,-0.3480209721185267,0.3810211783140897,0.1753197461366653,-0.25709268450737,-0.4507338404655456
4.17217626953125,0.5254021036546677,-0.1072984182674437,0.7033768171697855,0.109555646777153,-0.2173346132040023,-0.3667036294937134
4.18220361328125,0.4519876886799931,0.115632531370595,1.0375058959275485,0.0545014590024948,-0.1524457335472107,-0.3055450320243835
4.192231201171875,0.3508827912904322,0.3355679524544626,1.2926157985061406,0.0250186659395694,-0.076191708445549,-0.2545628249645233
4.20225927734375,0.3631993981584906,0.5266157172281295,1.4104530733793974,0.0196509286761283,-0.0063682864420115,-0.2101108729839325
4.212287353515625,0.4528732393428683,0.697974300539121,1.4509884973853826,0.0262678191065788,0.0604344457387924,-0.1721235364675521
4.222315185546875,0.478596001881361,0.8384938742764294,1.4521522804677485,0.0367293134331703,0.1173160895705223,-0.1442896127700805
4.232342041015625,0.4921291449323296,0.9434004289712756,1.4118348831266163,0.0448032170534133,0.1683518439531326,-0.1270118355751037
4.2423701171875,0.4880288334740325,1.0125392855186015,1.336002520290017,0.0510219745337963,0.2320521622896194,-0.1110113784670829
4.252398193359375,0.4704932863812893,1.0743633620731532,1.199668634739518,0.0509034618735313,0.2768470644950866,-0.1018189489841461
4.26242626953125,0.444232434910722,1.1759571389582006,1.0234808777064084,0.0506684146821498,0.2793436050415039,-0.1119866743683815
4.272453369140625,0.4198451587596908,1.2416833375178278,0.8350842119634151,0.052903339266777,0.2402425110340118,-0.144051656126976
4.282481201171875,0.3903787892460822,1.2301597807236015,0.5949211186259985,0.0666579604148864,0.1657897233963012,-0.1848529577255249
4.29250927734375,0.3415882356572896,1.233885230987519,0.3248246593177318,0.0864002406597137,0.072474680840969,-0.2329222112894058
4.302537353515625,0.3338913975443691,1.2901242739513517,0.1252946051418781,0.1176490932703018,-0.0089682694524526,-0.2742764353752136
4.312565185546875,0.3880534515710547,1.3180766952380538,-0.1095779805719852,0.157529130578041,-0.0861189812421798,-0.2901406288146972
4.322592041015625,0.5521924588920548,1.3293237731784582,-0.321446707317233,0.1832102090120315,-0.1475927084684372,-0.2764000296592712
4.3326201171875,0.7150196894947439,1.3886989222109316,-0.3667454002022743,0.1774055808782577,-0.1721577197313308,-0.253586858510971
4.342648193359375,0.812547678245604,1.4606274094767868,-0.306978036981821,0.1408491283655166,-0.1735346168279647,-0.2309208363294601
4.35267626953125,0.8503068424712866,1.4740405794098972,-0.2334995437949895,0.0932206138968467,-0.1633530855178833,-0.2054207921028137
4.362703125,0.8871168892785907,1.4454104049921035,-0.1818289777904748,0.0397733598947525,-0.1462255418300628,-0.1665928065776825
4.382133056640625,1.2352464363381266,1.21783995898515,-0.1613607747793197,-0.0539360344409942,-0.068985529243946,-0.0595848932862281
4.3921611328125,1.2854798091463744,1.1345054038248956,-0.1957423523306846,-0.1021698787808418,-0.0174003634601831,0.0047690621577203
4.402189208984375,1.3088709138669072,1.053210683929175,-0.1799053162515163,-0.159979835152626,0.0089853145182132,0.0617796778678894
4.41221630859375,1.3371575355440375,1.0009926401097329,-0.1320879185438156,-0.2141996622085571,0.0003225845284759,0.1026245802640914
4.422244140625,1.2614933688811958,0.987071301458776,-0.1682902817815542,-0.2434312552213668,-0.0118950549513101,0.1185780465602874
4.432272216796875,1.0773037994392216,1.0456354994345456,-0.2263654541313648,-0.2530748248100281,-0.0169539954513311,0.1185689941048622
4.44230029296875,0.8780380952879786,1.097487267224863,-0.1747778902351856,-0.2509475946426391,-0.0048460168763995,0.1111824810504913
4.4523271484375,0.6301425080023706,1.105883266583085,-0.2029272953987121,-0.2375694811344146,0.0263369344174861,0.1036750301718711
4.462355224609375,0.4244902811517939,1.1252343751978129,-0.2399222703188657,-0.2258276045322418,0.0529704093933105,0.1049557477235794
4.472383056640625,0.3345232657071202,1.1140035908050834,-0.304434197717905,-0.2174735367298126,0.0635471567511558,0.1230284944176673
4.482411376953125,0.1881473306244239,1.0705655041601507,-0.3790092539697885,-0.2301341146230697,0.0396399982273578,0.1445638537406921
4.492439208984375,0.0366525158747448,1.017989952139929,-0.3549924185663461,-0.2668378055095672,-0.0219027269631624,0.1588684916496276
4.502466552734375,-0.0661469949546968,0.9430253851138056,-0.3540811489403248,-0.3089862465858459,-0.10391366481781,0.1678126901388168
4.512494140625,-0.1250348582271486,0.8932355182893573,-0.434195719140768,-0.3219792544841766,-0.1853688359260559,0.1718274056911468
4.522522216796875,-0.2599252304384484,0.9286332871459424,-0.5574211167931556,-0.3109003901481628,-0.2249055206775665,0.1705133765935897
4.53255029296875,-0.3469201712697744,0.9032173985995352,-0.5964227553606033,-0.2774745225906372,-0.2287889420986175,0.1675034612417221
4.542578369140625,-0.4892482192011549,0.8117216026850044,-0.6096124918013811,-0.2392623424530029,-0.2049438804388046,0.1440626233816146
4.552605224609375,-0.7313296768479048,0.7083171961814164,-0.6676625297099351,-0.211967334151268,-0.1467625945806503,0.1010762900114059
4.562633056640625,-0.832083203516528,0.4977760647781193,-0.7630810520261526,-0.1937716603279113,-0.0806635469198226,0.054000686854124
4.572661376953125,-0.7270658819235861,0.2569969949668273,-0.9234861335158348,-0.1788031011819839,-0.0166597999632358,0.0364531204104423
4.582689208984375,-0.4948422032833099,0.031392807531543,-1.0996125157505272,-0.1700679659843444,0.0423452593386173,0.0494196191430091
4.59271630859375,-0.291658174910862,-0.1520160963941365,-1.2448708815127612,-0.1799695938825607,0.0756275802850723,0.0897595882415771
4.602744140625,-0.135058340056194,-0.3271034544372931,-1.30386316870749,-0.2027984708547592,0.0631986632943153,0.1383642256259918
4.6127724609375,-0.0074050886247307,-0.5601592730527744,-1.3017372625946997,-0.2380059957504272,0.0013965477701276,0.1817407310009002
4.62280029296875,0.1969253150375559,-0.8079394537977874,-1.2432301285684109,-0.2615910768508911,-0.1159619092941284,0.2312211543321609
4.632828125,0.40689767010957,-0.9665943306192756,-1.084676227903366,-0.2704601883888244,-0.2583228051662445,0.2854609489440918
4.642855224609375,0.5497186161244287,-1.0385097392078488,-0.8354922082424163,-0.2708287537097931,-0.3766835927963257,0.3413094580173492
4.652883056640625,0.6210367529395967,-0.982409958584234,-0.4667079956889152,-0.2687871754169464,-0.4383299052715301,0.3905076384544372
4.662911376953125,0.5590076918648555,-0.8553327808745205,-0.0773158793926239,-0.2696358263492584,-0.4365401268005371,0.4309432804584503
4.672939208984375,0.5340344690520316,-0.7540932973198592,0.3675882807672023,-0.2820906341075897,-0.3799812197685241,0.4693061113357544
4.682966064453125,0.5312334401566535,-0.6958302742477506,0.7594727984011173,-0.3107529282569885,-0.288575679063797,0.506812334060669
4.692994140625,0.5193657095672563,-0.694211952330917,1.0890852765172718,-0.353079080581665,-0.192602276802063,0.5292561054229736
4.703022216796875,0.4170773745467886,-0.7450039088699967,1.2828367472916842,-0.3873145282268524,-0.1046315059065818,0.5275954008102417
4.71305029296875,0.2659135841330513,-0.787225459332019,1.3445149125695228,-0.4039414525032043,-0.0435820072889328,0.4995134472846985
4.723078369140625,0.0952562809592112,-0.753181077845767,1.36762749260962,-0.396856814622879,-0.0085953818634152,0.4449962079524994
4.733105224609375,-0.110438433326222,-0.7163336947027593,1.2977350412160158,-0.358006089925766,0.013064906001091,0.3641394376754761
4.74313330078125,-0.3259873098889365,-0.7309329326152801,1.1829431253880265,-0.2947171032428741,0.0072559127584099,0.2673808634281158
4.753161376953125,-0.4456506676781922,-0.7793213351439684,1.1138456237643957,-0.2148553133010864,-0.0264887362718582,0.1615910530090332
4.763189208984375,-0.5291621137753129,-0.8385402707014232,1.0550725322782992,-0.1240915358066558,-0.076674684882164,0.0488971471786499
4.773217529296875,-0.621323095600307,-0.863841300696507,0.98737145344913,-0.0250696074217557,-0.104999803006649,-0.063086912035942
4.783244140625,-0.6345768371880054,-0.8691400646917521,0.922720994362235,0.0759493857622146,-0.090973675251007,-0.1559629440307617
4.793272216796875,-0.6085106315067037,-0.8645603356860577,0.9000696020931005,0.1590876877307891,-0.0322499051690101,-0.2262421697378158
4.80330029296875,-0.5750192077280953,-0.9152893099915236,0.8486696697235107,0.2108034640550613,0.0616729967296123,-0.2823900878429413
4.813328369140625,-0.4574143899038433,-1.013902463630587,0.7328361358880996,0.2329170256853103,0.1577800959348678,-0.3265998959541321
4.823355224609375,-0.3747931341120973,-1.0670952707663175,0.642468467220664,0.2271030098199844,0.2547632157802582,-0.3567816615104675
4.83338330078125,-0.4030442460844293,-1.108599028347805,0.3997708869695663,0.200512409210205,0.3417753279209137,-0.3747630417346954
4.843411376953125,-0.3808755227657034,-1.1698583836916834,0.1592997505962848,0.1636019200086593,0.3685391247272491,-0.3809842467308044
4.853439208984375,-0.287258460380882,-1.2458261364109813,-0.0826572404205799,0.1371881514787674,0.3225159645080566,-0.3798670470714569
4.86346728515625,-0.2647676107020117,-1.3108030509732662,-0.3216331698000431,0.1338187009096145,0.2354497909545898,-0.3710167109966278
4.873494384765625,-0.2660007692261599,-1.259798255401105,-0.4038701389819383,0.1448114365339279,0.1222161799669265,-0.3562105894088745
4.883522216796875,-0.1726786164009943,-1.1435665160283446,-0.3409077791124582,0.161457747220993,-0.0023905811831355,-0.3315166532993316
4.89355029296875,-0.1736573435063473,-0.9803835673231632,-0.1182101998388767,0.1749953925609588,-0.1073159351944923,-0.3125490844249725
4.903578125,-0.21961952353511,-0.7479949804447591,0.2119488062441349,0.1789368093013763,-0.1585533618927002,-0.2999850511550903
4.913605224609375,-0.2638844163930043,-0.4604849564556032,0.537505871489644,0.174141526222229,-0.1522549986839294,-0.2987107336521148
4.92363330078125,-0.2534317402333021,-0.15609507280346,0.8212146765649319,0.157781571149826,-0.1156734675168991,-0.2939279675483703
4.933661376953125,-0.3039905456036329,0.0841254132770001,1.0633353337109088,0.1432351171970367,-0.0561068095266819,-0.3083606958389282
4.943689453125,-0.450744154892303,0.2630656108234077,1.1603846720993518,0.1412018984556198,0.0274108126759529,-0.3361339569091797
4.953717041015625,-0.547987225754559,0.4437002277301624,1.1411199996590613,0.1416226774454116,0.1129265129566192,-0.3666076958179474
4.963744384765625,-0.550775395168364,0.5819351976616308,1.036602809607983,0.1447382122278213,0.1778726726770401,-0.393732875585556
4.973772216796875,-0.6243580063167959,0.6325935544162988,0.862412363871932,0.154606282711029,0.2079631984233856,-0.4306746423244476
4.98380029296875,-0.6997603802382946,0.6388062914513051,0.6537362956881523,0.1727457046508789,0.2159508466720581,-0.467361569404602
4.993828125,-0.6696029962532222,0.635263942669332,0.4623877944022417,0.1955950856208801,0.1920143514871597,-0.4904682338237762
5.003855224609375,-0.5921432514104992,0.6554043750308454,0.3001315320879221,0.2153192162513733,0.1550462692975998,-0.4919897019863128
5.01388330078125,-0.5413699995718896,0.6672429891236126,0.192858321326971,0.230916291475296,0.119690403342247,-0.4830582439899444
5.0239111328125,-0.5396574235003442,0.6970460797782987,0.1181651916533708,0.2444421052932739,0.1087468564510345,-0.4661226570606231
5.033939208984375,-0.5612531692367047,0.7521116219833492,0.0701519791126251,0.2422109097242355,0.1172998696565628,-0.4504702091217041
5.043967041015625,-0.6173513424251228,0.8146614555291831,0.0507300702840089,0.2228506803512573,0.1461113095283508,-0.436462253332138
5.053994384765625,-0.5981194032106548,0.8304746723413466,-0.0040425533890724,0.1924150139093399,0.1840962469577789,-0.4239914715290069
5.064022216796875,-0.5478820118144154,0.8260236842818558,-0.0792886407703161,0.1515420973300933,0.2180514484643936,-0.4105079770088196
5.074050537109375,-0.4647556560447439,0.8214685051955283,-0.1865104136049747,0.1101395264267921,0.2543681859970093,-0.3882785737514496
5.084078125,-0.3903395532142371,0.8234856171716004,-0.345322672945261,0.0715092197060585,0.2939138114452362,-0.3612037003040313
5.094105224609375,-0.3304922931579873,0.8150528659995645,-0.4667243623018264,0.0331847295165061,0.3229084312915802,-0.3338919281959533
5.10413330078125,-0.2674849981682375,0.7572680548984557,-0.5356172812640667,-0.0068202819675207,0.3296977579593658,-0.3135081529617309
5.1141611328125,-0.1774363323220983,0.6778763190798461,-0.5927209782332181,-0.0428600423038005,0.308279275894165,-0.3024166226387024
5.124189208984375,-0.1841851124625653,0.6196931563109159,-0.6131985335946083,-0.0701955407857894,0.2628804743289947,-0.309225857257843
5.134217041015625,-0.2063249750129878,0.5986990662621334,-0.6963117010891438,-0.0728467181324958,0.2012280374765396,-0.3269124329090118
5.144244384765625,-0.1748516495911404,0.596607025886327,-0.7543208224654198,-0.0536158978939056,0.1285361051559448,-0.3465112149715423
5.154272216796875,-0.21577187166363,0.6265259249404073,-0.7178466565489768,-0.0250420421361923,0.0634042471647262,-0.3726203143596649
5.164300537109375,-0.3134739748723805,0.6991866720035672,-0.6114426298379898,0.0003355315420776,0.0275571141391992,-0.4081791341304779
5.174328125,-0.3982229268752038,0.7425254629924893,-0.4490162716537714,0.0160063691437244,0.0207146536558866,-0.449005126953125
5.184356201171875,-0.5006021550495178,0.7993314921893179,-0.3231710468918085,0.0215026400983333,0.0421850159764289,-0.4907554984092712
5.19438330078125,-0.520781019725278,0.8248717377677559,-0.2654676304638386,0.0201436318457126,0.0729381367564201,-0.5204508304595947
5.204411376953125,-0.4845014995981007,0.7856992726780474,-0.2742489028126001,0.0148751344531774,0.1114449873566627,-0.5282920598983765
5.214439208984375,-0.4518100670907646,0.7165653845667839,-0.3099941699326038,0.0033636211883276,0.1481486707925796,-0.5129250884056091
5.224467529296875,-0.3804414421973749,0.6603301409952342,-0.3539467089056968,-0.0209047980606555,0.1698132902383804,-0.4747813045978546
5.23449462890625,-0.2959551231861114,0.5932115382291376,-0.3837199158787727,-0.0540387816727161,0.1682537347078323,-0.4255591630935669
5.244522705078125,-0.2262977774563245,0.5233673829566687,-0.3953437181770801,-0.0925304815173149,0.1482850462198257,-0.3743458092212677
5.254550537109375,-0.1861245560925453,0.5216893302092328,-0.355251946285367,-0.127816304564476,0.119552195072174,-0.3167884945869446
5.26457861328125,-0.1225335611970163,0.5974329553164541,-0.2561158647507429,-0.1655300557613372,0.0988755598664283,-0.2549000382423401
5.274606689453125,-0.0937193537155166,0.7032797134708613,-0.1310521457552909,-0.2076213061809539,0.0985208302736282,-0.1917969584465026
5.2846337890625,-0.1621385542187839,0.8841674648884683,0.0643698885798454,-0.2640771865844726,0.112139843404293,-0.1507823169231414
5.294661865234375,-0.381409446979314,1.048061995929107,0.1926157447427511,-0.3287464678287506,0.1406351327896118,-0.1462464183568954
5.304689453125,-0.6041369099345058,1.1424342240627854,0.2193243034482002,-0.3805237114429474,0.1630093604326248,-0.1794537752866745
5.314717529296875,-0.8192308823365718,1.229283436280489,0.1249374622672796,-0.4053073525428772,0.1628501117229461,-0.2416945099830627
5.32474462890625,-0.9888355346523224,1.3214488020196555,-0.0422948348939418,-0.3955890536308288,0.1486705839633941,-0.3157231509685516
5.334772705078125,-1.2045464699089523,1.4094775063455105,-0.3194786221146583,-0.3492207825183868,0.1560510098934173,-0.4002487063407898
5.344800537109375,-1.4735203549280762,1.469880244860053,-0.6501777264237404,-0.2710783779621124,0.1761976182460785,-0.4928309917449951
5.35482861328125,-1.6210742842815815,1.4569031282566487,-1.0459896466344594,-0.1747798174619674,0.2123082280158996,-0.5803517699241638
5.364856689453125,-1.6070941281154751,1.364025960986316,-1.420989080440998,-0.0891529023647308,0.2271600514650344,-0.6469760537147522
5.374883544921875,-1.3549120956823228,1.076523754977435,-1.6252677904486654,-0.0378260612487793,0.1832826137542724,-0.6965835690498352
5.384911865234375,-0.984571155206114,0.5755979209315032,-1.7435785280525684,-0.0049634417518973,0.0691905617713928,-0.7259095311164856
5.394939453125,-0.5155500237366184,0.0156208543115295,-1.783488513636589,0.0109233791008591,-0.0953110381960868,-0.7277945280075073
5.404967529296875,-0.0567140765970572,-0.424490683010593,-1.6987077051907775,0.0037881173193454,-0.2798976302146911,-0.6964253187179565
5.41499462890625,0.3650867462750524,-0.7671367571577429,-1.46919576972723,-0.0175448693335056,-0.4625119268894195,-0.6396826505661011
5.42502294921875,0.6897131796069442,-1.0473093509308993,-1.0826274786800143,-0.0547433830797672,-0.6039994359016418,-0.5795696377754211
5.435050537109375,0.932435017516464,-1.2397248969264327,-0.6986264077723026,-0.0886536762118339,-0.6765343546867371,-0.5208823680877686
5.44507861328125,1.1689635537438094,-1.3309488901622593,-0.3364338485687971,-0.1147100105881691,-0.6866174340248108,-0.456614077091217
5.455106689453125,1.4532228323087095,-1.3851578886032103,0.0302402399629354,-0.1295131891965866,-0.6477901339530945,-0.3834711611270904
5.465133544921875,1.6310228468440473,-1.444649503622204,0.4031599448859691,-0.1496442854404449,-0.5697394609451294,-0.317136138677597
5.47516162109375,1.6852002811029552,-1.5031038845479487,0.765959822332859,-0.1796242892742157,-0.4767453372478485,-0.26666259765625
5.485189453125,1.6997323720633983,-1.5628519585460423,1.0783715748012066,-0.2158640921115875,-0.3807335793972015,-0.2329325675964355
5.4952177734375,1.639804557584226,-1.5814292332440614,1.2985954574376344,-0.2443455308675766,-0.3018464744091034,-0.2193784117698669
5.50524560546875,1.5039400431111454,-1.6032982429638505,1.408570328372717,-0.2596768140792846,-0.2450060546398162,-0.2241624295711517
5.51527294921875,1.3834990154802798,-1.5807400819361208,1.464876152962446,-0.2517696321010589,-0.201516643166542,-0.2410782873630523
5.525300537109375,1.3094424301445484,-1.500149126395583,1.4793465768635272,-0.2264969795942306,-0.1723427474498748,-0.264383465051651
5.53532861328125,1.1831360176116228,-1.3870540776133538,1.4479612585186958,-0.1738396286964416,-0.148327961564064,-0.3054355680942535
5.545356689453125,0.8843300350390374,-1.2127944390986114,1.3750894990533589,-0.101412758231163,-0.1324889361858368,-0.3747234940528869
5.5553837890625,0.5858653401847929,-1.0606777318742129,1.2460931167840956,-0.0114812748506665,-0.1211220324039459,-0.4683929979801178
5.56541162109375,0.3478711883842945,-0.936477790101245,1.0479659151434897,0.1031676605343818,-0.1183393001556396,-0.5690661072731018
5.575439453125,0.1820549685660749,-0.8416902591649442,0.871207664746046,0.2290611416101455,-0.1239311322569847,-0.6607566475868225
5.5854677734375,0.100701869546622,-0.7429316326405853,0.7169546761453152,0.3457192778587341,-0.1201608553528785,-0.723721981048584
5.59549560546875,0.0336350335003808,-0.6744371384114026,0.6553168428778648,0.4233512282371521,-0.1093121990561485,-0.7622470259666443
5.605522705078125,0.0670069408188574,-0.721690180234611,0.5785165117919445,0.4593206644058227,-0.0782277658581733,-0.7740750312805176
5.615550537109375,0.2329954849966801,-0.8337070053260773,0.474742833584547,0.4704100787639618,-0.047026440501213,-0.7503766417503357
5.625578857421875,0.4224466830275952,-0.8826808065272868,0.4430792828202247,0.4467905759811401,-0.0321213938295841,-0.6872970461845398
5.635606689453125,0.5581769766617566,-0.9352826620325444,0.4508119228988885,0.3990081250667572,-0.0395691879093647,-0.5997229814529419
5.645633544921875,0.6311300577349961,-0.9302415260601788,0.4781131868004799,0.3331114053726196,-0.0545785427093505,-0.4991628229618072
5.65566162109375,0.5661129572927951,-0.8574163091503083,0.5436404287219048,0.2565449774265289,-0.0739261358976364,-0.4020479917526245
5.665689453125,0.4920910048790275,-0.6943664122402667,0.6731891841769218,0.1855766028165817,-0.100503385066986,-0.3179126381874084
5.6757177734375,0.2952978100548498,-0.4600514604091644,0.7433078455418348,0.1297588795423507,-0.126601830124855,-0.2681871652603149
5.68574560546875,0.1638043685391545,-0.2485699794158339,0.7979191411733627,0.1086344420909881,-0.1480217576026916,-0.242534726858139
5.6957724609375,0.1093501631654799,-0.0374330740764737,0.8469622812837362,0.1153999343514442,-0.1523941308259964,-0.2343737334012985
5.705800537109375,0.0678030048336833,0.1642037796529009,0.8917267211616039,0.1332130432128906,-0.1487507671117782,-0.2380844056606292
5.71582861328125,0.0973905530415475,0.3126462918765842,1.006715036344528,0.1523467898368835,-0.1441043466329574,-0.2467269003391266
5.725856689453125,0.1883738511229865,0.368472260527499,1.0689742163807152,0.1554837971925735,-0.1225989013910293,-0.2507226467132568
5.735883544921875,0.2985394953898154,0.4534396775865927,1.14520697671175,0.1409594565629959,-0.0965955406427383,-0.2472381591796875
5.74591162109375,0.4678816791107877,0.5424475656755269,1.221453765568137,0.1040438637137413,-0.0704010352492332,-0.2332780808210373
5.755939697265625,0.5782770770128816,0.6000603081453592,1.2170143218159677,0.0577402859926223,-0.0365977995097637,-0.2150215804576873
5.7659677734375,0.6801151109825819,0.6612013708718121,1.138382683649659,0.0123863378539681,0.0019582980312407,-0.1981576234102249
5.77599560546875,0.7643309790220111,0.7344497085645795,1.0481132146596908,-0.0327587686479091,0.0400399044156074,-0.1886924803256988
5.7860224609375,0.7999454593691975,0.7840382075980306,0.982705215203762,-0.0796641632914543,0.0710025951266288,-0.1925871968269348
5.796050537109375,0.796818194194138,0.8136255366101861,0.9147305801302194,-0.1177233979105949,0.0970057025551796,-0.2101597934961319
5.80607861328125,0.7352068836074322,0.8824571538392454,0.7867845836967229,-0.1373768597841262,0.1170346587896347,-0.2447854727506637
5.816106689453125,0.6753381058391184,0.9421829429402948,0.579716535231471,-0.137753427028656,0.1110364198684692,-0.2941053509712219
5.826133544921875,0.7226660395294427,0.9250422769166528,0.4061953670591116,-0.1193934082984924,0.0748311504721641,-0.3568086326122284
5.83616162109375,0.7214379590392113,0.8692530235469341,0.2358493217915296,-0.084800012409687,0.0095823742449283,-0.4274564385414123
5.846189697265625,0.6898333719205111,0.782739765285328,0.1077910971552133,-0.0406677387654781,-0.0733883678913116,-0.4941734373569488
5.8562177734375,0.7500660876303911,0.7416712573159485,0.0367944839119911,-0.0041701840236783,-0.1681851893663406,-0.5362687110900879
5.866245849609375,0.8552365539584308,0.6830680425040423,0.0605985533475875,0.0129708172753453,-0.2553020417690277,-0.5660519599914551
5.8762724609375,0.881537920102477,0.5902755578424781,0.1050397526204586,0.0176451988518238,-0.3143459260463714,-0.59168541431427
5.88630078125,0.8654899446863681,0.4949802600471302,0.1214274083197116,0.0210296623408794,-0.3376318216323852,-0.5977543592453003
5.89632861328125,0.916777575787902,0.497465427926369,0.2069710178315639,0.0057308683171868,-0.3401908576488495,-0.5797692537307739
5.906356689453125,0.9327966904357076,0.545895002715662,0.3067377984851598,-0.0192707180976867,-0.3240584433078766,-0.5513031482696533
5.916383544921875,0.7930567227687686,0.5205675596376881,0.3907674963027238,-0.0489937253296375,-0.2957106828689575,-0.5324426293373108
5.92641162109375,0.6540811636030673,0.4892536260286346,0.3959393459826708,-0.0703218430280685,-0.2656109631061554,-0.5254682898521423
5.936439697265625,0.4904686643742024,0.4768081686165183,0.3307821064174175,-0.0846243500709533,-0.2343014925718307,-0.5228424072265625
5.9464677734375,0.4481823781128972,0.4522046193663031,0.239403214880824,-0.0911567136645317,-0.2116030007600784,-0.5085630416870117
5.956495849609375,0.3387392394343391,0.4199492401886731,0.1570405734926462,-0.0916438028216362,-0.2054684162139892,-0.5052090287208557
5.9665224609375,0.2375291646372526,0.3742155899524688,0.0336263752698898,-0.0870617926120758,-0.2106610983610153,-0.5057278871536255
5.97655078125,0.1859600862458348,0.3578908799542113,-0.0539876107752323,-0.0805072262883186,-0.2233286947011947,-0.5090739130973816
5.98657861328125,0.0797496824108064,0.3828086827853694,-0.1378355222851038,-0.0824615508317947,-0.2317788451910019,-0.514373779296875
5.996606689453125,-0.0434692489681765,0.3847736992480233,-0.2169651731014251,-0.0918135046958923,-0.2383872270584106,-0.5107824802398682
6.006633544921875,-0.0003027823388576,0.3952145388394594,-0.2388420738667249,-0.1110665202140808,-0.2511801421642303,-0.4936292469501495
6.01666162109375,-0.0522981233183294,0.4355575820785015,-0.2280447855204343,-0.1376717537641525,-0.2755408883094787,-0.4739455580711365
6.026689697265625,-0.1575103829614818,0.4555415452366694,-0.2092705269455909,-0.1660251319408416,-0.2851930260658264,-0.4629481434822082
6.036717529296875,-0.2635283329643308,0.5141390244275331,-0.2297866607517004,-0.1917296946048736,-0.2583600878715515,-0.4553245604038238
6.046745849609375,-0.3729710697840899,0.6279724704869091,-0.2146685865968465,-0.2209012061357498,-0.1895387470722198,-0.4580824077129364
6.0567724609375,-0.4415807148255407,0.7078774165246635,-0.2592091545909643,-0.2553873062133789,-0.085084244608879,-0.4678753912448883
6.06680078125,-0.488653504711017,0.7193341186277568,-0.3629290567845106,-0.2928427457809448,0.0218227989971637,-0.5028481483459473
6.07682861328125,-0.4861717708978801,0.6539379557400942,-0.5392331336736679,-0.3289022147655487,0.1123955771327018,-0.5559494495391846
6.08685693359375,-0.5259586415588855,0.5352594442697242,-0.8255828086465596,-0.3515216708183288,0.1811140030622482,-0.6370629668235779
6.096883544921875,-0.6281295607447623,0.3397754871468991,-1.2125438984036443,-0.3463514149188995,0.2133784592151641,-0.7380124926567078
6.10691162109375,-0.6165576347641647,0.0903848389979451,-1.6177034926742315,-0.3104510605335235,0.2085800170898437,-0.8327044248580933
6.116939697265625,-0.4118260664224624,-0.2053853195426985,-1.9288778123021124,-0.2532442212104797,0.1377633661031723,-0.9006912112236023
6.1269677734375,-0.054200669004023,-0.548737532665208,-1.9700754996091123,-0.1964872777462005,-0.0201433356851339,-0.9361313581466676
6.13699560546875,0.3039403497863561,-0.9237789059173316,-1.789464080914855,-0.1504510790109634,-0.2401193678379058,-0.9502825736999512
6.147022705078125,0.5382144581504166,-1.2238850113030522,-1.4966753128051755,-0.1209503263235092,-0.4594900012016296,-0.9547988176345824
6.15705078125,0.5833365523595363,-1.3283490829274058,-1.1140215648531913,-0.0968271493911743,-0.6310654878616333,-0.9565724730491638
6.16707861328125,0.5733152168218046,-1.2748027861788869,-0.6807476367324591,-0.0728601589798927,-0.7088263034820557,-0.9474968314170836
6.17710693359375,0.6095798316407949,-1.1467971685126424,-0.2618207983940839,-0.0560308434069156,-0.6931139230728149,-0.9235014915466307
6.187134521484375,0.6700106272060423,-1.0238022916805,0.114326636403799,-0.0535249412059783,-0.6017476320266724,-0.8867334723472595
6.19716162109375,0.7198858342263847,-0.9684447807915508,0.4712409629434347,-0.0731042325496673,-0.4447153806686401,-0.8336926102638245
6.207189697265625,0.7858563629359007,-0.9335622679807244,0.6499819115906953,-0.1105343401432037,-0.2500033974647522,-0.7602880597114563
6.2172177734375,0.9367454280614852,-0.9658925390254706,0.6691022071242332,-0.1605117619037628,-0.0592779368162155,-0.675295889377594
6.2272451171875,0.9993745373886078,-1.0282312871038912,0.7197790859162807,-0.2147238254547119,0.0661807581782341,-0.5916696786880493
6.2372724609375,0.924962270483002,-1.0663185873053966,0.5989706862777471,-0.2606822550296783,0.1483552604913711,-0.5318872928619385
6.24730029296875,0.7085095769483596,-1.0408933464087544,0.3739396956205368,-0.2765786647796631,0.1770286560058593,-0.5068541765213013
6.257328369140625,0.433144237326458,-0.9928966466113924,0.1792798778295516,-0.2551202476024627,0.1675826907157898,-0.5153518319129944
6.267356201171875,0.1569173855043947,-0.899222410679236,-0.041692192825675,-0.1981287598609924,0.1355053186416626,-0.5473032593727112
6.27738330078125,-0.0124126145884394,-0.8548029848467558,-0.1445358967065811,-0.1137398332357406,0.0714586898684501,-0.5897761583328247
6.287411376953125,-0.1623690019737929,-0.8141667308147996,-0.2421568975031375,-0.0080673564225435,0.0146271819248795,-0.6464608311653137
6.297439208984375,-0.3384160353619605,-0.7818382133357227,-0.2821393638014793,0.0934478193521499,-0.0156148765236139,-0.7097705602645874
6.30746728515625,-0.4159225419558584,-0.7608843456994742,-0.2761825012236833,0.1807074397802353,-0.0120195699855685,-0.7651246190071106
6.3174951171875,-0.4215562369938939,-0.7983555598292499,-0.3120002490580081,0.2416837066411972,0.0249144807457923,-0.7953981161117554
6.327522216796875,-0.373475366044417,-0.8466258158709853,-0.3045616234898567,0.2615308165550232,0.072107620537281,-0.7991693019866943
6.33755029296875,-0.2046532424084842,-0.9417756773136556,-0.3117687783896923,0.2486560195684433,0.1085689589381218,-0.7667146921157837
6.347578125,0.0103187110491096,-1.0894899117954076,-0.3352905237525701,0.2172800153493881,0.115863524377346,-0.7004609107971191
6.357606201171875,0.2123527108699083,-1.176007846232131,-0.3393985435932874,0.1706509888172149,0.1032923385500907,-0.6021401882171631
6.36763330078125,0.3649293637562543,-1.1565643831588328,-0.3181909203916788,0.1139980480074882,0.0808417871594429,-0.4886464774608612
6.377661376953125,0.467915033391118,-1.087410694368556,-0.2011713916420936,0.0517147034406662,0.0595498159527778,-0.3828026056289673
6.387689453125,0.4847456836175173,-0.9943589742489158,-0.0602671294361352,-0.0078425128012895,0.042971882969141,-0.3069495260715484
6.39771728515625,0.4093154718410223,-0.8443683192677796,0.0977373206526041,-0.0454628579318523,0.0442952066659927,-0.2733686566352844
6.4077451171875,0.3066339727845042,-0.5556995536975562,0.2455015317559242,-0.0596379786729812,0.0498697757720947,-0.2667113244533539
6.417772216796875,0.2447460372135043,-0.3294797185819595,0.371706822001934,-0.0511424988508224,0.073487214744091,-0.2813184857368469
6.42780029296875,0.237171291110292,-0.1919143002088181,0.5109510420411825,-0.0316767506301403,0.0972445458173751,-0.3040500283241272
6.437828125,0.2703312909774482,-0.0823316982606425,0.7054115378677844,-0.015843991190195,0.1222324520349502,-0.3323312103748321
6.447856201171875,0.285090322561562,0.0036416992369107,0.8385621172070503,-0.0138052580878138,0.1490095108747482,-0.3676967024803161
6.45788427734375,0.3109403647415339,0.0710560518128797,0.952249871185422,-0.0197172090411186,0.1612629741430282,-0.4021257758140564
6.467911376953125,0.3293351224794983,0.1487131641249172,0.9932897375822066,-0.0233911126852035,0.1735759675502777,-0.437283307313919
6.477939208984375,0.2817271297387778,0.2649153120770119,0.96247374355793,-0.0186472237110137,0.2002219557762146,-0.4763563871383667
6.48796728515625,0.1337874159380793,0.396010146196559,0.8923229334890842,-0.0045990487560629,0.231699451804161,-0.5293259024620056
6.497995361328125,0.0032133360233157,0.5163079659644514,0.8175362803131342,0.0106869637966156,0.2633436620235443,-0.5880240797996521
6.508022216796875,-0.1024056777898222,0.5841719802703708,0.7350655023753643,0.0224906485527753,0.2892983257770538,-0.6534366011619568
6.518050537109375,-0.228760678704828,0.6441489676535129,0.6586322510361671,0.0308846663683652,0.3069787919521332,-0.726262629032135
6.528078125,-0.4031189552884548,0.672317296713218,0.5733452466338873,0.0340541563928127,0.3125652968883514,-0.8114534616470337
6.538106201171875,-0.4817958208359778,0.5898216035299003,0.4515671251803636,0.0404627844691276,0.3020543456077575,-0.8917224407196045
6.54813330078125,-0.5300257813999429,0.4482203355031087,0.2879454197317361,0.054122257977724,0.2713459432125091,-0.9677897691726683
6.558161376953125,-0.5499324780708179,0.3215030406143516,0.1650806720852851,0.0679587125778198,0.2078636288642883,-1.0257418155670166
6.568189208984375,-0.5655155028562993,0.2138698557008989,0.0837824450582265,0.092576116323471,0.1390275955200195,-1.0637257099151611
6.57821728515625,-0.6078575378928334,0.1371803280456922,0.0248947872817516,0.1195778995752334,0.0644702687859535,-1.089361548423767
6.588245361328125,-0.5888176871843636,0.1236232013309374,0.0981032313555479,0.1341402679681778,-0.0080240471288561,-1.0951601266860962
6.598272216796875,-0.6016633228952065,0.1103081945426762,0.1815472382396459,0.1397925615310669,-0.0639221966266632,-1.0924818515777588
6.608300537109375,-0.6694117845300585,0.1289546620193868,0.2788169413805008,0.1359026581048965,-0.0920225754380226,-1.0881099700927734
6.618328125,-0.6754867205295711,0.1738515326378867,0.3951373819500208,0.1243820860981941,-0.1040720418095588,-1.0712395906448364
6.628356201171875,-0.5821101523697376,0.1855988882506266,0.4839239189058542,0.1109945178031921,-0.1029223576188087,-1.0502866506576538
6.63838330078125,-0.5787998953105882,0.1974658881876617,0.537153404790163,0.0994185581803321,-0.0892797783017158,-1.024875283241272
6.648411376953125,-0.6327320861041545,0.2809222065640613,0.5891980648040771,0.0860303416848182,-0.0531851164996624,-0.9980111122131348
6.658439208984375,-0.6692158235665411,0.3854268659271299,0.6313613822728396,0.0712998658418655,0.0002970155328512,-0.9702524542808532
6.668467041015625,-0.6516989446416497,0.4556081441994756,0.6741805333018303,0.0478419363498687,0.0540637038648128,-0.9422428011894226
6.678495361328125,-0.6611672494065016,0.5082135799013078,0.6523176610618829,0.0156296696513891,0.1107285767793655,-0.9155222177505492
6.688522216796875,-0.628291984764859,0.5450566521953791,0.5877461124300957,-0.0115377474576234,0.1574101001024246,-0.8915817141532898
6.69855029296875,-0.6403378849327563,0.5686973842954263,0.4879740710794925,-0.0345916673541069,0.1833713948726654,-0.8764144778251648
6.708578125,-0.6238055600658059,0.6194687729705125,0.3175578831851482,-0.0421511493623256,0.2017861902713775,-0.8618304133415222
6.7186064453125,-0.6124808868445456,0.6908988091949373,0.1826572453081607,-0.0439895279705524,0.2195071280002594,-0.8489013314247131
6.72863330078125,-0.5997450681837275,0.7419698749363421,0.0681365476369857,-0.0470670238137245,0.2388196587562561,-0.8350606560707092
6.7386611328125,-0.578552386822924,0.772880853767693,-0.0394546430319547,-0.0550924614071846,0.2619598507881164,-0.821560800075531
6.748689208984375,-0.5660188127359375,0.7966755708530545,-0.116174894618988,-0.0725670009851455,0.2703046202659607,-0.819210946559906
6.75871728515625,-0.5570218883424997,0.7949694975875318,-0.188535197430849,-0.1008511036634445,0.2615675628185272,-0.8242922425270081
6.768745361328125,-0.4829094811663031,0.7812836481928825,-0.2896165678143501,-0.1377513855695724,0.2308255285024643,-0.8414177894592285
6.7787724609375,-0.4030963050652295,0.7248328621745109,-0.3858054899811744,-0.1694520562887191,0.175088495016098,-0.8572766184806824
6.78880029296875,-0.2563008659288287,0.6655686261706054,-0.503355764606595,-0.1889814883470535,0.1060471087694168,-0.862013041973114
6.798828125,-0.1034903494876809,0.6432574256412684,-0.5607552296519279,-0.1986069530248642,0.0411013960838317,-0.8526368737220764
6.8088564453125,-0.0987959263274446,0.6790683784086257,-0.5483984369039535,-0.2055626958608627,0.0101195368915796,-0.8522790670394897
6.81888330078125,-0.1922718997411429,0.693644235445559,-0.5151368032932281,-0.2031685262918472,0.0211844369769096,-0.8712881803512573
6.8289111328125,-0.3290919613733887,0.7409194891005754,-0.4538824163854122,-0.2084107547998428,0.0542427897453308,-0.9240105152130128
6.838939208984375,-0.6414389049772172,0.7951961459502578,-0.5059755917161702,-0.2137261629104614,0.1110405549407005,-1.018808126449585
6.84896728515625,-0.9263158770490436,0.8245192710682749,-0.6886345905900001,-0.2089427858591079,0.1755004972219467,-1.1358383893966677
6.858995361328125,-1.0692061254404484,0.7723624559167772,-0.987431074681878,-0.1814741492271423,0.2230134308338165,-1.2469518184661863
6.869022216796875,-0.985051486068964,0.6433993913952261,-1.337996324455738,-0.1316803842782974,0.2353081554174423,-1.3274558782577517
6.87905029296875,-0.6172608145974576,0.3434522028982639,-1.6436112563908098,-0.0732141286134719,0.2001919895410537,-1.3669391870498655
6.889078125,-0.1616159185841679,-0.0576398862050846,-1.7729051603019237,-0.0274205263704061,0.1238389462232589,-1.3715585470199585
6.8991064453125,0.2599725036462769,-0.4507344006832688,-1.758583204960823,-0.0076393643394112,0.0323551036417484,-1.3658039569854736
6.909133544921875,0.5602746795933693,-0.722735086177662,-1.6773130349844694,-0.0117168556898832,-0.0433989167213439,-1.3575862646102903
6.9191611328125,0.8216669503770768,-0.8831818879172205,-1.5986095006257297,-0.0253011081367731,-0.0956448167562484,-1.3306246995925903
6.929189208984375,1.1486780138231814,-1.0117324991803616,-1.4609510884732009,-0.043244082480669,-0.1358999460935592,-1.2737070322036743
6.93921728515625,1.475012639312446,-1.118339720313251,-1.235592765557766,-0.0668261051177978,-0.162344604730606,-1.1957437992095947
6.949245361328125,1.6730255669236185,-1.2027258303530513,-0.9318062180936336,-0.0979557484388351,-0.190491184592247,-1.1025588512420654
6.959272216796875,1.858052171711624,-1.2447799883589148,-0.5334416907906532,-0.1405703276395797,-0.2355825006961822,-0.999744951725006
6.969300048828125,2.004749045844376,-1.2340890829965472,-0.0843792419075965,-0.1791743040084839,-0.2841276228427887,-0.8989176750183105
6.979328369140625,1.9682053218230604,-1.152542141905427,0.3264309254705905,-0.210448071360588,-0.3234968483448028,-0.8178752660751343
6.989356201171875,1.961018625189364,-1.0328878807380797,0.7120920385450125,-0.21271713078022,-0.3481606543064117,-0.754685640335083
6.999383544921875,1.8548447539724409,-0.8789222577113658,1.0790221476644275,-0.2028855383396148,-0.3393746316432953,-0.707312822341919
7.0094111328125,1.7104491425193846,-0.7125897589340806,1.4750328053176402,-0.1876495629549026,-0.2979781031608581,-0.6878530979156494
7.019439208984375,1.591627971175313,-0.5235544299613684,1.7473095312744378,-0.1676534712314605,-0.22952900826931,-0.6908974051475525
7.02946728515625,1.399793439938128,-0.3121590198162943,1.8507716593146324,-0.1403276771306991,-0.1419257372617721,-0.7160516977310181
7.039495361328125,1.088990583971143,-0.086793280779384,1.9215666125059128,-0.1125133633613586,-0.0260334908962249,-0.7564177513122559
7.049522216796875,0.840243932814151,0.1112363148387987,1.7886089253902435,-0.0752788782119751,0.0963260382413864,-0.8122849464416504
7.059550048828125,0.6924116979759186,0.1815445713585242,1.5468500872939823,-0.0129060531035065,0.1911955624818802,-0.8692414164543152
7.069578369140625,0.6257973914701491,0.145145306442352,1.2560089461207389,0.0641564577817916,0.2660990059375763,-0.9142513275146484
7.079606201171875,0.6284424991514533,0.103476695421664,0.9638561378270388,0.1365542262792587,0.3282124400138855,-0.9349840879440308
7.08963330078125,0.6545361408289522,0.043995866658166,0.7864075670778751,0.1822332888841629,0.3690493702888489,-0.9287445545196532
7.0996611328125,0.7179821925621479,-0.0167714125861413,0.631854718747735,0.197369635105133,0.3884904384613037,-0.9010303616523744
7.109689453125,0.7503110023021697,-0.0178972200119867,0.5037614227980375,0.1843111515045166,0.3892142474651336,-0.8592727184295654
7.11971728515625,0.6972719244234263,0.0137841038710437,0.3620394144684076,0.1597986221313476,0.3755735456943512,-0.8124756813049316
7.129745361328125,0.5947758649364113,0.078983301148191,0.2144973216831684,0.1291022896766662,0.348653107881546,-0.7695807218551636
7.139772216796875,0.4493157295243814,0.1334942051451653,0.060114569222927,0.1067051142454147,0.3021700382232666,-0.7372244000434875
7.14980029296875,0.3710051034733653,0.1939340060007758,-0.0582867692738771,0.0926066413521766,0.2235603928565979,-0.7001917958259583
7.159828369140625,0.3605456687793135,0.2381519544444046,-0.1095458318680524,0.0922479182481765,0.1282589137554168,-0.6651571393013
7.169856201171875,0.4185248334087431,0.320787512756139,-0.0370733008533716,0.0967287570238113,0.0225054677575826,-0.6191624402999878
7.17988330078125,0.523869669923,0.4395706171121448,0.1470335587412118,0.0989005640149116,-0.0712758898735046,-0.5707573294639587
7.1899111328125,0.5602922152500599,0.55196964645423,0.4355950645446777,0.0969059020280838,-0.1483199894428253,-0.5274932384490967
7.199939453125,0.5437100964246318,0.7138809677883983,0.7358207046568394,0.0904884859919548,-0.1872338354587555,-0.4918931722640991
7.20996728515625,0.5408001637946814,0.8970927782393991,1.0005798945903777,0.0745307058095932,-0.1954973191022873,-0.4623395502567291
7.219995361328125,0.534700385614857,1.0367219059430062,1.2114771459549665,0.0586718469858169,-0.1587755233049392,-0.4434175491333008
7.2300224609375,0.4141869868675246,1.1240754144210368,1.3291928402751685,0.043030522763729,-0.1021349802613258,-0.4355338513851166
7.240050537109375,0.4456215511815622,1.1867881834436207,1.4230261392265555,0.0291418693959712,-0.0222332216799259,-0.4260130524635315
7.25007861328125,0.4960689685992896,1.228891514353454,1.4246014257192612,0.0205892957746982,0.052410714328289,-0.4109000563621521
7.2601064453125,0.5169782299088314,1.256869216211885,1.4040841228693723,0.013635516166687,0.1080153882503509,-0.399288147687912
7.27013330078125,0.4720295925704762,1.2530141482189296,1.291256785112619,0.0136511344462633,0.1501354873180389,-0.4032578766345978
7.280161376953125,0.4389346938287839,1.2690648270487783,1.1007307061254978,0.024600189179182,0.1841778755187988,-0.4108460247516632
7.290189453125,0.462632928269729,1.3041507534772157,0.9412579370498656,0.0366440899670124,0.2181838303804397,-0.4157382845878601
7.300217529296875,0.488640352968499,1.3213655076503752,0.7772042699247598,0.0465542450547218,0.2542736530303955,-0.417426198720932
7.310244384765625,0.5031704711675644,1.3276174076519909,0.6536047782629728,0.047361996024847,0.2784806191921234,-0.4158763289451599
7.3202724609375,0.5295833348620682,1.3116807105906307,0.5112210911542177,0.0407829210162162,0.2879260778427124,-0.4141806960105896
7.330300537109375,0.5176562022356316,1.2782001735322177,0.3549941721320152,0.041320152580738,0.2856188714504242,-0.4224062263965606
7.34032861328125,0.4722999339444562,1.2591365766219793,0.1398527073264122,0.0555315800011158,0.2795316874980926,-0.4334181249141693
7.3503564453125,0.4945362426066771,1.2565009674213825,-0.0183943193465471,0.0724627375602722,0.2564005553722381,-0.4421153664588928
7.36038330078125,0.5204053913459181,1.215164163904637,-0.1360170746862888,0.0946631133556366,0.2129058390855789,-0.4541951715946197
7.37041162109375,0.5400506606016308,1.0890881991267205,-0.207256264513731,0.1128348037600517,0.1444365084171295,-0.4647592902183532
7.380439453125,0.6082314127065241,0.9978475470170378,-0.2249883205592632,0.124558039009571,0.057928517460823,-0.4668242931365967
7.390467529296875,0.675322396813333,0.9317799146085975,-0.2290817273527383,0.1185343042016029,-0.0234000161290168,-0.4539028406143188
7.400494384765625,0.8044709009043872,0.83511709131971,-0.1587047073125839,0.0894864052534103,-0.1027241349220275,-0.4292105436325073
7.4105224609375,0.9042113780729472,0.7467310979887842,-0.0328057065367698,0.0459560304880142,-0.1703641861677169,-0.3912707269191742
7.420550537109375,0.9490373388797044,0.7405372848499566,0.079160045954585,-0.0030040522105991,-0.2115465104579925,-0.3411588370800018
7.43057861328125,1.0170015256244689,0.785229901600629,0.1726356175094842,-0.0495339967310428,-0.22787806391716,-0.2752060890197754
7.440606689453125,1.0610631509952246,0.82897654273808,0.2342050617158412,-0.0860643088817596,-0.2179875969886779,-0.2063993215560913
7.45063330078125,1.016506362518668,0.8891169039893895,0.2953565727710723,-0.1108306571841239,-0.1827040761709213,-0.1469215303659439
7.46066162109375,0.9542935789074748,0.934904768630862,0.3572200314879417,-0.1251406222581863,-0.1343333423137664,-0.096020795404911
7.470689453125,0.9026951282911002,0.9560407879009842,0.3798118025243282,-0.1319975554943084,-0.0746141672134399,-0.0614471696317195
7.480717529296875,0.8269488363027572,1.0006948992721736,0.3604325637936592,-0.1354154497385025,-0.0255709961056709,-0.0377887114882469
7.490744384765625,0.7640962204180658,1.084109606996551,0.35013621070683,-0.1500824838876724,0.0091678453609347,-0.0244778860360384
7.5007724609375,0.7753475361421703,1.081817331340909,0.2707213132083416,-0.1769516468048095,0.0241635721176862,-0.0119828674942255
7.510800537109375,0.8402730858433991,1.0514308147750795,0.2246019515901803,-0.2179524302482605,0.006973460316658,0.0021594325080513
7.520828369140625,0.8596870305612683,1.013425274572894,0.1470189456939697,-0.2608828544616699,-0.0340456143021583,0.018712043762207
7.530856689453125,0.8189899862527846,1.0008837729077786,0.057414078092575,-0.298655092716217,-0.0962842553853988,0.0302299764007329
7.54088330078125,0.6906745719850063,1.0065750433519485,-0.0622200170695781,-0.3188176453113556,-0.1571284383535385,0.0292840208858251
7.55091162109375,0.5479795173721388,1.0061044301655142,-0.2389274140626192,-0.3040971159934997,-0.2009584307670593,0.0206002108752727
7.560939453125,0.4270770827746018,1.0374672444175927,-0.3295867591530084,-0.2677343189716339,-0.2319890409708023,0.0096807172521948
7.5709677734375,0.2901986785512417,1.043338547603786,-0.3343704862982034,-0.2311102002859115,-0.2358453273773193,-0.0113258780911564
7.580994384765625,0.1353219046295155,1.0321816321648656,-0.3345166167706251,-0.2033800333738327,-0.2016612589359283,-0.0492002889513969
7.5910224609375,-0.171429821916297,1.0508814372640105,-0.3684422672480344,-0.1875047832727432,-0.1210819780826568,-0.1084480360150337
7.601050537109375,-0.3335817470733076,1.022262880218774,-0.4901180973708629,-0.1764318794012069,-0.0324407927691936,-0.1694307029247284
7.611078369140625,-0.3350835299383848,0.8876151941895485,-0.6983218718677758,-0.1580377370119094,0.0340918563306331,-0.2255677282810211
7.6211064453125,-0.3179548466134816,0.6361123761922121,-0.9596785598814488,-0.1350349485874176,0.0526546239852905,-0.2806741297245025
7.631133544921875,-0.2987621616971679,0.2924429320803843,-1.2093921563744543,-0.1052467599511146,0.0142453052103519,-0.336621880531311
7.64116162109375,-0.2188998492247424,-0.0107974767176026,-1.4118378057360648,-0.0670415833592414,-0.0812913328409195,-0.3691220283508301
7.651189453125,-0.0393170977247878,-0.2577183132450096,-1.501626797732711,-0.0362120792269706,-0.2121796756982803,-0.3814674615859985
7.6612177734375,0.0508550986028974,-0.4840540480915457,-1.4846470213592051,-0.0021140298340469,-0.3459473550319671,-0.3757786750793457
7.671244384765625,0.0514711253091227,-0.627928777475655,-1.338100953873992,0.0258257612586021,-0.4440270960330963,-0.3548766672611236
7.6812724609375,0.1469031372945755,-0.6828837719783186,-1.0910966163396836,0.0368536487221717,-0.4880528748035431,-0.3072811961174011
7.691300537109375,0.2400504267431795,-0.7129099307991564,-0.7183440846771001,0.0174481384456157,-0.4777862131595611,-0.2480879724025726
7.70132861328125,0.272667478840053,-0.7735675939228385,-0.3577133679628372,-0.021118963137269,-0.4173532426357269,-0.1888675242662429
7.71135546875,0.3538754703003913,-0.7773939472779631,-0.0087450319916009,-0.0815471187233924,-0.3229603469371795,-0.1218412816524505
7.721383544921875,0.3982305987250059,-0.7892321229793131,0.2494230891138315,-0.1535475403070449,-0.2016035765409469,-0.0582548454403877
7.73141162109375,0.4397887168422341,-0.8454564798306673,0.4073129729121923,-0.2178425937891006,-0.0804765149950981,0.0093325283378362
7.741439453125,0.5145827496070414,-0.8638926655575633,0.4699895015776157,-0.2707391083240509,0.0134095018729567,0.0789941623806953
7.751467529296875,0.5396098580315709,-0.8791017059314995,0.5257411994159221,-0.3111915290355682,0.0508292727172374,0.1421718299388885
7.76149462890625,0.4812702625919133,-0.9036040598295628,0.5374024111151695,-0.3359322845935821,0.0346859879791736,0.1774278283119201
7.7715224609375,0.2601233650927432,-0.8916912114568054,0.5160772990137338,-0.3214526772499084,-0.0132783437147736,0.1710761934518814
7.781550537109375,-0.0822420654821209,-0.7698448470726609,0.4743634788781404,-0.2657241821289062,-0.0577486082911491,0.1298555135726928
7.79157861328125,-0.3663103332532569,-0.5766193729337304,0.4505266762167215,-0.1780388355255127,-0.1037762239575386,0.0740642473101615
7.80160546875,-0.5205473570998758,-0.4502694135200232,0.5229109444260597,-0.0797697976231575,-0.1432173699140548,0.012695163488388
7.811633544921875,-0.6633554801657795,-0.4262205755431205,0.6517810699671507,0.0098013766109943,-0.1634058356285095,-0.0577207691967487
7.82166162109375,-0.8276888410151004,-0.4413021170798689,0.8273100708305835,0.0773497968912124,-0.1523494571447372,-0.1281704306602478
7.831689697265625,-0.8712221316628158,-0.4705758135655895,0.9479390222489832,0.1144605278968811,-0.1135892942547798,-0.1825568377971649
7.84171630859375,-0.8725611982468515,-0.5344377160906791,0.980922423440218,0.130328968167305,-0.0607734844088554,-0.2197260409593582
7.85174462890625,-0.8673444134466349,-0.6784245275471359,0.9172960467040538,0.1372496336698532,-0.0026651476509869,-0.2344865947961807
7.8617724609375,-0.7940629041366278,-0.8383236322760581,0.7543634925633669,0.1420414447784423,0.0560881793498992,-0.2351196259260177
7.871800537109375,-0.7530373585261404,-0.9543490354217588,0.598939122095704,0.1415694057941436,0.1014904305338859,-0.2242384403944015
7.881828369140625,-0.7082145395245403,-0.9953393635883928,0.4891045364141464,0.136161595582962,0.130726620554924,-0.2079880982637405
7.89185546875,-0.668948258671537,-1.028308151732385,0.3264829479187727,0.1269373297691345,0.1464017033576965,-0.1934638768434524
7.901883544921875,-0.7297926034737378,-0.9955764602798968,0.190196993163228,0.1244515404105186,0.1593896746635437,-0.1883221119642257
7.911911376953125,-0.7564206442888826,-0.92936028624624,0.0281347921162843,0.1299171298742294,0.1423989236354828,-0.1761160343885421
7.921939697265625,-0.5836573087465018,-0.8812089073438197,-0.0617991613090038,0.1445309519767761,0.0827683582901954,-0.1562057137489318
7.93196630859375,-0.4870263419006019,-0.8506066291354596,-0.1244230830043554,0.1691612154245376,0.0048775901086628,-0.1396863907575607
7.94199462890625,-0.4215316140092909,-0.8378118833616376,-0.0298731602162122,0.1867612451314926,-0.070956714451313,-0.1258086562156677
7.9520224609375,-0.2937005857249721,-0.7337076580256223,0.1982213096648454,0.1887507885694503,-0.1253790408372879,-0.1121215745806694
7.96205078125,-0.2402620967324823,-0.5515688105683774,0.4804688100159168,0.1747963577508926,-0.1458092033863067,-0.1061395853757858
7.972078369140625,-0.2170056147096678,-0.3316217721119522,0.7123866375774145,0.1581315696239471,-0.1268844902515411,-0.1053434535861015
7.98210546875,-0.2037885518705472,-0.1353535692762583,0.8544453305155039,0.1456506550312042,-0.0819865241646766,-0.106520839035511
7.9952666015625,-0.1818989377541467,-0.0137028735946863,0.9279460355341432,0.1292965114116668,-0.0018846550956368,-0.1042350754141807
8.00529443359375,-0.1933308707421645,0.1681855244991369,1.0167208820521831,0.1273088306188583,0.0686923488974571,-0.1193544045090675
8.015322509765625,-0.2746334451507777,0.3101359530234709,0.965360697171092,0.134280189871788,0.1421157121658325,-0.1409478336572647
8.025349609375,-0.2884985601024702,0.4116786573084071,0.8766191684007644,0.1445948183536529,0.2003898471593856,-0.1629082560539245
8.035377197265625,-0.3328716991078108,0.5041283564142882,0.758781309005618,0.1503453850746154,0.2394022345542907,-0.1896634399890899
8.045405517578125,-0.4042944288086146,0.5688322627214715,0.6128115801036358,0.1515397429466247,0.2581300735473633,-0.2252810448408126
8.055433349609375,-0.4926049457505345,0.5919570081233978,0.481738391560316,0.1488494127988815,0.2513621747493744,-0.2679086923599243
8.065460693359375,-0.6255670167803764,0.596394223385863,0.3272130157589912,0.1528361439704895,0.2404143214225769,-0.3132914304733276
8.07548828125,-0.7109449874017387,0.6126841908643021,0.1124105736494064,0.1698212623596191,0.230802446603775,-0.3501879274845123
8.0855166015625,-0.7115214721154421,0.6294900354430079,-0.0357885217398405,0.1885342746973037,0.2226758748292923,-0.368586391210556
8.09554443359375,-0.704024394358322,0.6253342309378087,-0.1508978329539299,0.1977402865886688,0.2067120969295501,-0.3789990842342376
8.105572509765626,-0.6759557262808084,0.5844286584451794,-0.1743880141347646,0.1904879957437515,0.1934199333190918,-0.3862722814083099
8.115599609375,-0.7069743302050977,0.540777148245275,-0.2181377240121364,0.1684460788965225,0.1757202893495559,-0.3835247159004211
8.12562744140625,-0.6056177961420267,0.5040914584700018,-0.1962146460175514,0.1362242996692657,0.1502007991075515,-0.3740399479866028
8.135655517578124,-0.6087946360798552,0.4768168999122455,-0.2012093855649232,0.1063944846391677,0.1287921816110611,-0.370398074388504
8.145683349609374,-0.65579205917418,0.4545494654593989,-0.1805722557276487,0.0726967453956604,0.1083940267562866,-0.3585831522941589
8.155710693359374,-0.5239817519953474,0.4734982403509318,-0.1079506716310977,0.0408245623111724,0.090970829129219,-0.3408619463443756
8.16573828125,-0.4876728231105953,0.4688895044464617,-0.0545686255335807,0.0183161310851573,0.096367597579956,-0.3302909731864929
8.1757666015625,-0.5120057752585038,0.4807099252954125,0.0268488439589738,0.0005917276721447,0.125750258564949,-0.3257889151573181
8.18579443359375,-0.5236561367701739,0.5485694095566869,0.1346416946798563,-0.0108646806329488,0.1551464647054672,-0.3299599289894104
8.195821533203125,-0.508063248177804,0.5834269340567291,0.2137070480883121,-0.0174855664372444,0.1794728338718414,-0.3485293686389923
8.205849365234375,-0.5074437645725905,0.5636460922552272,0.2140337958246469,-0.0131376162171363,0.1835798323154449,-0.3760735690593719
8.21587744140625,-0.4566319342892617,0.5370671147461981,0.2228326038300991,-0.0012484663166105,0.1807254552841186,-0.396316260099411
8.225906494140625,-0.4156179695187136,0.553835951782763,0.208528184145689,0.0053077610209584,0.1746891140937805,-0.4109198451042175
8.235934326171876,-0.3824576043253764,0.5572491942923515,0.2142413010954856,0.0058212182484567,0.1636846661567688,-0.4168507158756256
8.245961669921876,-0.3156501864003017,0.5380870323784649,0.1958487353146076,-0.000881461193785,0.1540038734674453,-0.4221934080123901
8.2559892578125,-0.3003740356069058,0.5395042787652462,0.1719178246289491,-0.0073825037106871,0.1495731770992279,-0.4254864156246185
8.266017578125,-0.3537868056362495,0.5596398157559335,0.1268903499007225,-0.0149890566244721,0.1478476375341415,-0.4311414361000061
8.27604541015625,-0.3967420772003009,0.5763436247322709,0.1017600002974271,-0.0213606692850589,0.1504857689142227,-0.4382917582988739
8.286072509765624,-0.4365136406943202,0.6012422114063054,0.037544425496459,-0.0204279068857431,0.1649059802293777,-0.4529856443405151
8.2961005859375,-0.5308878050567581,0.6231294143699109,-0.0515817186772823,-0.0070164944045245,0.1818748414516449,-0.4734970331192016
8.30612841796875,-0.6015690322078764,0.6255753462173045,-0.1361760646402836,0.0126347206532955,0.1906975209712982,-0.4843060970306396
8.316156494140625,-0.5242277991782873,0.5655535698443651,-0.2358393849194049,0.0301487334072589,0.1962004154920578,-0.4780979752540588
8.32618359375,-0.4664200090603903,0.4878045597314834,-0.2767810516387224,0.0317684188485145,0.202268049120903,-0.4598727226257324
8.336211669921875,-0.3903486133035272,0.3867943548880517,-0.2720890944302082,0.0086015779525041,0.1878912448883056,-0.4309984743595123
8.3462392578125,-0.2952959468913264,0.304247041115351,-0.237681797915697,-0.0167387016117572,0.1684259921312332,-0.4022556841373443
8.356267578125,-0.3170647659059614,0.3814030903037637,-0.2823866165608167,-0.0331781283020973,0.1793598681688308,-0.3798539638519287
8.36629443359375,-0.3752489515881985,0.5851224493956193,-0.3987286844402551,-0.0371708199381828,0.2350971549749374,-0.3717336058616638
8.385724609375,-0.6258702375106513,0.7710401212718337,-0.8348895661741494,-0.0314005613327026,0.2971076369285583,-0.4469211995601654
8.395752685546874,-0.8904251370437443,0.6857811008550226,-1.0787409926354885,-0.0348458886146545,0.2561013400554657,-0.5318834781646729
8.4057802734375,-0.9172093913339078,0.5788210476964711,-1.333727561095357,-0.0385114550590515,0.1498983800411224,-0.6051985025405884
8.41580859375,-0.6620530192650854,0.2987033259157091,-1.61043262488842,-0.0251133553683757,-0.0359394028782844,-0.641607940196991
8.42583642578125,-0.2714966449623927,-0.0453834668253548,-1.7094336818665266,0.0200353432446718,-0.2724063992500305,-0.6272668838500977
8.435863525390625,0.1032945529209449,-0.2595425147311762,-1.5934095938950776,0.0770730599761009,-0.4964605569839477,-0.5637148022651672
8.445891357421875,0.3657506170112639,-0.3495313036162406,-1.1685890213429928,0.1134819537401199,-0.6609691977500916,-0.4815028607845306
8.45591943359375,0.5494456809345633,-0.447243782088533,-0.6585603548437357,0.1243114322423935,-0.748575747013092,-0.3933791220188141
8.465947509765625,0.6740384214174002,-0.4960522366601973,0.0252437468498945,0.1097431406378746,-0.7501930594444275,-0.3249103128910064
8.475974609375,0.6600744857337325,-0.3966391282824799,0.5796469771265983,0.0782938674092292,-0.6482813358306885,-0.2814483344554901
8.48600244140625,0.4177574657654389,-0.135589460391365,0.9323188437908888,0.0375710874795913,-0.39992156624794,-0.2917535603046417
8.4960302734375,-0.0613291965765412,0.1141924520974978,1.0302361971855163,0.0045068766921758,-0.0838882476091384,-0.341488629579544
8.50605859375,-0.3781482897588983,0.2947692378697916,0.8798357923597097,-0.0100201917812228,0.2271048128604889,-0.3960819542407989
8.516085693359376,-0.5027594061486422,0.3521609214674681,0.4935679455637931,0.004361676517874,0.4671144485473633,-0.4212576150894165
8.526113525390626,-0.3111960565356537,0.2074026872470974,0.0634755700886249,0.0324534140527248,0.6115874648094177,-0.3924528658390045
8.536141357421876,0.0553300018275156,-0.0795206776942126,-0.309383929079771,0.0432679764926433,0.6327579617500305,-0.3236399888992309
8.54616943359375,0.3692039358029141,-0.3525934676658362,-0.4461193811684846,0.0208859238773584,0.5599488019943237,-0.2345015704631805
8.556196533203124,0.5500391898483038,-0.6106148737769573,-0.448987045559287,-0.0353690907359123,0.4213022291660309,-0.1461219042539596
8.566224609375,0.60546713562496,-0.7401290693752467,-0.3147340579360723,-0.1128742024302482,0.2466498613357544,-0.0759885609149932
8.57625244140625,0.5362359976842999,-0.7262539810188114,-0.1195662906229495,-0.1892912089824676,0.0698077231645584,-0.0314176306128501
8.586280517578125,0.3688778456537053,-0.6022022886101156,0.0104617727816104,-0.2398198246955871,-0.0807976201176643,-0.0266747437417507
8.59630859375,0.2590408488193527,-0.4458572596335783,0.1665910766482353,-0.247006356716156,-0.2102355062961578,-0.0499920472502708
8.606335693359375,0.2351950956664979,-0.3211650042990222,0.3129173639029264,-0.1660433262586593,-0.3150336444377899,-0.0944687947630882
8.61636328125,0.2086843610880896,-0.0985751049173064,0.2440133390247821,0.096105471253395,-0.3598703444004059,-0.1008811518549919
8.626391357421875,0.339450383378379,0.2793049623594619,-0.1968184571295976,0.3814156949520111,-0.2498547732830047,-0.0686758756637573
8.63641943359375,0.4256315236087888,0.3248591461092233,0.1861363195955753,0.5151745080947876,-0.1054406240582466,-0.0675621405243873
8.64644677734375,0.1228351196931675,-0.005984956161119,1.1005723006933927,0.4428570568561554,0.0232425983995199,-0.1397128105163574
8.656474609375,-0.1418279346558265,-0.2919099029159173,1.5922458108127115,0.2634428143501282,0.1369092464447021,-0.2394324839115142
8.66650244140625,-0.0061161813253536,-0.332711649707891,1.4317787700027227,0.1054158210754394,0.2224728316068649,-0.2915168404579162
8.676530517578126,0.252180589394737,-0.3704563104841858,0.875599762225151,0.0205472689121961,0.2547726929187774,-0.2894302606582641
8.686557373046876,0.3555347087495029,-0.4847207683719694,0.3223936327785253,-0.0023273951373994,0.2306920439004898,-0.2745082378387451
8.696585693359374,0.3186624834261834,-0.590360423114337,-0.106374216094613,0.009356957860291,0.1704100668430328,-0.2543603777885437
8.70661328125,0.3410110933564603,-0.5820279174463823,-0.2916273231148719,0.0104542151093482,0.0656628236174583,-0.2174048423767089
8.7166416015625,0.439340571215935,-0.5138922465922311,-0.1971726773947477,-0.0225045345723629,-0.0806350037455558,-0.1707377284765243
8.72666845703125,0.4332901120705529,-0.3624059096932411,0.0198807585120201,-0.0759857073426246,-0.2080199271440506,-0.1185253635048866
8.736696533203125,0.3679858287174254,-0.2017771024502813,0.1050759929776191,-0.0706681758165359,-0.2987948358058929,-0.0398068465292453
8.746724365234375,0.4088246561167761,-0.144008402233757,0.1288520053625106,0.0298460740596056,-0.3560753762722015,0.0416420623660087
8.75675244140625,0.5261827691709623,-0.0138362176507711,0.1718856759250163,0.1915684044361114,-0.3801413178443908,0.1174396201968193
