seconds_elapsed,ax,ay,az,gx,gy,gz
0.07130126953125,-0.1196443242952227,0.279896242783498,0.4789361936211586,-0.0148573918268084,-0.1971785426139831,0.0098673123866319
0.081329345703125,-0.1004516211125999,0.3270557793706655,0.5529968706101179,0.008032601326704,-0.1792125105857849,0.0195270869880914
0.091357421875,-0.1175574350185692,0.3414953697420656,0.5677116246610879,0.0219774451106786,-0.1721119880676269,0.029644701629877
0.10138525390625,-0.0943562268469482,0.3786829080922529,0.6469301228046417,0.0265046786516904,-0.1688298732042312,0.043359950184822
0.111413330078125,-0.0219303845182061,0.3853606322905048,0.6959042893320322,0.0324397981166839,-0.1638761311769485,0.0598244108259677
0.121441162109375,-0.0056273383624851,0.4056376966437324,0.71440908331573,0.0402104519307613,-0.150248035788536,0.0890766307711601
0.13146826171875,0.050742929765582,0.4499538082322105,0.6907914763629436,0.045228112488985,-0.1384055018424987,0.1274266839027404
0.141496337890625,0.1104698148451745,0.490054019158706,0.7165291442096233,0.0438568703830242,-0.1115449890494346,0.158688798546791
0.1515244140625,0.0762025113232433,0.5619572258528321,0.7712637739598751,0.0416411198675632,-0.0734173133969307,0.1814116984605789
0.161552490234375,-0.0168273622907698,0.6666292411394417,0.7823264352440834,0.0383390039205551,-0.0335857607424259,0.1966375410556793
0.171580078125,-0.1114554648816585,0.8241776180237531,0.7612959221750497,0.0449116826057434,0.018194880336523,0.2046688348054886
0.1816083984375,-0.1419612969782203,0.9930768254838884,0.6579372545093297,0.066124215722084,0.0680019631981849,0.2047686427831649
0.19163623046875,-0.2172803765304386,1.1341806288499383,0.4975029469251632,0.0817926526069641,0.1136541366577148,0.1939644664525985
0.20166455078125,-0.3249113146878779,1.3189821196451783,0.3856546833336353,0.0933848619461059,0.176772654056549,0.162013977766037
0.211691162109375,-0.5087704100664705,1.4745226638384163,0.2129635362446308,0.1008049622178077,0.2049875259399414,0.0947667732834816
0.22171923828125,-0.7431636147655546,1.566892173847556,0.0182177937358617,0.1205959767103195,0.2178492546081543,0.0032230070792138
0.231747314453125,-0.9346294588208198,1.5756657012812791,-0.2225157929658889,0.1540583223104477,0.2123977690935135,-0.0889500677585601
0.241775390625,-1.09396091972962,1.6571971525423228,-0.543666147685051,0.1991895884275436,0.1817293316125869,-0.1672757565975189
0.251803466796875,-1.1637955765213817,1.668836152409762,-0.7692319758713245,0.2334578186273574,0.1185375750064849,-0.2287130206823349
0.2618310546875,-1.099093971769139,1.50990888838768,-0.9087544283300638,0.2522635757923126,0.0460312478244304,-0.2667227685451507
0.271859375,-1.0274144177630542,1.3533891238987446,-0.9627017070949077,0.2506350576877594,-0.030515993013978,-0.2798987627029419
0.28188623046875,-0.980931118203327,1.2207752817846833,-0.8862427367925644,0.2274115532636642,-0.0867382362484932,-0.2552275061607361
0.29191455078125,-0.8560096572227776,1.067398272300884,-0.7689858921557664,0.1851565092802047,-0.1359768956899643,-0.2011474967002868
0.3019423828125,-0.6775625038903206,0.9367826913319528,-0.5704074396163225,0.1279878467321396,-0.1691738218069076,-0.1249187141656875
0.311970458984375,-0.5054414848394692,0.8605320300180465,-0.3241711638450622,0.0678978785872459,-0.1801061034202575,-0.0468430891633033
0.321998291015625,-0.3886412979289889,0.8164297073107212,-0.1078583171725273,0.0180628448724746,-0.1630203574895858,0.0166401453316211
0.332026123046875,-0.3825654851466417,0.8411898353621363,0.0588870732545852,-0.0258486866950988,-0.1733337044715881,0.0656803920865058
0.342054443359375,-0.333137948828563,0.935298078797385,0.2955442042976617,-0.0531548969447612,-0.1701574325561523,0.1053124070167541
0.3520810546875,-0.2396807897131889,1.0359186267361045,0.4137462208300829,-0.0608916468918323,-0.1656979769468307,0.1237076595425605
0.362109375,-0.2260465243753045,1.1467624625254422,0.5119610958665609,-0.0557612292468547,-0.1384712606668472,0.1227884888648986
0.37213720703125,-0.2466216218270361,1.2589916151933371,0.6473457178682088,-0.0515345260500907,-0.1172751486301422,0.1121425032615661
0.38216552734375,-0.2103505042020231,1.3633039303220809,0.7578986809521913,-0.0516432039439678,-0.087677851319313,0.0914022326469421
0.392193359375,-0.1126161792241036,1.4211574227452275,0.8952724309444426,-0.0460854545235633,-0.0404525473713874,0.0548293143510818
0.40222119140625,-0.1744008005511015,1.4155609179124236,0.87325173779428,-0.0345799848437309,0.0156236551702022,0.0215790066868066
0.412249267578125,-0.2582434513639658,1.446973270394653,0.8939899899184703,-0.0245188307017087,0.0956178233027458,-0.0034126287791877
0.42227734375,-0.2740027460318058,1.4895431228376923,0.8407833003878593,-0.0184896755963563,0.1137265935540199,-0.0273588858544826
0.432304443359375,-0.2771575568009167,1.5136207485176625,0.8275473867177963,-0.0146651109680533,0.1459772139787674,-0.0554499067366123
0.442332275390625,-0.2318217467758804,1.4495783383265135,0.7274398298025131,-0.0213694386184215,0.1663079559803009,-0.0872902050614357
0.4523603515625,-0.3793883894804865,1.4105761152371763,0.5858668745547533,-0.0266235899180173,0.1844033449888229,-0.1089843139052391
0.46238818359375,-0.4752897999428212,1.4206078260384498,0.5088800809860229,-0.0316304564476013,0.1911759227514267,-0.1256250292062759
0.472416259765625,-0.4610132181134074,1.3880264297768472,0.3513625376313924,-0.0315335169434547,0.1894533932209015,-0.1414263695478439
0.4824443359375,-0.5149325128927826,1.325023445636034,0.2632482008486986,-0.0339820086956024,0.1930115073919296,-0.1587672084569931
0.492472412109375,-0.6729020377986132,1.3014086151622235,0.1867950757652521,-0.0470655858516693,0.1919678151607513,-0.1750710755586624
0.502499267578125,-0.8152223773475736,1.2756819071009755,0.104210900580883,-0.0614485405385494,0.1978029310703277,-0.1940648108720779
0.51252734375,-0.94926457176432,1.2160409467391669,0.0129816466480493,-0.0754999071359634,0.201087936758995,-0.21161450445652
0.522555419921875,-1.027266972116381,1.12503234981969,-0.1266127020031213,-0.0903952568769455,0.1981655210256576,-0.2180399894714355
0.53258349609375,-1.004020974954963,1.0166781388889998,-0.2215145069688558,-0.1121000126004219,0.1883365958929062,-0.2094422429800033
0.542611572265625,-0.988062504453212,0.8400790245760231,-0.3582148877441883,-0.1346173882484436,0.1784547716379165,-0.2022522836923599
0.55263916015625,-0.988843717958778,0.7149692014165222,-0.4329693922162055,-0.1530259549617767,0.1548029780387878,-0.1874626874923706
0.562667236328125,-0.9451578670978544,0.5954175238408148,-0.4731079258590936,-0.1739333420991897,0.1479158550500869,-0.1727076321840286
0.5726943359375,-0.873089898296073,0.5158089669337496,-0.5371189179986715,-0.1955092102289199,0.134202167391777,-0.1590291112661361
0.582722412109375,-0.822398625652492,0.4551556146590039,-0.5083130947530269,-0.2157629281282425,0.1213302835822105,-0.1625376790761947
0.592750244140625,-0.8800186015807092,0.5425265126632526,-0.4566711703211069,-0.229849711060524,0.1346735209226608,-0.1946668624877929
0.6027783203125,-1.059902948109433,0.7469331964321434,-0.5457569824844598,-0.2243848145008087,0.1678210347890854,-0.2593187987804413
0.612806396484375,-1.239513300002366,0.9004476416252553,-0.7007558210164309,-0.1959925889968872,0.1932220011949539,-0.3521216809749603
0.62283447265625,-1.3952850226029754,0.9915044616006314,-0.907927914378047,-0.1529650837182998,0.2183272540569305,-0.4603684544563293
0.6328623046875,-1.409341020484269,0.9664003424171358,-1.2283680750012398,-0.098949521780014,0.2259140610694885,-0.5680730938911438
0.64288916015625,-1.4247595388904213,0.9242238732058554,-1.5518424887537956,-0.0521619878709316,0.2304761409759521,-0.6612643003463745
0.652917236328125,-1.4354212181583046,0.8574345023941248,-1.8547282879859208,-0.0327395573258399,0.2211220562458038,-0.7257629036903381
0.6629453125,-1.3535016443625092,0.7372682000514119,-2.051485954838991,-0.0338878855109214,0.1989795416593551,-0.7532610297203064
0.672973388671875,-1.1843797340624034,0.4617146809136495,-2.186188439795375,-0.0513512976467609,0.1376354992389679,-0.7353276014328003
0.683002197265625,-0.8576010180674493,0.1332483680247794,-2.237529919975996,-0.0992151275277137,0.0009682225063443,-0.6479997038841248
0.693030029296875,-0.3120461340263485,-0.1220301143200602,-1.98171800660789,-0.1590081602334976,-0.1080006062984466,-0.5193791389465332
0.70305810546875,0.1400030390499159,-0.3393313966412097,-1.7597545868277549,-0.2157384753227234,-0.22231425344944,-0.3894218802452087
0.713086181640625,0.3375638389794155,-0.5303443823624402,-1.413254102274775,-0.2557239830493927,-0.3197308182716369,-0.2692685723304748
0.72311328125,0.464096169222705,-0.6150530023548751,-0.9863000248253344,-0.2848717868328094,-0.366033524274826,-0.1816652715206146
0.733141357421875,0.5215756041690707,-0.5607853690618648,-0.5770259809732436,-0.2977801263332367,-0.364913135766983,-0.1265359818935394
0.743169189453125,0.5336325006550178,-0.4570075992012396,-0.0858528215914964,-0.3098923861980438,-0.3234831094741821,-0.0979579985141754
0.753197021484375,0.543851952580735,-0.348776283997856,0.4574778105288744,-0.3229581117630005,-0.2577850818634033,-0.0839060992002487
0.763225341796875,0.6024767216373235,-0.2767512410223484,0.9435463402479888,-0.3299869298934936,-0.1936779916286468,-0.082604095339775
0.773253173828125,0.6661612583015114,-0.3055533744735643,1.3438029649078844,-0.3294947743415832,-0.130233496427536,-0.0894476175308227
0.783281494140625,0.7086453321572392,-0.3386445103555917,1.6300550247251986,-0.3156802058219909,-0.0579220540821552,-0.1069599688053131
0.79330810546875,0.7013784098941832,-0.3122114075906574,1.7389648967772722,-0.2889130413532257,0.0248098466545343,-0.1367631405591964
0.803336181640625,0.6633557724267244,-0.3341932665677741,1.7348258972764017,-0.2559825778007507,0.1090393140912056,-0.1656645089387893
0.8133642578125,0.6297750629294663,-0.3827588522942736,1.6565601698130368,-0.2295682877302169,0.1877892613410949,-0.1872832477092743
0.82339208984375,0.6333693610943854,-0.4586474022975191,1.5713666889131068,-0.2183611690998077,0.2508057653903961,-0.2008869498968124
0.833420166015625,0.6393998003650456,-0.5528809891454876,1.464382231965661,-0.223608136177063,0.2883172035217285,-0.2069613486528396
0.843447998046875,0.6728348908465355,-0.6705462684527039,1.3600059116899967,-0.2203455567359924,0.3263130784034729,-0.2220960855484008
0.853476318359375,0.5766295655341819,-0.7795518559642136,1.1511159084945917,-0.2015321850776672,0.3560137152671814,-0.2390287369489669
0.863503173828125,0.4467204158015549,-0.8299426112912595,0.8643184897541999,-0.1569026559591293,0.3565997183322906,-0.2493678331375122
0.873531494140625,0.3922826866386458,-0.8518773797236382,0.525347816184163,-0.0919329673051834,0.3343495428562164,-0.2592665553092956
0.88355908203125,0.3783560872906819,-0.8434228551112115,0.1947878280848264,-0.0350245460867881,0.2967685461044311,-0.2665683925151825
0.893587158203125,0.3138838343149051,-0.780157128380984,0.0147118314415216,0.0066496646031737,0.2400738596916198,-0.2672970294952392
0.903615234375,0.2808942591112107,-0.7718931579045951,-0.0626870500594377,0.0368652679026126,0.1765265315771103,-0.2627159655094147
0.91364306640625,0.2851254669401794,-0.8427924482531846,-0.1087777701050043,0.0591109171509742,0.1270559281110763,-0.2406756430864334
0.92367138671875,0.2768678896719589,-0.8180493444018065,-0.1010819549053907,0.0764139741659164,0.0925900936126709,-0.1955703794956207
0.933697998046875,0.3102520171511918,-0.758731040123105,-0.0807557907134294,0.0781847089529037,0.0540725253522396,-0.1296808421611786
0.943726318359375,0.3636585401028394,-0.7371003692038357,0.0116875151842832,0.0656797438859939,0.0141031816601753,-0.0468083955347538
0.953754150390625,0.430361949664168,-0.6968681659281254,0.1987736828505992,0.0374390594661235,-0.0281819570809602,0.0368393622338771
0.963782470703125,0.4745599878309294,-0.5709713205767795,0.4406745597660541,0.0104391546919941,-0.0698592886328697,0.1080830097198486
0.97381005859375,0.4402413559805601,-0.4448452330468222,0.6341752706497907,-0.0054932059720158,-0.0979588329792022,0.1652237921953201
0.983838134765625,0.4899704325284809,-0.2800564931128174,0.8177303415805101,0.0036151111125946,-0.0993413403630256,0.2089258879423141
0.9938662109375,0.4190209828952327,-0.0520687350092455,0.9711205758720636,0.0189141724258661,-0.0868154242634773,0.2418191283941269
1.00389306640625,0.3038889849252998,0.2535483158176764,1.1349836888611315,0.0348974801599979,-0.0493405982851982,0.2623106241226196
1.01392138671875,0.2959235590040683,0.5163371920589357,1.3367711665749549,0.0431207902729511,0.003997987601906,0.2646233141422272
1.023948974609375,0.2204592988274991,0.7136060233045369,1.469913562607765,0.0411132797598838,0.0509211532771587,0.254683256149292
1.033977294921875,0.1380264417473226,0.8519061674267053,1.5910621539860963,0.034887608140707,0.0830599144101142,0.2359945029020309
1.044005126953125,0.1404157845692709,0.9433267792131752,1.6007926898837088,0.0291178300976753,0.107838824391365,0.2238772213459015
1.054033203125,0.1647784742683172,1.02228436139822,1.4988023879617451,0.033954132348299,0.1227812841534614,0.2001151740550995
1.064061279296875,0.144954889303632,1.117713478173688,1.3374661631017923,0.0456727147102355,0.1358981132507324,0.1768796741962433
1.074088134765625,0.0953261861239559,1.1819804178357125,1.157622221648693,0.0537676587700843,0.1444553881883621,0.1535732746124267
1.0841162109375,0.0919649295299313,1.259090399392694,0.9499532846808432,0.0516338907182216,0.1421526074409485,0.1397491842508316
1.094144287109375,0.1335960398181341,1.2782158094927667,0.7856067720890044,0.0447948910295963,0.1269744485616684,0.1297841668128967
1.10417236328125,0.1874791673055849,1.2754840464413166,0.6500362721264362,0.0286587905138731,0.1090517044067382,0.1185075268149375
1.114199951171875,0.2393349902165122,1.2846338598415254,0.4915905080109834,0.0079066418111324,0.0930780693888664,0.1008984372019767
1.12422802734375,0.2120017420077696,1.2993024366632102,0.3420136945277452,-0.0067507848143577,0.0872397646307945,0.0811972320079803
1.134256103515625,0.1429786573272198,1.3174804829105735,0.1642898139685392,-0.0084472177550196,0.0966284722089767,0.0570455528795719
1.144283203125,0.0566553138808347,1.331514707351476,-0.0358165787905454,-0.0238143242895603,0.0610582679510116,0.039179440587759
1.154311279296875,0.1444804584586061,1.333831605991721,-0.0811754774302244,-0.0415895916521549,0.0340333096683025,0.0319004915654659
1.164339111328125,0.1923216936996206,1.234536096111685,-0.2636328162521124,-0.0670867636799812,-0.0291020050644874,0.0418255738914012
1.1743671875,0.247678985392861,1.1047054549753663,-0.2968482726335525,-0.0845501720905304,-0.1022438555955886,0.0761989951133728
1.184395263671875,0.3780860016450286,0.990551252529025,-0.2560878077000379,-0.0973457917571067,-0.1792252361774444,0.1199531331658363
1.194423095703125,0.4918878835223615,0.8231341003201902,-0.275271231597662,-0.1009788736701011,-0.2400467693805694,0.1688903123140335
1.204451416015625,0.5459979516334832,0.7131915242195129,-0.1753834549129009,-0.1089293286204338,-0.2613650262355804,0.2236940115690231
1.214478271484375,0.5427959407217801,0.6761539522666483,0.0210270059376955,-0.1253919303417205,-0.2559638619422912,0.2796499729156494
1.224506103515625,0.548792623853311,0.6537258473593741,0.2761392466038465,-0.151160329580307,-0.2164100855588913,0.3319043517112732
1.2345341796875,0.5417136984430253,0.6365881770104169,0.4966729258418083,-0.1788090020418167,-0.150338664650917,0.3674783408641815
1.244562255859375,0.505128838693723,0.6570502425417304,0.6426198583900928,-0.2003528177738189,-0.0717823207378387,0.3895533978939056
1.254590087890625,0.4515710341705009,0.6987379053227603,0.679932813218236,-0.209711953997612,0.0009834985248744,0.4011493325233459
1.2646181640625,0.4142044129263609,0.7714023056477308,0.645122196599841,-0.2081515491008758,0.0520645417273044,0.3935018181800842
1.274646240234375,0.3301152765391394,0.8003194803133606,0.487283166205883,-0.191626638174057,0.0654514580965042,0.3756370544433594
1.28467333984375,0.2686769844317808,0.7679851176153868,0.2865776385098695,-0.1635486632585525,0.0571661554276943,0.3550795614719391
1.294701416015625,0.2737880438352003,0.7116827270917594,0.0796913763523101,-0.1277443319559097,0.0368640795350074,0.3357788324356079
1.30472900390625,0.2389834185661748,0.6530275628969073,-0.1274047291636467,-0.0921317040920257,-0.0043515930883586,0.324809193611145
1.31475732421875,0.2516125254495069,0.6056565207172184,-0.2548182261556387,-0.0626100301742553,-0.0271389316767454,0.3173592686653137
1.32478515625,0.238767255064845,0.5599963741086423,-0.3291951294869184,-0.0478572212159633,-0.0466819480061531,0.3215788602828979
1.334813232421875,0.189497978048399,0.5379144522905349,-0.3320890973627567,-0.0505776405334472,-0.0736781433224678,0.3287481069564819
1.34484130859375,0.1039351889120414,0.6124773066479713,-0.2432137130796909,-0.0559097193181514,-0.0860637426376342,0.3165743947029114
1.354868896484375,-0.0855805439887568,0.6631839229911566,-0.2213601931899786,-0.0470858663320541,-0.0644764229655265,0.2751947343349457
1.364896240234375,-0.3819007376275956,0.6617771979983895,-0.3222825736194848,-0.0227157827466726,-0.0160300694406032,0.2294098287820816
1.374924072265625,-0.6346936685007065,0.6810063607338815,-0.5008429050028324,0.0053099924698472,0.0235937722027301,0.1953924745321273
1.384952392578125,-0.675726155308634,0.597975976151973,-0.6470978805869817,0.029247760772705,0.0499611236155033,0.1720972955226898
1.39497998046875,-0.600046060424298,0.3740921827685087,-0.7909522247701883,0.039952602237463,0.0557915829122066,0.1660601645708084
1.40500830078125,-0.5844117073103785,0.1288673490621149,-0.9256593859016896,0.0377893708646297,0.0441746823489666,0.1711356043815612
1.4150361328125,-0.568074831950292,-0.0595068856533616,-1.0954828685998916,0.033341895788908,0.0142247723415493,0.1870261579751968
1.425063232421875,-0.5815799910157918,-0.1841782443303614,-1.2549842792481185,0.0323120430111885,-0.0416717045009136,0.2164257913827896
1.43509130859375,-0.5252490685174241,-0.2870524164147675,-1.3596125284582377,0.0386192053556442,-0.1126606613397598,0.2541233599185943
1.445119140625,-0.3800951495103538,-0.3947418067611754,-1.403871941423416,0.0387966074049472,-0.1874952167272567,0.2963572442531585
1.455147216796875,-0.2687034340472892,-0.4343015176028013,-1.321488841769099,0.0418001189827919,-0.2450961917638778,0.3330199122428894
1.465175048828125,-0.2367973797639831,-0.4271299820056184,-1.1405039135873316,0.046270802617073,-0.2606919109821319,0.3563732802867889
1.475203369140625,-0.2778758246054872,-0.3815111172555014,-0.9900281054377555,0.0627882555127143,-0.2364353239536285,0.364508718252182
1.485231201171875,-0.3258735473161563,-0.3032922976737842,-0.84965926528275,0.071780227124691,-0.1759702414274215,0.3632121384143829
1.49525830078125,-0.3229930234437808,-0.1830565468240529,-0.7322440152138471,0.0626623630523681,-0.1107217296957969,0.3505376279354095
1.5052861328125,-0.3415120651485398,-0.0746263115150853,-0.5766548095732927,0.0450530499219894,-0.0560994781553745,0.3221353888511657
1.515314453125,-0.3800745816463604,-0.0953741717178374,-0.4814671734035015,0.0258492622524499,-0.0344280041754245,0.2974071204662323
1.52534228515625,-0.3030626171037555,-0.1903110845295712,-0.4451654414445161,0.0150709003210067,-0.0505700856447219,0.2929563522338867
1.535370361328125,-0.1616285223374143,-0.2852789404688403,-0.4274795626282692,0.017604898661375,-0.112290970981121,0.3020113706588745
1.545398193359375,-0.0621712094917893,-0.3929764775890856,-0.4081026619851589,0.0302100665867328,-0.1800998002290725,0.3171257376670837
1.555426025390625,-0.0340858825404196,-0.472738252296485,-0.2980319294601679,0.0392477698624134,-0.247701495885849,0.3303451240062713
1.565453369140625,-0.0662766355166211,-0.4750693255925551,-0.0079559274405241,0.0438385047018528,-0.2981932461261749,0.3497544229030609
1.575481201171875,-0.1921199605824425,-0.4424013470260426,0.3836795838683843,0.0521837845444679,-0.308041363954544,0.378701388835907
1.58550927734375,-0.2311622599538415,-0.450721979593113,0.7229834349155425,0.0649107918143272,-0.2739504873752594,0.4220895171165466
1.595537109375,-0.2797088121863081,-0.367385780465044,1.0532231050193308,0.0822096168994903,-0.1839633285999298,0.4672942757606506
1.605565185546875,-0.3827755111681297,-0.2076576483888551,1.290574648067355,0.0927376821637153,-0.0850437954068183,0.4963340759277344
1.61559326171875,-0.5313820183144882,-0.0508948689242824,1.380786833912134,0.0973942205309867,-0.005713552236557,0.4892388880252838
1.625621337890625,-0.8032427473489194,0.0812816412184387,1.404243112823367,0.0950709283351898,0.0602775253355503,0.4474639892578125
1.635648193359375,-1.0589135717459022,0.1246480873992666,1.336549048256874,0.0915409103035926,0.1028388291597366,0.3914135098457336
1.645676025390625,-1.2357080625005066,0.0883628681836649,1.2930424994856118,0.1061122119426727,0.1438490003347396,0.3434018194675445
1.655704345703125,-1.34389502710551,0.0402021369310095,1.1220429587453604,0.1399474143981933,0.1748580485582351,0.3219498097896576
1.665732177734375,-1.332452572723478,-0.050485411340557,0.8840361666589975,0.180198460817337,0.2048262804746627,0.3369494080543518
1.675760009765625,-1.208724851572141,-0.2009045208668336,0.6821674404025078,0.2015080153942108,0.2248244881629943,0.3760150372982025
1.6857880859375,-1.0410891612417996,-0.3602362009713426,0.5935925003707408,0.1927941441535949,0.2372090518474578,0.4193310439586639
1.69581591796875,-0.9676824181169272,-0.5257232253678142,0.5639899737894535,0.1587648093700409,0.2462523579597473,0.4497930705547333
1.70584326171875,-1.016858463891968,-0.5871390864476561,0.5170581267446279,0.1150299236178398,0.2438933998346328,0.4629042148590088
1.71587109375,-1.055301810989529,-0.5844903255045414,0.3983265333801508,0.0892433300614357,0.2217122018337249,0.4668781757354736
1.725899169921875,-1.1247390659615395,-0.5384401566650718,0.1639484531849622,0.0832665339112281,0.1729029715061187,0.469271183013916
1.735927001953125,-1.1299646916553376,-0.4726806403577327,-0.0480821861237287,0.0972625091671943,0.1041105836629867,0.4737093448638916
1.745955078125,-1.0589381216652691,-0.4377333552150055,-0.1611018315821886,0.1169390380382537,0.0289124231785535,0.4820836186408996
1.755983154296875,-0.9920191331245004,-0.4105975110081956,-0.1866623892962932,0.1231721714138984,-0.0472928658127784,0.5010994076728821
1.766010986328125,-0.8971103138960898,-0.379289459150657,-0.0213853178560733,0.1159493550658226,-0.0995083898305893,0.5250602960586548
1.7760380859375,-0.7912978233374655,-0.3779509770885109,0.214319042506814,0.0995898246765136,-0.1261386722326278,0.5544294118881226
1.78606591796875,-0.7072498592108488,-0.3523724087936803,0.5230418773293495,0.0772392824292182,-0.1321494877338409,0.5922493934631348
1.79609423828125,-0.6270915959991514,-0.2385046220732852,0.7768640781849623,0.0592144727706909,-0.139912873506546,0.621976375579834
1.8061220703125,-0.561081721659936,-0.0875156402371823,0.9891787951320408,0.0473975241184234,-0.1243842467665672,0.637557864189148
1.816150390625,-0.5244378251997753,0.0438478364896029,1.104600241035223,0.0402405448257923,-0.0815664678812027,0.6370958089828491
1.826177978515625,-0.619459932076931,0.2544184497157111,1.2177934894949196,0.0412436425685882,-0.0300913881510496,0.617064356803894
1.8362060546875,-0.7815982671000063,0.4383254758892581,1.2883324220985173,0.0505849421024322,0.0459538474678993,0.5730138421058655
1.846233154296875,-0.9718746091097592,0.5969205853475258,1.2563719342142343,0.0486388355493545,0.1166269928216934,0.5096777081489563
1.8562607421875,-1.164167551638931,0.8127750572606921,1.2932096727460622,0.0540242791175842,0.1880982369184494,0.4265937507152557
1.8662890625,-1.3372703482687474,0.9052817837834358,1.181861759892106,0.0658029466867446,0.248955950140953,0.3454545736312866
1.87631689453125,-1.4902230679258703,0.922327611130476,1.0235504358112812,0.0827939137816429,0.2922629415988922,0.2753119766712188
1.88634521484375,-1.5388624495409429,0.9678994218684732,0.8126490927934646,0.101908802986145,0.3095065355300903,0.2266993373632431
1.896373046875,-1.557037427048385,0.8852320984452963,0.5479845954060554,0.1136181876063346,0.2969542443752289,0.2041972279548645
1.906401123046875,-1.4898653405293822,0.7215384968042373,0.3316618118613958,0.1086128056049346,0.2699025571346283,0.2139480710029602
1.916427978515625,-1.3531084072612225,0.5720091757245361,0.1628781936049461,0.0838496685028076,0.2417420446872711,0.2460295855998993
1.9264560546875,-1.234720512767881,0.4364287388898432,0.0740507401168346,0.0389004535973072,0.2131910771131515,0.2935257256031036
1.936484130859375,-1.1996778409592808,0.3635383112566545,0.0853740981638431,-0.011150462552905,0.1912562102079391,0.3312129080295563
1.94651220703125,-1.235583413207531,0.3223759144587442,0.0421615639030933,-0.0499786920845508,0.1707555055618286,0.3641005158424377
1.9565400390625,-1.2707606711812316,0.2984572422001511,-0.0408680169612169,-0.072197712957859,0.1492829769849777,0.3802067637443542
1.96656787109375,-1.3400288531966509,0.3867846737442538,-0.1213140110731124,-0.0846064537763595,0.135255366563797,0.3863741159439087
1.976595947265625,-1.34579764585644,0.5122442236568778,-0.2081073283851146,-0.0838583707809448,0.1170334815979003,0.3776732981204986
1.986623046875,-1.3914735014908015,0.5675211070576682,-0.212177938824892,-0.0771907866001129,0.0974257141351699,0.3592770993709564
1.9966513671875,-1.4141434523299337,0.5791943379882722,-0.2289846967190504,-0.0733478441834449,0.0811426118016243,0.3463165760040283
2.006678955078125,-1.3606306194595992,0.5908476586420088,-0.2173755074679851,-0.0727266669273376,0.0728235244750976,0.3342393636703491
2.01670703125,-1.303710023972392,0.5520306924590841,-0.179583244690299,-0.0693713501095771,0.0822399258613586,0.3273955881595611
2.026735107421875,-1.2690325322143732,0.4610747025096788,-0.1859352440655231,-0.0696239471435546,0.0789063572883606,0.3365547358989715
2.03676318359375,-1.1781784682694822,0.3910824074707925,-0.1646323437958955,-0.0730658173561096,0.0676454454660415,0.3581942617893219
2.046791259765625,-1.0411381149500607,0.3443839307904243,-0.1216582944661378,-0.0740429833531379,0.0555218607187271,0.3807973563671112
2.05681787109375,-0.9622094665985554,0.2792244627354666,-0.0905213979244232,-0.0757037326693534,0.047567531466484,0.4084995687007904
2.06684619140625,-0.9605392683640122,0.2622381835559383,-0.0445890833109617,-0.0784348547458648,0.0388416089117527,0.4408543109893799
2.0768740234375,-0.8940152704901992,0.2103526961591094,-0.0194908824115991,-0.0870738849043846,0.013016402721405,0.4762709140777588
2.086902099609375,-0.7963895204532891,0.173219847138226,0.0576204143196344,-0.0977193489670753,-0.0011433018371462,0.5176950097084045
2.096929931640625,-0.7358280842456966,0.1825219284906983,0.1590747096687555,-0.1034281030297279,0.0121511984616518,0.5605966448783875
2.1069580078125,-0.7396508574042469,0.2832884607713669,0.1502349851310253,-0.1025334671139717,0.0770507156848907,0.5941464304924011
2.116985107421875,-0.8128664618711918,0.4573181629877537,0.0453361022859811,-0.095637746155262,0.1367803663015365,0.6005499958992004
2.12701318359375,-0.999445337602496,0.5960974689289927,-0.0965367126911878,-0.0895968973636627,0.1875383406877517,0.5846176743507385
2.137041259765625,-1.1083398659549653,0.7091258822157979,-0.1813935089826583,-0.0689467415213584,0.2518060207366943,0.5262731313705444
2.147069091796875,-1.405870275633782,0.8252437128853053,-0.5134253232002258,-0.0352498367428779,0.3155602812767029,0.4396590888500213
2.157096923828125,-1.759833643413335,1.003680637084693,-0.8676958572328091,0.0135387443006038,0.3478489816188812,0.3450601398944855
2.167125244140625,-1.9234575408190488,1.0800046558957546,-1.255775721886754,0.0738774463534355,0.3013785183429718,0.2802381515502929
2.177153076171875,-1.8262420520834624,0.8425897652879357,-1.570049761095643,0.1309316903352737,0.1655099093914032,0.2670624256134033
2.187179931640625,-1.4894802867345511,0.4469981002317741,-1.679161877721548,0.1696752607822418,-0.0220034606754779,0.3064314723014831
2.1972080078125,-1.046165953049436,0.0347658276285976,-1.633544035884738,0.1924665868282318,-0.2233773171901703,0.3865854144096374
2.207236083984375,-0.6533795181397348,-0.3376734733663499,-1.3019769165694712,0.2016643285751342,-0.3788769841194153,0.4935775697231293
2.21726416015625,-0.3447886756664142,-0.6010249519264325,-0.8095271613806486,0.2029639482498169,-0.4677117764949798,0.6183945536613464
2.2272919921875,-0.0714484303976409,-0.7549553940419107,-0.2279395715802907,0.1917679011821746,-0.4833400845527649,0.7288774847984314
2.2373203125,0.0527456113575026,-0.7365440504953265,0.2928969046592712,0.1812734454870224,-0.4272270202636719,0.7998360395431519
2.247347900390625,-0.0265828111506416,-0.5855296419570222,0.6193897894501685,0.1579128503799438,-0.3093746900558471,0.8408516645431519
2.257375,-0.1434904701737221,-0.413957342830114,0.8322685700207948,0.120664544403553,-0.1726181656122207,0.8784893751144409
2.267403076171875,-0.2007767297687009,-0.3257108675677329,1.0046288777202368,0.0791476517915725,-0.032443281263113,0.947636902332306
2.27743115234375,-0.0623718466304242,-0.3534185568457469,1.0993827986478806,0.0319274105131626,0.073536142706871,1.042677879333496
2.287458984375,0.1898108068572357,-0.4268126596847549,1.1590016933083531,-0.0138219986110925,0.1408422142267227,1.1369423866271973
2.297487060546875,0.2895796698700636,-0.4887229532180354,1.1569827547013758,-0.0490819849073886,0.1684781014919281,1.2022724151611328
2.30751513671875,0.2459191361134871,-0.4458261338429525,1.072846673899889,-0.063316099345684,0.1699520200490951,1.2275334596633911
2.31754296875,0.0902129712960682,-0.3467405403865501,0.9324088601619004,-0.0501443706452846,0.1543275117874145,1.213491439819336
2.327570068359375,-0.1310772162644658,-0.2205313046177849,0.7549187883585691,-0.0115484558045864,0.1394130885601043,1.170532464981079
2.337597900390625,-0.2954722350399941,-0.0652475481972098,0.5922241346269845,0.0366510301828384,0.1350393742322921,1.1065319776535034
2.347626220703125,-0.5231017177578061,0.1479998464901,0.3912088103294372,0.0842395350337028,0.1276950985193252,1.012406826019287
2.357654052734375,-0.7737614359945059,0.3282669817913323,0.2895195371806621,0.1305010318756103,0.1439110934734344,0.8999819159507751
2.367682373046875,-0.989393314665556,0.4219567806188017,0.17637363499403,0.1753315478563308,0.1898946762084961,0.7838174700737
2.3777099609375,-1.2599370793499052,0.427811863322556,-0.0319487974464893,0.2074399441480636,0.2276726812124252,0.6905410289764404
2.387737060546875,-1.4374363573729991,0.3644994479063898,-0.2675631414383649,0.2202893942594528,0.2236692011356353,0.6327952742576599
2.39776513671875,-1.3767878274038434,0.159626991522964,-0.4807721768766641,0.216219812631607,0.173184186220169,0.6103243231773376
2.40779296875,-1.2929096668861806,-0.1187396488067693,-0.6296066475600004,0.2099390625953674,0.0939279347658157,0.6251710653305054
2.4178212890625,-1.209863354082778,-0.4349884038884192,-0.7834078007400035,0.2037584036588668,-0.0156350452452898,0.6850314736366272
2.427848876953125,-1.0765675210539252,-0.6941491162277758,-0.8574281457185745,0.1969707757234573,-0.1278959512710571,0.7802404761314392
2.437877197265625,-0.9239593770507722,-0.8765413539241999,-0.8054577199846505,0.186904564499855,-0.2313043624162674,0.8986608982086182
2.447905029296875,-0.7652002361372113,-1.035317519037798,-0.62069268874228,0.1717577427625656,-0.3076583445072174,1.0205512046813965
2.45793212890625,-0.6837588743124157,-1.1100246772367506,-0.3279232098549604,0.1576858609914779,-0.3695475161075592,1.12786602973938
2.4679599609375,-0.6829509189303964,-1.012554410022497,0.0103887075453996,0.1460269838571548,-0.4186162948608398,1.201801300048828
2.477988037109375,-0.7423398042272776,-0.771955190290138,0.3581231178075075,0.1536529511213302,-0.4541804194450378,1.2313123941421509
2.48801611328125,-0.8357723403580486,-0.4995781092314049,0.5982195756494999,0.1826626509428024,-0.4407959282398224,1.2404730319976809
2.4980439453125,-0.858349498347193,-0.2629869560966268,0.7873913174182177,0.2146277725696563,-0.3932670354843139,1.2502423524856567
2.508072265625,-0.7958314481791109,-0.0057817115068668,1.0221960985928773,0.231259286403656,-0.315368503332138,1.2721867561340332
2.518099853515625,-0.6705340665582568,0.2060910018603317,1.2940309260010718,0.2304062843322754,-0.2172603011131286,1.3009907007217407
2.528127197265625,-0.5482117552254349,0.3152229374315589,1.53294197345078,0.2085741609334945,-0.1227093711495399,1.3250294923782349
2.538155029296875,-0.5061419612590223,0.4082915356207638,1.643970737352967,0.1745086014270782,-0.0314497724175453,1.345055103302002
2.548183349609375,-0.4219320480363443,0.5540586180901155,1.711398259937763,0.1355934739112854,0.0532328337430954,1.3487443923950195
2.558211181640625,-0.4860765668950975,0.7428617092095315,1.6931746209830043,0.1112849339842796,0.1200555339455604,1.323106050491333
2.568239013671875,-0.6545922549303621,0.9036535249944776,1.5020143357455729,0.1069598942995071,0.1555466651916504,1.2873594760894775
2.57826708984375,-0.7627190868459641,1.0385228909503668,1.2025041504263878,0.1222155466675758,0.1695410460233688,1.2389287948608398
2.588295166015625,-0.8084209537044167,1.1775706385694444,0.9126713095128536,0.1450218260288238,0.172844186425209,1.1792969703674316
2.598322265625,-0.9473571307078004,1.3316490012556317,0.6690086836218834,0.1640607714653015,0.1675516813993454,1.115746259689331
2.608349853515625,-1.121306022772938,1.4095432650581,0.4728589195340871,0.1746417433023452,0.14959017932415,1.057907223701477
2.618378173828125,-1.1869713579908012,1.3853225776456295,0.3167483203679323,0.1754979491233825,0.1364149898290634,1.0100212097167969
2.628406005859375,-1.2735484022036194,1.2642172408871353,0.1386006614387035,0.1633024364709854,0.1154666095972061,0.9871953129768372
2.63843408203125,-1.2825818957477808,1.1363343728177249,0.0063812254697084,0.1374796330928802,0.0928465202450752,0.9827933311462402
2.648462158203125,-1.204837415679544,0.9850173646036536,-0.0868985312521457,0.0936076566576957,0.0792065113782882,1.006162405014038
2.65848876953125,-1.1348696340274065,0.838538078744337,-0.1742646800160407,0.0416059754788875,0.0446810275316238,1.048320174217224
2.66851708984375,-0.997045656049624,0.7334171506464481,-0.1858119099467992,-0.0129033252596855,-0.0026272358372807,1.103999376296997
2.678544921875,-0.9000395722810178,0.6779557409916073,-0.1767640956163406,-0.0560539923608303,-0.0544486194849014,1.1503684520721436
2.68857275390625,-0.8552351657189429,0.6855909851104021,-0.1324970838665962,-0.0806942507624626,-0.0994864404201507,1.173575520515442
2.6986005859375,-0.9073517219252883,0.7692105677571147,-0.0659276394158601,-0.0857633128762245,-0.1294155716896057,1.164057970046997
2.708628662109375,-1.038838459705561,0.8347583410099149,0.0413093309879303,-0.0764472708106041,-0.1403050422668457,1.1379950046539309
2.71865673828125,-1.1267882535763083,0.8927898203484713,0.1634557012319564,-0.0641844794154167,-0.1492316871881485,1.1125280857086182
2.728683837890625,-1.1071928148116916,0.935816549713537,0.3162275113642215,-0.0524056181311607,-0.1545150727033615,1.0919028520584106
2.7387119140625,-1.0229146221257746,0.8856295733302831,0.4523433702498674,-0.0387944728136062,-0.145791083574295,1.077767252922058
2.748739501953125,-0.9398933706983924,0.7607726289533078,0.5197516036123037,-0.0316850170493125,-0.1192056462168693,1.0766130685806274
2.758767822265625,-0.8673050312843174,0.6707029203191399,0.5841811134248972,-0.0348403304815292,-0.0792715474963188,1.0934916734695437
2.768795654296875,-0.7965110279411077,0.5858539785405621,0.600328530627489,-0.0439109504222869,-0.0329012349247932,1.121834397315979
2.77882373046875,-0.7759582153864204,0.4813285686504095,0.5430757805764674,-0.0616324208676815,0.0132753141224384,1.1535967588424685
2.788851806640625,-0.7522274303827434,0.3853756471965461,0.4550649041682481,-0.0838513374328613,0.0450848713517189,1.185713291168213
2.798878662109375,-0.6811566559247673,0.3193892633307725,0.308591317397356,-0.1054927185177803,0.0596068240702152,1.2111986875534058
2.80890673828125,-0.6644771776720881,0.2912697783814743,0.1218827508717775,-0.1267548501491546,0.0631767362356185,1.2239574193954468
2.8189345703125,-0.6743189188592136,0.3142160619439557,-0.0655751727163791,-0.1437881588935852,0.0583385713398456,1.2229357957839966
2.828962890625,-0.7266746906489133,0.3722275214077905,-0.2318143671870231,-0.1476772576570511,0.0371393077075481,1.2187820672988892
2.838990478515625,-0.7722811343088746,0.4147711799636483,-0.3873404444634914,-0.13886059820652,-0.0083192531019449,1.2117944955825806
2.849018798828125,-0.7872938483931123,0.4673811457101255,-0.594867927134037,-0.1235456019639968,-0.0512417592108249,1.1980043649673462
2.859045654296875,-0.836472889842838,0.5509967097688466,-0.7780588409274816,-0.1003579944372177,-0.0588597282767295,1.1616652011871338
2.86907373046875,-1.054426051068306,0.6113797206696122,-0.9775643451839684,-0.0760867372155189,-0.0302583165466785,1.1181693077087402
2.879101806640625,-1.280689359999448,0.6153177907709032,-1.2255337283581496,-0.0642119646072387,-0.0086749922484159,1.0685794353485107
2.889129638671875,-1.3600494585707783,0.5898599262462929,-1.315161392313242,-0.0611542500555515,0.0191268529742956,1.0124284029006958
2.89915771484375,-1.477241713538766,0.4930063661582767,-1.4641624517351388,-0.0531815476715564,0.0534816309809684,0.9537113308906556
2.909185546875,-1.655546170464903,0.360972808150202,-1.678380371955037,-0.0522040054202079,0.0650275349617004,0.9072006344795228
2.9192138671875,-1.6983669289290904,0.1936691810521297,-1.8475790007531645,-0.0482598654925823,0.0233783591538667,0.8919002413749695
2.929240478515625,-1.5918506740152836,-0.0755464311678428,-1.99742118717432,-0.0378188751637935,-0.1204341724514961,0.9042829275131226
2.939268798828125,-1.3321055128514765,-0.4875345836836844,-2.098566854965686,-0.0214553475379943,-0.3463453352451324,0.9556454420089722
2.949296630859375,-0.9689166360870004,-0.8367675619404763,-1.993363436216116,0.010528003796935,-0.5960288643836975,1.03353750705719
2.959324951171875,-0.5983115647818893,-1.1128091203235089,-1.6753472878694533,0.0525968968868255,-0.7728095054626465,1.115880846977234
2.969352783203125,-0.4601131274685263,-1.160808231273666,-1.124125025716424,0.0785499736666679,-0.8285313844680786,1.2041418552398682
2.979380615234375,-0.455748977442272,-0.9521806784067304,-0.379787837126851,0.0817108750343322,-0.7919014692306519,1.292402267456055
2.98940771484375,-0.4109140296114608,-0.7362115306053311,0.4547516004353761,0.0628916397690773,-0.6931979060173035,1.3694988489151
2.999435546875,-0.3950737786618992,-0.5468662223679944,1.2101485276997088,0.0283059626817703,-0.5276816487312317,1.420974850654602
3.0094638671875,-0.5016073500366881,-0.361400130184181,1.690914859357476,-0.0016317230183631,-0.334666758775711,1.449330449104309
3.01949169921875,-0.6566786327503621,-0.2185854312470182,1.934768039384484,-0.0210387110710144,-0.1396946012973785,1.471374750137329
3.029519775390625,-0.7549526906281709,-0.0981541395588777,2.013744545465708,-0.0244597010314464,0.0301338117569684,1.4815659523010254
3.039547607421875,-0.820620729259774,-0.0455155139734968,1.88305947945714,-0.0044681495055556,0.1453296393156051,1.4729472398757937
3.04957568359375,-0.9607599253773688,-0.0908841028901282,1.6349392896354198,0.0297333505004644,0.1935385465621948,1.446211576461792
3.059602783203125,-1.053249846895784,-0.1636783675393089,1.3309768010824918,0.0760800763964653,0.1901339590549469,1.40975022315979
3.06963037109375,-1.1194533075783402,-0.2228212421858683,0.9881564663469792,0.1332792937755584,0.1596155613660812,1.3592063188552856
3.07965869140625,-1.2833490807279944,-0.286773964799568,0.7533768196135759,0.2011614143848419,0.133799135684967,1.313084363937378
3.0896865234375,-1.4239868009522556,-0.3468478732185438,0.606822568821907,0.258855938911438,0.1379683911800384,1.2822715044021606
3.09971484375,-1.5197412772245704,-0.3028872422705404,0.5442845718443393,0.2958978414535522,0.1806972175836563,1.260290026664734
3.10974267578125,-1.5392618241220712,-0.2687460858789272,0.5062064778625964,0.305812656879425,0.2638285756111145,1.2377150058746338
3.1197705078125,-1.479931829405576,-0.3903754647778347,0.4408849876463413,0.2756361365318298,0.3584330976009369,1.2149943113327026
3.129797607421875,-1.5334054993093014,-0.4899187754064798,0.3632008594632148,0.2099478095769882,0.4314847290515899,1.1908106803894043
3.13982568359375,-1.623342375344038,-0.4869110449578612,0.2388087561190128,0.1386376768350601,0.4332394599914551,1.1578338146209717
3.149853759765625,-1.6500795756220816,-0.5533737045658752,-0.0142523972362279,0.081471711397171,0.365522563457489,1.1305561065673828
3.1598818359375,-1.5568744915716348,-0.6757444216176867,-0.2933312044233083,0.0527053102850914,0.2260688096284866,1.1232446432113647
3.16990966796875,-1.3969837893448769,-0.7800645547267049,-0.5277583844572306,0.0535744316875934,0.0354024171829223,1.1316956281661987
3.179937744140625,-1.270820438544452,-0.8372996229905635,-0.6385737978696823,0.0864327773451805,-0.1682828068733215,1.1425700187683103
3.18996484375,-1.1068912015166132,-0.9103925509259104,-0.6248731892973184,0.1246060207486152,-0.3159039616584778,1.1541659832000732
3.19999267578125,-0.9905207112602888,-0.883352202982828,-0.40138650547266,0.1408848613500595,-0.377081036567688,1.159712314605713
3.210020751953125,-0.938486864901334,-0.6932194341622293,0.1087444523572921,0.1241476163268089,-0.3596149981021881,1.1534909009933472
3.220048583984375,-0.9389252563185988,-0.4856501581765711,0.7072171259850263,0.087023414671421,-0.2962557375431061,1.1291179656982422
3.23007666015625,-0.9448183329451828,-0.309042202970013,1.1747089655280112,0.0435013100504875,-0.2142873704433441,1.0874261856079102
3.240104736328125,-0.9152087921012192,-0.1558220828146673,1.491028831350803,0.0145886987447738,-0.1115186363458633,1.0350120067596436
3.2501328125,-0.847754454574734,-0.0253029022917617,1.652633936280012,0.0016302762087434,-0.0152554344385862,0.9634435176849364
3.26015966796875,-0.9309748818360268,0.0923000341026578,1.6805962944388388,0.0075547443702816,0.0704309791326522,0.8799145221710205
3.2701875,-1.064109606019035,0.1767231425514444,1.5941180344253778,0.0301204398274421,0.1291906684637069,0.7906291484832764
3.2802158203125,-1.1260895307224243,0.1370237218450289,1.4232447504132986,0.0646834746003151,0.1531244963407516,0.7040018439292908
3.29024365234375,-1.1910818620495498,0.0730737665771506,1.1763590708225964,0.0894483774900436,0.1536599546670913,0.638023853302002
3.300271728515625,-1.169326980228722,-0.0270885892652906,0.963506593737006,0.107398085296154,0.1390666365623474,0.5939863324165344
3.310299560546875,-1.1201815487876534,-0.1558373351827263,0.8463105393767356,0.1095032542943954,0.1187755465507507,0.5608807802200317
3.32032763671875,-1.1562005182825028,-0.2202289058714173,0.8010136000573634,0.1095163002610206,0.1121258959174156,0.5366334915161133
3.330354736328125,-1.2023755556106566,-0.2546818133596331,0.7450450445979833,0.11210548132658,0.106144331395626,0.520087718963623
3.3403828125,-1.1481620271250603,-0.3175243462417274,0.6538783345073461,0.1144951358437538,0.1082969680428505,0.5050621628761292
3.35041064453125,-1.0830097559958696,-0.3357156903620809,0.6066963120937348,0.1097811907529831,0.1119072437286377,0.4906767904758453
3.360438720703125,-1.018189639430493,-0.3520797459900379,0.6008253742337226,0.0943913161754608,0.1180290430784225,0.4737686514854431
3.370466552734375,-0.9155570940822364,-0.3613701369047165,0.6093488724291324,0.0715223476290702,0.1215346604585647,0.4494829475879669
3.380494873046875,-0.8250165530659258,-0.3180903095614165,0.5896136598676442,0.0462614595890045,0.1173289939761161,0.4128125607967376
3.39052197265625,-0.7872925332188606,-0.2800849885549396,0.5085141702830791,0.0244721919298172,0.1006792038679122,0.3710204064846039
3.400549560546875,-0.7777399842366576,-0.2374449569525197,0.4209299948543309,0.024010932072997,0.0849250108003616,0.3226797580718994
3.41057763671875,-0.7318459558069705,-0.2010013871037401,0.2559422617495059,0.0321277044713497,0.0810899287462234,0.2704545557498932
3.420605712890625,-0.7254179685860872,-0.1261754248307086,0.1163783082365989,0.0402508750557899,0.0927686989307403,0.2167934626340866
3.4306337890625,-0.7955814920060336,-0.0284149607645347,0.0040671033084392,0.0529584698379039,0.1073139682412147,0.1594352722167968
3.440661865234375,-0.830353822440654,-0.0030569033525884,-0.1381640235871076,0.0586973167955875,0.1198337525129318,0.110010989010334
3.450689697265625,-0.8558343006558716,-0.0322421726361848,-0.2462725161284208,0.0568494945764541,0.1289858818054199,0.0683701187372207
3.460716796875,-0.9136236418016256,0.0042767640037462,-0.3344464741438627,0.0354632511734962,0.1374150514602661,0.0291662532836198
3.470744873046875,-0.942277635486424,0.0189816359815187,-0.4562660966515541,0.005192345008254,0.1284431666135788,-0.0124333798885345
3.480772705078125,-1.049193557242304,0.0191793139780871,-0.5310778842687607,-0.0255842097103595,0.1181476414203643,-0.0564391873776912
3.490800537109375,-1.1595752554126084,-0.007215648733545,-0.6399912634521723,-0.0468785613775253,0.1082353144884109,-0.1008234173059463
3.50082861328125,-1.2448004466250535,-0.0306932078948244,-0.8029489520341158,-0.0477680563926696,0.0893356576561927,-0.1280105710029602
3.510856689453125,-1.2541029663689434,-0.1090284021315164,-0.9785533562213182,-0.0208621714264154,0.0661791190505027,-0.1281611174345016
3.5208837890625,-1.115061137033999,-0.2233124597689136,-1.1770043829888104,-0.0031923628412187,0.0363967269659042,-0.1028850600123405
3.530911865234375,-0.9581706395365296,-0.2984481273119337,-1.2595400428563357,-0.0141872353851795,0.0173494014889001,-0.0659918338060379
3.540939697265625,-0.7914107821926474,-0.3197906837385147,-1.1797054586410525,-0.0597936026751995,0.0023811049759387,-0.0387053526937961
3.550967529296875,-0.726868313524872,-0.3423035077871754,-1.0563958898365498,-0.1258915662765503,0.0017004983965307,-0.030941367149353
3.560995849609375,-0.7660055611707269,-0.2536487074522301,-0.916988003668189,-0.1817284673452377,0.0007705227471888,-0.0519491806626319
3.571023681640625,-0.8717055312655866,-0.1237464897838886,-0.9319903424888848,-0.2069160789251327,-0.0157763697206974,-0.087759144604206
3.581052001953125,-0.9160945619598032,-0.0074195464083459,-1.0153104307323693,-0.2045080512762069,-0.0537607707083225,-0.1246564462780952
3.59107861328125,-0.8994954554669559,0.1208434252861421,-1.0846885028630495,-0.1859702169895172,-0.0878062546253204,-0.165706604719162
3.601106689453125,-0.8519612586148083,0.2199246439615264,-1.1175105760127306,-0.1587902754545211,-0.0966471508145332,-0.2141825258731842
3.611134765625,-0.8361904927048832,0.2682364193237386,-1.1167162107646464,-0.1362855583429336,-0.0893019065260887,-0.2721110582351684
3.62116259765625,-0.8396028584316373,0.2931995226013474,-1.08929395083189,-0.1259138733148574,-0.0714296922087669,-0.3139432072639465
3.631190673828125,-0.7314254653725772,0.2676742005974054,-0.9864368029475212,-0.1353417187929153,-0.0557078644633293,-0.3387448489665985
3.641218505859375,-0.5780658454149961,0.1874681527212262,-0.8365800034791231,-0.1596244126558303,-0.049773808568716,-0.3432439863681793
3.651245849609375,-0.4067037184400484,0.0349315281678806,-0.722078010508418,-0.1874802857637405,-0.0715080052614212,-0.3271477818489074
3.661273681640625,-0.1866819890459068,-0.1660768069831654,-0.6234066238760948,-0.2131765931844711,-0.1130416020750999,-0.2931639850139618
3.671302001953125,0.036027499861177,-0.3233866624038666,-0.5021574947327375,-0.2297568023204803,-0.1517544984817505,-0.2613798975944519
3.681329833984375,0.1736334694404155,-0.4258391019448638,-0.3484247306138276,-0.2426049560308456,-0.1635078191757202,-0.2352686673402786
3.691357666015625,0.2197140699507668,-0.5213517322853207,-0.1338964292705059,-0.254863828420639,-0.1652056574821472,-0.218581274151802
3.701385986328125,0.2058626547308638,-0.5960429257301614,0.0326174904882907,-0.2691580653190613,-0.1840765476226806,-0.1897336542606353
3.711413818359375,0.3087324429010972,-0.6917326296705752,0.24099603703022,-0.2772760987281799,-0.2062364220619201,-0.1523873656988144
3.721440673828125,0.4536524435544386,-0.7958300599396229,0.4261433455884456,-0.2732917368412018,-0.2263781726360321,-0.107132539153099
3.73146875,0.5857440518926829,-0.890972980184853,0.5723819545596838,-0.2495851814746856,-0.23472960293293,-0.0585143826901912
3.741496826171875,0.6688197369210421,-0.9755088739588856,0.7079401795625686,-0.2133629769086837,-0.2267555743455886,0.0021889118943363
3.75152490234375,0.7836809185929596,-0.9985049880124628,0.8097118702977896,-0.1816325634717941,-0.2095524966716766,0.0708203762769699
3.761552978515625,0.8988798077866434,-0.9370573435548692,0.9994219567269086,-0.1597927808761596,-0.1708074957132339,0.1191498264670372
3.771580810546875,0.8755085037451237,-0.8616546773724257,1.1935381691604852,-0.1435193121433258,-0.1081527099013328,0.1456221938133239
3.78160791015625,0.7297209995422512,-0.7653301461271941,1.3337965346783398,-0.135521575808525,-0.0318323746323585,0.1512151062488556
3.7916357421875,0.5675299114186316,-0.6004508053002878,1.3894360043138263,-0.1211491897702217,0.0492767356336116,0.1424743086099624
3.801663818359375,0.4498729250157252,-0.4762176553774624,1.3223083414584398,-0.0953639298677444,0.1156107485294342,0.1177375242114067
3.81169189453125,0.2976771977383643,-0.3764635880749672,1.1691437326163052,-0.057280421257019,0.1509622931480407,0.0864854902029037
3.8217197265625,0.1482525791421532,-0.3096427261464297,0.9313222339689732,-0.0087895859032869,0.1505028903484344,0.0604280605912208
3.831747802734375,0.1148071864623576,-0.3022600320165977,0.6457008732706307,0.0486864522099494,0.1244681552052497,0.0447056591510772
3.84177587890625,0.1314701519716531,-0.3681439418885857,0.3810428056240081,0.0992926359176635,0.0842981040477752,0.0552720166742801
3.851802978515625,0.1404369369551539,-0.4145522034507244,0.212394211924076,0.1232380643486976,0.0436999835073947,0.0928394123911857
3.861830810546875,0.2249662913905456,-0.4415441091421991,0.2004109286636114,0.1210747808218002,-0.0022408757358789,0.1489748507738113
3.871858642578125,0.3103225981693714,-0.4973314628157764,0.2528559861719608,0.0997657626867294,-0.0433483645319938,0.2136116325855255
3.881886962890625,0.395471217014268,-0.5740734878432006,0.3465285416036844,0.0697761699557304,-0.0722367390990257,0.2755066752433777
3.891914794921875,0.4150673133660107,-0.5200652361387387,0.4915075059026479,0.0480977073311805,-0.0902516320347786,0.3227793276309967
3.901943115234375,0.3251077140428126,-0.3520368566963821,0.5579641376286745,0.039425391703844,-0.1044792979955673,0.3514964580535888
3.9119697265625,0.1986205015828832,-0.1621292018685489,0.630965076431632,0.0438757576048374,-0.1008047014474868,0.35486501455307
3.921997802734375,0.0944942470781505,0.0351920536840334,0.6860381443560123,0.0576485581696033,-0.0966472402215004,0.3474073708057403
3.93202587890625,0.0675553136829286,0.2086572904180735,0.7479092018574476,0.0670668631792068,-0.0830096378922462,0.3444641232490539
3.942053955078125,0.1169176392776891,0.3307754574809223,0.802504715397954,0.0726453810930252,-0.0743130892515182,0.3459794521331787
3.95208203125,0.2360634759988635,0.4146619474355131,0.883580239585042,0.0617500431835651,-0.0781141072511673,0.3526021838188171
3.962109619140625,0.3902256079783663,0.4486524798426777,0.9774743288129568,0.0488960295915603,-0.0816502422094345,0.363151490688324
3.972137939453125,0.4866984981857239,0.4941832279179245,1.012947793254256,0.0342027321457862,-0.0888090580701828,0.3644354939460754
3.982164794921875,0.5159405208915472,0.5640587281767279,1.0274024350643158,0.0232736486941576,-0.091877557337284,0.3528355658054352
3.99407275390625,0.5173261665636674,0.6693377694457769,1.030541317611933,0.0106296427547931,-0.0800408720970153,0.3302485048770904
4.004100830078125,0.5092540288649499,0.7224992315951735,1.0249708240032196,0.0016505277017131,-0.0624366626143455,0.3136993944644928
4.01412890625,0.5454983315482735,0.8064870630323886,0.9706775082796812,-0.0066651925444602,-0.0451732575893402,0.3035213351249695
4.02415673828125,0.617116437690705,0.839784717804566,0.919647578266263,-0.0126141123473644,-0.0026978976093232,0.302068829536438
4.03418505859375,0.6390384197067469,0.8694058029558509,0.8812386448949575,-0.0203117132186889,0.0337469279766082,0.3128186762332916
4.044211669921875,0.6974442122504114,0.8826685315676033,0.8697171339273452,-0.0406620427966117,0.0558596178889274,0.322801798582077
4.05423974609375,0.6740340375032275,0.8740846814870834,0.8911182338744401,-0.0688550621271133,0.0604740753769874,0.3204731345176697
4.064267822265625,0.6291174027383327,0.8564808549311012,0.8675386208444833,-0.0891384407877922,0.0509371906518936,0.2993571162223816
4.0742958984375,0.5015118537729606,0.8411619244419037,0.7536310866355895,-0.0897869169712066,0.0325475297868251,0.2697893679141998
4.08432373046875,0.3901412541631609,0.8691307123415172,0.5323328527659178,-0.0739535242319107,0.0061224568635225,0.2481868267059326
4.0943515625,0.331408896546252,0.9006034167088568,0.3557043662279844,-0.0500455312430858,-0.0181930027902126,0.2380103468894958
4.1043798828125,0.2789518198065459,0.901451557970792,0.2119406229376793,-0.0245613288134336,-0.0508319996297359,0.229860320687294
4.114406982421875,0.2292447358947247,0.8432762131821364,0.0750970342993736,-0.008002059534192,-0.0898992419242858,0.2240977734327316
4.12443505859375,0.1528182796224951,0.7385967452414334,0.0456231025338172,-0.0080418605357408,-0.0844747424125671,0.2296451777219772
4.134462646484375,0.1342609517339617,0.6432824870172887,-0.0083422964096069,-0.0117662912234663,-0.0658113062381744,0.2558898329734802
4.144490966796875,0.1088856143936514,0.5978956043921411,-0.061776364955306,-0.0246610902249813,-0.0404504984617233,0.2891549468040466
4.154518798828125,0.109167573140189,0.465511917772144,-0.0995604444265365,-0.0449586398899555,-0.0082262493669986,0.3273223042488098
4.164546875,0.0688506141904741,0.3237832605060189,-0.1837070466220378,-0.0749087706208229,-0.001209411304444,0.3718971312046051
4.17457373046875,0.0381779376270249,0.1959174531692639,-0.3163134360820054,-0.0972510948777198,-0.0203740503638982,0.4130067527294159
4.184601806640625,0.0707594800191,0.1188582154188305,-0.4672299737364053,-0.1078661084175109,-0.0601840764284133,0.4421001970767975
4.1946298828125,0.0509399136424064,0.0807384011872112,-0.6976970179677009,-0.1140451729297638,-0.0923936814069747,0.4694884121417999
4.20465771484375,-0.0115337493946775,0.0801979741675779,-0.8407961598694323,-0.1215816587209701,-0.1124542877078056,0.4988418221473694
4.21468603515625,-0.0157906761867925,0.1082400099664926,-0.8354413548380136,-0.125227004289627,-0.1319848597049713,0.5209018588066101
4.224713623046875,-0.2214858653962612,0.1958061017492786,-0.8213315809428692,-0.1410572379827499,-0.0976084098219871,0.5347906947135925
4.234740966796875,-0.4236628538843244,0.209062254489772,-0.8537900814771652,-0.1506254374980926,-0.0086313970386981,0.5429216027259827
4.244768798828125,-0.6701862029686569,0.2853736695475876,-1.0388432820111513,-0.1609971970319748,0.1066825315356254,0.5494473576545715
4.254796875,-0.8724953664690256,0.2845736052110791,-1.1965987257748842,-0.1744565516710281,0.2138185650110244,0.5423128008842468
4.264824951171875,-0.9878327142853288,0.247240557442978,-1.466480665549636,-0.1789064705371856,0.253902792930603,0.512261152267456
4.2748525390625,-1.1465746848683804,0.1725317187435925,-1.7389549599051477,-0.156051218509674,0.2180787473917007,0.4505796730518341
4.284880859375,-1.2655723087579012,-0.0344557752987369,-2.06398420188427,-0.0942375883460044,0.1161980777978897,0.3687711656093597
4.29490869140625,-1.3622076595179735,-0.219765069485642,-2.400749474364519,0.0052357432432472,-0.0512122176587581,0.2977521121501922
4.30493603515625,-1.298937695004046,-0.3985849285880103,-2.601261525315046,0.1282071024179458,-0.2330451011657714,0.2560923993587494
4.314963623046875,-1.0785150018598884,-0.5582950866160914,-2.5967116069257257,0.2346805483102798,-0.3939695358276367,0.2422367632389068
4.324991943359375,-0.9083655751429498,-0.6323872181892395,-2.3222107751786707,0.2961363494396209,-0.5079463124275208,0.2581392526626587
4.335019775390625,-0.7224485973864794,-0.6636983022540808,-1.7797224391013382,0.3007462918758392,-0.5675113797187805,0.290321409702301
4.3450478515625,-0.4677624731779098,-0.6611006869763135,-1.0824228960186242,0.2457259744405746,-0.5685105323791504,0.3498472869396209
4.355075927734375,-0.2115082959350198,-0.6442571042031049,-0.3485936574399471,0.1505280882120132,-0.4934352040290832,0.4295943081378937
4.365102783203125,0.0312698022063821,-0.6362336644843221,0.4050970504283905,0.0501373894512653,-0.3523547947406769,0.52019864320755
4.384532958984375,0.5383507248159498,-0.4427521697577088,1.573852075988054,-0.0926067158579826,-0.0633219107985496,0.7234289646148682
4.394560791015625,0.4896407621826976,-0.2915446863327175,1.676823205640912,-0.1300673335790634,0.0278878323733806,0.7936514019966125
4.4045888671875,0.2335544888526201,-0.2096661021344363,1.617439288780093,-0.1202993988990783,0.0785960182547569,0.8125438094139099
4.414616943359375,-0.1041102166853845,-0.094889858799614,1.503638722077012,-0.071753405034542,0.0990233793854713,0.7872927784919739
4.424643798828125,-0.3810739314146339,0.0740371865155175,1.4195371280670166,0.0042071426287293,0.1094216927886009,0.7435919046401978
4.434671875,-0.6128232705414295,0.215244048397243,1.3387322375148534,0.0917116478085517,0.124240905046463,0.695057213306427
4.44469970703125,-0.822988846630603,0.2901175761390477,1.2401578815162182,0.1725401878356933,0.1429011523723602,0.6448952555656433
4.45472802734375,-0.9761400114692746,0.2563992848020047,1.0982447345286608,0.2440341413021087,0.1415176540613174,0.5923433303833008
4.464755615234375,-1.0536166343815625,0.1643197341827675,0.9078203623503446,0.2980286777019501,0.12046829611063,0.532182514667511
4.47478369140625,-1.11947895347625,0.0586586713261902,0.8050532308369874,0.3338505327701568,0.1085059866309166,0.4702935516834259
4.484811767578125,-1.099000740527734,-0.067881915288791,0.7784305968493223,0.3453378081321716,0.1215117946267128,0.439357727766037
4.494839111328125,-1.0353738523349163,-0.2487417192535475,0.7508236279994249,0.3467155992984772,0.1588193923234939,0.4455528557300567
4.50486669921875,-0.9745549342349172,-0.4567773341093212,0.7176537643253803,0.3403823375701904,0.2094311714172363,0.4772231578826904
4.514894775390625,-0.9709776602700352,-0.6552623362116515,0.5789642555594444,0.3271092772483825,0.2585253119468689,0.5169766545295715
4.5249228515625,-1.0345926388293505,-0.7608391183182597,0.4296685971051454,0.3107771575450897,0.2862938046455383,0.5581461787223816
4.534950927734375,-1.129747834034264,-0.7672478163167834,0.2611293089985847,0.2973966896533966,0.3004608452320099,0.5985990166664124
4.54497900390625,-1.174507743867487,-0.7382398215625434,0.1338397306472063,0.2802965342998504,0.2841905355453491,0.6442450881004333
4.555005615234375,-1.1450760438084602,-0.7072844190675764,0.0211947637200355,0.2667180001735687,0.2413692027330398,0.694542646408081
4.565033935546875,-1.1068975581921636,-0.7069363362822682,-0.0051858782052993,0.2570590078830719,0.1782189905643463,0.7536669969558716
4.575061767578125,-0.9973775914177296,-0.6634194853127002,0.0597363835602998,0.2426620870828628,0.0909591391682624,0.8194600939750671
4.58508984375,-0.8664208688609302,-0.5382704626539722,0.1939402713447809,0.2318240851163864,0.0010063513182103,0.8775545954704285
4.595117919921875,-0.8448464581735432,-0.3690537136772647,0.3874538417100906,0.2281533628702163,-0.0732655823230743,0.910408854484558
4.605145751953125,-0.8808657199293375,-0.0931662681437097,0.6325608211904764,0.2301499247550964,-0.1359137892723083,0.9215930700302124
4.615173828125,-0.917801365877688,0.2273176402896642,0.8475000414222479,0.240170419216156,-0.1605700254440307,0.9075344204902648
4.62520068359375,-1.011207963849604,0.5507101113798096,1.042741458493471,0.2507953643798828,-0.1489290744066238,0.8660762310028076
4.63522900390625,-1.1274228982180357,0.7906548492588102,1.2004945641696452,0.2613493800163269,-0.0983248651027679,0.8064454197883606
4.645256591796875,-1.1469264209154992,0.9336257616709918,1.27199035910666,0.2755642831325531,-0.0231182649731636,0.7503579258918762
4.65528466796875,-1.0220349166817964,1.018807844394073,1.3516905032873152,0.2801291048526764,0.0472656190395355,0.714661717414856
4.665312744140625,-0.9203728238008916,1.0735635899975895,1.3783815263360737,0.2683728337287903,0.1205677911639213,0.693964421749115
4.6753408203125,-0.937138665162772,1.087054355211556,1.3131746024101971,0.237771064043045,0.1920708864927292,0.6784757971763611
4.6853671875,-0.990088603453338,1.1118600759703663,1.213330664867163,0.1981008797883987,0.2439937442541122,0.6589455008506775
4.695395263671875,-1.0602117948628962,1.1607983674667774,1.025503323444724,0.1599845737218856,0.2861463725566864,0.6380462646484375
4.70542333984375,-1.244222208345681,1.2202937818780542,0.752919723495841,0.1393551975488662,0.3159407377243042,0.6089821457862854
4.715451171875,-1.368561850850284,1.2509046087190507,0.5278840566635131,0.1263560056686401,0.3081278800964355,0.5795003175735474
4.7254794921875,-1.4482240011081098,1.173029780269414,0.2349064879834651,0.1294796168804168,0.2881906628608703,0.5450733304023743
4.735507080078125,-1.4996926147997378,1.1062129369288682,-0.0169318455785512,0.1333443820476532,0.2706567347049713,0.5155401825904846
4.745534423828125,-1.5894437590040265,1.1453010116707534,-0.1153378592729568,0.1163331791758537,0.2741310894489288,0.4909179210662842
4.755562255859375,-1.6526681308105586,1.1383249621130525,-0.2315449025958776,0.0777598023414611,0.299870103597641,0.4715990424156189
4.76559033203125,-1.6595701652839778,1.0124963962249458,-0.3939332668572664,0.0266002137213945,0.3218920528888702,0.4567064046859741
4.775618408203125,-1.598890801785141,0.8598762695230543,-0.5377168838918209,-0.0329005792737007,0.3327846527099609,0.4538287222385406
4.785646240234375,-1.4827368038237094,0.7014693030480295,-0.7549678881973028,-0.0849568545818328,0.3173351287841797,0.4649692475795746
4.79567431640625,-1.3895944097459316,0.5289611843757331,-0.9459370347768068,-0.1224576756358146,0.2730335295200348,0.4817351400852203
4.805702392578125,-1.4094872970871626,0.4349564743801951,-1.0913485452741385,-0.1536361128091812,0.2151252031326294,0.4898809492588043
4.8157294921875,-1.3832865417733788,0.3468265381695702,-1.127754322129488,-0.173852801322937,0.1358304172754287,0.4951993823051452
4.825757080078125,-1.23317927467525,0.1924585266207344,-1.1123264513731002,-0.1784568727016449,0.0484009720385074,0.5042437314987183
4.835785400390625,-1.1195255690969526,0.1345458422231022,-1.019171782335639,-0.1725289970636367,-0.0196818746626377,0.5085620284080505
4.845813232421875,-1.052994776156172,0.2129362098462879,-0.8164058149784803,-0.1662261039018631,-0.0698185414075851,0.5089462995529175
4.85584130859375,-0.9584732757449148,0.2323003606056794,-0.5836322473704815,-0.1630311608314514,-0.1051311567425727,0.4987353086471557
4.865869384765625,-0.7876301676753908,0.1876710914148017,-0.3353571592479944,-0.1582007259130478,-0.1256753057241439,0.4825741648674011
4.875896240234375,-0.6589643325347453,0.1910057522628456,-0.0976063877493143,-0.1595480591058731,-0.1194441169500351,0.4724765717983246
4.88592431640625,-0.5959577316647395,0.2211595195187255,0.0868506004571914,-0.1536915004253387,-0.0920761451125145,0.4623429775238037
4.895952392578125,-0.5174511446502059,0.2822682508781552,0.2782020243525505,-0.1483606994152069,-0.0385152176022529,0.4560604989528656
4.90598046875,-0.519947162717022,0.2942792258631438,0.4285965839594602,-0.1539400219917297,0.0241668075323104,0.4531083703041076
4.916008544921875,-0.5030300763161852,0.2630961520921439,0.5170908599704503,-0.1616319864988327,0.0857552364468574,0.4527367651462555
4.9260361328125,-0.474484657572396,0.2519735955805517,0.5281003297626972,-0.1748745590448379,0.1353757828474044,0.4563972949981689
4.936063232421875,-0.4575092651130631,0.2754746817478909,0.4527624724447727,-0.1834720075130462,0.1801241636276245,0.4613290131092071
4.94609130859375,-0.5220426736915483,0.4016928314754739,0.3613789047330618,-0.1884811520576477,0.2169293165206909,0.464477390050888
4.956119384765625,-0.7400797503408044,0.575867495120503,0.1943669723242521,-0.1922065019607544,0.2598711252212524,0.4373289048671722
4.966147216796875,-1.0518632148429752,0.6497589895550161,-0.0683428838640451,-0.1787921637296676,0.2992084324359894,0.3691557049751282
4.97617529296875,-1.3306516607813537,0.6825250947337598,-0.3133352970540523,-0.1463211774826049,0.2996126711368561,0.2740119099617004
4.986203369140625,-1.530440512023866,0.7070701917950063,-0.618982377693057,-0.0883092805743217,0.2759959995746612,0.1747170090675354
4.99623046875,-1.7457989805810152,0.7055438590105623,-0.9566378770112992,-0.0087581295520067,0.2654086053371429,0.0841882675886154
5.006258056640625,-1.8290061099693176,0.6413571449778974,-1.2258750891417265,0.0576856099069118,0.2642146944999695,0.0235182661563158
5.016286376953125,-1.7675211291760204,0.4714708261765539,-1.3216782268613576,0.0879076197743415,0.2461623698472976,-0.0028706470038741
5.026314208984375,-1.618086939033866,0.1738104334425181,-1.3359323776632546,0.0810473188757896,0.1887786984443664,0.014096618629992
5.03634228515625,-1.3271126730002465,-0.1443323369584977,-1.2783113788217306,0.0405737869441509,0.083365149796009,0.0946205258369445
5.046370361328125,-0.9820955588728189,-0.3693951475260779,-1.1246464192420245,-0.0065734814852476,-0.0453022792935371,0.2243042141199112
5.0563984375,-0.733519368911907,-0.5106196181297302,-0.915607947486639,-0.044515211135149,-0.1762968897819519,0.3772262930870056
5.06642529296875,-0.6917570334594696,-0.4972806094113737,-0.5559148038834333,-0.0748273059725761,-0.3077060282230377,0.51296466588974
5.076453369140625,-0.7413671598028391,-0.3599994696060195,-0.1745131018191575,-0.0981609746813774,-0.378000944852829,0.6074298024177551
5.0864814453125,-0.7753007743909954,-0.2194608441083692,0.13582827411592,-0.1173285394906997,-0.3764818906784057,0.6581292152404785
5.096509521484375,-0.8731746539700775,-0.0360579406652133,0.4434305804759264,-0.1518362611532211,-0.3348420560359955,0.6801208257675171
5.106537109375,-0.7931308839835226,0.080650978632085,0.6680810473829507,-0.2007617205381393,-0.301812469959259,0.6945782899856567
5.1165654296875,-0.4620448992487043,-0.0483963118405081,0.8606371708929538,-0.2580190300941467,-0.302089512348175,0.7217139005661011
5.12659228515625,-0.1842718408979475,-0.2384202865243889,0.9687035778582096,-0.2892043590545654,-0.3260680735111236,0.7601105570793152
5.136620361328125,-0.0194294162816368,-0.3293292772606015,0.9963315894961357,-0.2923950850963592,-0.349417895078659,0.8101294040679932
5.1466484375,0.040922313564876,-0.2901567573719658,1.0752414600819349,-0.266707569360733,-0.3758404552936554,0.8673087954521179
5.15667626953125,0.0240232468779198,-0.2278471623227931,1.1685334917634724,-0.2235395014286041,-0.3878357112407684,0.9081263542175292
5.166704345703125,-0.0989993582113645,-0.1551178252691402,1.258186874681711,-0.1664051115512848,-0.3892088234424591,0.9140793085098268
5.176732177734375,-0.3284097512628883,-0.0191989867929369,1.3049702531665563,-0.099043995141983,-0.3481659293174743,0.8904881477355957
5.186759521484375,-0.5260301358925178,0.2114666487503796,1.377739136779308,-0.0438241511583328,-0.2586520314216614,0.8527418375015259
5.196787109375,-0.7668465420395135,0.4111290971342474,1.4172405415624378,-0.0029790720436722,-0.1212760731577873,0.7910120487213135
5.206815185546875,-0.9965308383952826,0.4197247837830334,1.3417255741119385,0.0157424174249172,0.0358965061604976,0.7193461656570435
5.21684326171875,-1.047415953110531,0.245348971542716,1.189454114717245,0.0236048959195613,0.1708802431821823,0.658770740032196
5.226871337890625,-1.0383603207997978,-0.0382219228992238,0.8469821550279856,0.0328580513596534,0.2534883022308349,0.6184728145599365
5.2368994140625,-0.98234061967507,-0.3070131448278203,0.4662988303661346,0.0423079431056976,0.2702584862709045,0.6001748442649841
5.246927001953125,-0.9021382250607012,-0.5255875432241708,0.1153255843132734,0.0581177957355976,0.227416455745697,0.60870361328125
5.256954345703125,-0.8563108321264385,-0.7773595335517078,-0.2755231605321169,0.0956711620092392,0.1559390425682068,0.6375048756599426
5.266982421875,-0.8749760773688554,-0.8885331858173012,-0.4784545475840568,0.1423491835594177,0.0675812065601348,0.6843498945236206
5.277010498046875,-0.8665368964560329,-0.951888052135706,-0.5661778392225504,0.1849136650562286,-0.0081675723195075,0.7532866597175598
5.2870380859375,-0.7683492747526616,-1.0183405922085047,-0.4677759171813726,0.2139612883329391,-0.0844024270772934,0.8456488251686096
5.29706640625,-0.6611782091919333,-0.9964344653487204,-0.2695148600280285,0.2163263708353042,-0.1390667408704757,0.9520485997200012
5.30709423828125,-0.506577831925638,-0.945879240174964,-0.0211333889216184,0.1948580890893936,-0.1713168174028396,1.0650033950805664
5.317121337890625,-0.4148969983004033,-0.8100880101338028,0.288734524282813,0.162591814994812,-0.1819859445095062,1.1679705381393433
5.3271494140625,-0.3682251904312521,-0.6106800114350394,0.5537345372349024,0.1295121610164642,-0.1639667302370071,1.2519187927246094
5.33717724609375,-0.377692472282797,-0.3166446407977491,0.7194862404495477,0.0936044678092002,-0.1174966469407081,1.3078826665878296
5.347205322265625,-0.4068036351505666,-0.0148440612527541,0.8750678473055362,0.0633040890097618,-0.0792912021279335,1.334673523902893
5.357233154296875,-0.4045180814966559,0.1844945802705362,0.9332435574203728,0.053805835545063,-0.0653897821903228,1.3387640714645386
5.367261474609375,-0.4397088565390556,0.3677945804616436,0.9303595264166592,0.0602067410945892,-0.0733957737684249,1.3122401237487793
5.377289306640625,-0.5549008045352996,0.5455507193226367,0.8830389723151921,0.0819351822137832,-0.080128863453865,1.2655986547470093
5.38731640625,-0.6373468133579939,0.7215277562145144,0.8791559934020042,0.1072581112384796,-0.0718379095196724,1.200616478919983
5.39734423828125,-0.6627488195095211,0.8456905077822506,0.8900450516849756,0.127043217420578,-0.0194340087473392,1.1378618478775024
5.40737255859375,-0.7974320152435451,0.9137554514877496,0.8562094175785779,0.1354236602783203,0.0531925223767757,1.080155372619629
5.417400390625,-0.8338191604636609,0.8991966186508535,0.8008370744466781,0.1303120702505111,0.1235533654689788,1.0345243215560913
5.427427978515625,-0.8296514463249594,0.860205063086003,0.6855418852716684,0.1106827110052108,0.1710652261972427,0.9993023872375488
5.437456298828125,-0.854851573228836,0.8034416309218854,0.5238485175371169,0.0784439668059349,0.1893073916435241,0.9655208587646484
5.4474833984375,-0.925944486453384,0.7272186613325029,0.3738894267380237,0.0470527596771717,0.1774318218231201,0.9330209493637084
5.457511474609375,-0.9478622306857256,0.6120293071521445,0.069111530148983,0.0390518233180046,0.1529059708118438,0.9150531888008118
5.467539306640625,-0.8157505659401416,0.5347660712622105,-0.1295148531854152,0.0442319363355636,0.0926679223775863,0.9167852997779846
5.4775673828125,-0.7615860642280429,0.4683331857379526,-0.2448860302060842,0.0588961802423,0.0217291824519634,0.9242632389068604
5.48759521484375,-0.7459343946531415,0.4075098837237805,-0.27010873426795,0.0683773010969162,-0.0563720092177391,0.9294569492340088
5.497623291015625,-0.7944553375203162,0.387835571036674,-0.1927852560907602,0.0751775652170181,-0.1360317766666412,0.927643656730652
5.507650390625,-0.7275300653692335,0.3573010608348995,-0.1528308468431234,0.0754574611783027,-0.1868816465139389,0.939716339111328
5.51767822265625,-0.6378825276698917,0.3556354291776195,0.015251929667592,0.070519171655178,-0.2294154018163681,0.9515709280967712
5.527706298828125,-0.6208646843083202,0.317587291942723,0.1760468872576951,0.0623589791357517,-0.2326439470052719,0.9661509394645692
5.537734130859375,-0.5267120537420734,0.3119762471279129,0.2513759767472744,0.0420767664909362,-0.1956267803907394,0.9968503713607788
5.547762451171875,-0.3534912202231586,0.2968505741884932,0.3865753053098917,0.0141953360289335,-0.1575758010149002,1.045585870742798
5.557790283203125,-0.2863791933283209,0.240464743165113,0.4670329898595809,-0.0173278786242008,-0.134710431098938,1.0955429077148438
5.5678173828125,-0.2242050977597013,0.2291565461546182,0.5141062912017107,-0.0438729338347911,-0.122101716697216,1.138789415359497
5.57784521484375,-0.1247893955660983,0.2625965320069343,0.4812503157824278,-0.0723984986543655,-0.1182872503995895,1.1757574081420898
5.58787353515625,-0.0658501172002404,0.3385428035467863,0.498309002611041,-0.0966899916529655,-0.1261888444423675,1.1965504884719849
5.5979013671875,-0.1538657428488135,0.4223040231538936,0.4574012381613254,-0.1056343466043472,-0.1218449026346206,1.1880934238433838
5.607929443359375,-0.254174064766895,0.5063455210071057,0.3416910384446382,-0.095766007900238,-0.1003119051456451,1.168544054031372
5.617957275390625,-0.2538821508819237,0.5836007562536746,0.2426841362476348,-0.0743739604949951,-0.0598082095384597,1.155743956565857
5.627984130859375,-0.2728589462915435,0.5962624502323568,0.1584907723009586,-0.0558609962463378,-0.0264593008905649,1.1426217555999756
5.638012451171875,-0.3058602667319588,0.5551020992610604,0.094283380806446,-0.0585514642298221,-0.0124160069972276,1.1276451349258425
5.648040283203125,-0.2947384956716559,0.4351510836368426,0.0255552970170974,-0.0896396040916442,-0.0221621114760637,1.115286946296692
5.658068359375,-0.2655606059769168,0.2562778503794223,-0.0509907670468091,-0.1396215409040451,-0.068057395517826,1.111727595329285
5.66809619140625,-0.212502348473668,0.1174542486387304,-0.143564421325922,-0.1813796460628509,-0.1396354436874389,1.122239351272583
5.678124267578125,-0.1737804766956716,0.0116874238527379,-0.2475730773329734,-0.2019052803516388,-0.2137925773859024,1.142795205116272
5.688152099609375,-0.1654710596423596,-0.0308450922545976,-0.2955149782031774,-0.1931203156709671,-0.2861562669277191,1.1731563806533811
5.698179931640625,-0.1819847894066944,0.0199556138465181,-0.1537017844587564,-0.174692153930664,-0.3334230482578277,1.2092112302780151
5.7082080078125,-0.3392795203235,0.1883021193273365,-0.0512251603245735,-0.1508645862340927,-0.3186092376708984,1.219611883163452
5.71823583984375,-0.6248510505307465,0.3914940935442224,0.0266927766144275,-0.1411425471305847,-0.2432626485824585,1.195338249206543
5.728263916015625,-0.816896813365817,0.4939170877950266,0.0603700052887201,-0.1415585428476333,-0.1370038539171219,1.1438119411468506
5.7382919921875,-0.9480174943126738,0.4969301154732704,-0.0397726229399442,-0.1506430357694625,-0.0291733797639608,1.0598657131195068
5.748320068359375,-1.0955310185905545,0.3991512572338804,-0.2835410472929477,-0.1516116261482238,0.0976980179548263,0.9518555998802184
5.758346923828125,-1.2652629505477846,0.255839349364303,-0.6747820063263178,-0.1343482881784439,0.2052510529756546,0.8478997945785522
5.768374755859375,-1.339926707996428,0.0608231193510815,-1.1004524737060069,-0.0948091372847557,0.2759438455104828,0.7665636539459229
5.778403076171875,-1.3211463119417428,-0.18355255018007,-1.5535282498836516,-0.045345339924097,0.2851323187351227,0.7135193943977356
5.788430908203125,-1.2195349263347686,-0.4929994614934548,-1.8247919994056223,-0.0098352832719683,0.2175029218196869,0.7033079862594604
5.798459228515625,-1.0980001121178269,-0.7703451978102326,-1.8376123180121184,-0.0075353775173425,0.0962609127163887,0.7224777340888977
5.80848681640625,-1.0469346723996102,-0.9941966232940554,-1.6000357340365647,-0.0372898131608963,-0.0641537979245185,0.7571938633918762
5.81851416015625,-1.0497222572915257,-1.160796760031581,-1.288627605652809,-0.069008283317089,-0.2436466515064239,0.8016616106033325
5.8285419921875,-1.0104955777965483,-1.2020122752562163,-0.8997025223463773,-0.081469215452671,-0.4106124639511108,0.853566586971283
5.838570068359375,-0.9902969855070114,-1.053045702625811,-0.4535258580327034,-0.0663014948368072,-0.5261585712432861,0.8995910882949829
5.848597900390625,-1.0912865859538317,-0.8196078989554196,0.083024320167303,-0.0363595783710479,-0.5795735716819763,0.9417036771774292
5.8586259765625,-1.1271578175410628,-0.626511969480291,0.647438656848669,0.0017968018073588,-0.5888370275497437,0.9727985858917236
5.868654052734375,-1.2242910348206757,-0.4924306120969355,1.119068911370635,0.0477573685348033,-0.5485396385192871,0.9881280064582824
5.878680908203125,-1.3597117510490118,-0.3387815442061052,1.501085530462861,0.0803199484944343,-0.4509763717651367,0.9905343055725098
5.888709228515625,-1.4439999536722898,-0.1856977089826017,1.7511878340125082,0.0974954739212989,-0.312052845954895,0.9915170073509216
5.89873681640625,-1.437739578103274,-0.1084939116623252,1.8203958102732896,0.0932544618844986,-0.1456979513168335,0.9967126250267028
5.908764892578125,-1.445049462725222,-0.1308499742466956,1.7276514756023882,0.071527324616909,0.0238372832536697,1.0060882568359375
5.91879296875,-1.4246760983906686,-0.206854259584099,1.4549971485048532,0.0482860431075096,0.1522519290447235,1.0137680768966677
5.928821044921875,-1.35269851128608,-0.290046995120868,1.0680915883272886,0.0402451604604721,0.2252561002969741,1.0168254375457764
5.93884912109375,-1.3446185190744695,-0.3585500014500692,0.5521545745670795,0.0558884367346763,0.2527387738227844,1.0077451467514038
5.948875732421875,-1.3359715406298636,-0.4083763643600046,0.150746441784501,0.0784920156002044,0.2297272086143493,0.9845554232597352
5.958904052734375,-1.316397071588039,-0.4614805068315938,-0.1151116493016481,0.1080933436751365,0.168082594871521,0.9442697763442992
5.968931884765625,-1.3378412800244983,-0.573810599123314,-0.3611515257179737,0.1460258066654205,0.0940712168812751,0.8873500227928162
5.978960205078125,-1.397499483782053,-0.6041967138303443,-0.4800643208682537,0.1848661601543426,0.0240634679794311,0.821624755859375
5.98898779296875,-1.382091632900387,-0.5803115054499357,-0.5102449395984411,0.2130344212055206,-0.0216931030154228,0.772621214389801
5.999015869140625,-1.314151484618336,-0.6070860785963014,-0.4269885642409324,0.2256543934345245,-0.0598516017198562,0.7470306158065796
6.00904296875,-1.202340338166803,-0.698512864395231,-0.27913550581038,0.2185522764921188,-0.0870965421199798,0.7365444302558899
6.019071044921875,-1.0378514944948256,-0.7650624351017177,-0.1181739594817161,0.1907624900341034,-0.0985690876841545,0.7493130564689636
6.02909912109375,-0.8922712763670831,-0.7675270716495811,0.0811240395039319,0.1441558301448822,-0.1231801584362983,0.7787745594978333
6.039126953125,-0.7477776844322681,-0.7748154750920832,0.2638543500483036,0.095991812646389,-0.1673012524843216,0.8165904879570007
6.049155029296875,-0.6089743034956976,-0.7571352953642606,0.4088929355800151,0.058319803327322,-0.2136261463165283,0.8529370427131653
6.05918310546875,-0.5926685173936188,-0.6279684518989175,0.5777770916014909,0.0374361760914325,-0.2531055808067322,0.879789412021637
6.069210205078125,-0.6018602337067946,-0.4472463759044185,0.7035755546122789,0.0372351072728633,-0.2805010080337524,0.8885567784309387
6.07923779296875,-0.4968381994061172,-0.2778130615675822,0.9270178147733212,0.0479077324271202,-0.2689953744411468,0.8896826505661011
6.089265869140625,-0.5773524364486337,-0.034797172614932,1.167818036970496,0.055627703666687,-0.2191330194473266,0.8725686073303223
6.0992939453125,-0.6438347140725702,0.1526345205534249,1.4074685046106576,0.0478729233145713,-0.1496081203222274,0.8369995355606079
6.109322021484375,-0.7303691612526774,0.2822811103597283,1.5023463441789149,0.043570052832365,-0.08873251080513,0.7807722091674805
6.11935009765625,-0.7634200016569346,0.4062344204278663,1.455797358971834,0.0475996322929859,-0.0141696631908416,0.712134063243866
6.129376953125,-0.8296618215885013,0.5417261195331812,1.3342045309573412,0.0632238686084747,0.0609447956085205,0.6353796124458313
6.139405029296875,-0.9362083255100996,0.6360940368179232,1.1881722582131624,0.0894199833273887,0.1315193325281143,0.5636234283447266
6.14943310546875,-0.994693466900289,0.6182955644726753,0.9486351878196,0.1159839481115341,0.1799385398626327,0.494778037071228
6.1594609375,-0.998517847494036,0.5625138002896681,0.7388385911732912,0.1363662332296371,0.1995477229356765,0.4391089081764221
6.169489013671875,-0.9751092801820486,0.4824210765948519,0.5570470227837562,0.1402786821126938,0.1923609226942062,0.394585371017456
6.179516845703125,-0.9949962492391466,0.3777767895653843,0.355671633002162,0.1335449516773224,0.1818174868822097,0.3638181090354919
6.189544921875,-1.0201932343378664,0.2922594470059499,0.1721148085057735,0.1164647713303566,0.1731619387865066,0.3506719470024109
6.199572021484375,-0.953136444761604,0.2167852134246379,0.0687637396246194,0.0956456586718559,0.1645097732543945,0.3606588542461395
6.20960009765625,-0.8735337696060538,0.1640702894663438,-0.0378852017581462,0.0671943053603172,0.1582486927509308,0.3856472969055176
6.2196279296875,-0.8748341116148978,0.1522499051500111,-0.1442477274149656,0.035732090473175,0.1483664959669113,0.4026971459388733
6.229656005859375,-0.9252131034389136,0.1954527217343449,-0.1604430754125118,-0.003224094863981,0.1267419010400772,0.4110506772994995
6.23968408203125,-0.9798968797847628,0.2378027574142441,-0.2240349653571844,-0.0333646759390831,0.0962866097688674,0.3987659811973572
6.2497119140625,-1.0449548236940056,0.2829317197555676,-0.3125578829407692,-0.0431736297905445,0.0557090938091278,0.3675558567047119
6.25973876953125,-1.0414477654211225,0.3159428857365623,-0.3514198207765817,-0.0355376861989498,0.0280446615070104,0.3372270166873932
6.269766845703125,-0.971233680857718,0.329683643656224,-0.3013064210861921,-0.0176923759281635,0.0094488728791475,0.3064022660255432
6.279794921875,-0.9928294996593148,0.3256957430638372,-0.1737035390019416,-0.0079642329365015,-0.006013533566147,0.2746190726757049
6.289822998046875,-1.00673023391366,0.3250613906830549,-0.0799298612833023,-0.0168157815933227,0.0056260786950588,0.2418140023946762
6.29985107421875,-0.9747872816860677,0.3035505102185532,0.0212637373030185,-0.0320376344025135,-0.0222459882497787,0.1940706968307495
6.309879150390625,-0.8559671332553028,0.1978325660755857,0.1031570076137781,-0.0448714084923267,-0.0259544402360916,0.1624363362789154
6.319906005859375,-0.8303256192594766,0.1928589058488607,-0.0036187750190496,-0.0509265586733818,-0.0005051246844232,0.145613744854927
6.32993408203125,-0.7615927131645381,0.1799225596472621,0.0568184502869844,-0.0582936629652977,0.0128405084833502,0.1396354734897613
6.3399619140625,-0.8088422478564083,0.1267396893836558,0.0503816952377557,-0.0656719580292701,0.0248373541980981,0.1322678923606872
6.349990234375,-0.8029815391294658,0.0781651531657204,-0.0416372477680444,-0.0681236609816551,0.0221358444541692,0.1130582392215728
6.360017822265625,-0.855567247217521,0.0642005233623087,-0.0563157614618539,-0.0609673261642456,0.0236972905695438,0.0929437726736068
6.370046142578125,-0.8702654154598712,0.103545824268274,-0.1458650994837284,-0.0524462759494781,0.048592522740364,0.0723436921834945
6.380072998046875,-0.8494777712360024,0.0929760245349258,-0.1675245581060647,-0.0461143590509891,0.0638191923499107,0.0605264343321323
6.39010107421875,-0.7274167411878705,0.0365351388560608,-0.1798205605775117,-0.0474062599241733,0.0846565663814544,0.0648591294884681
6.40012890625,-0.6411121572408824,0.0035136706767603,-0.2061743144959211,-0.0632670745253562,0.0873516723513603,0.0711248740553855
6.410156982421875,-0.5366877600397915,-0.0445317636331543,-0.2002975314170122,-0.0874041020870208,0.0901479870080947,0.0895086750388145
6.42018505859375,-0.4674848252803087,-0.0640740839710459,-0.2179033307343721,-0.1156341880559921,0.0794234052300453,0.1111494377255439
6.430212890625,-0.3498265237031504,-0.0439261624228209,-0.2198357601016759,-0.1387618780136108,0.0629709288477897,0.1414588689804077
6.4402412109375,-0.2388834653230384,0.0408636695796623,-0.2470674658983945,-0.1561118811368942,0.0515446588397026,0.1756897717714309
6.450267822265625,-0.226816083975695,0.1751743422068655,-0.186606859716773,-0.1739742308855056,0.046457752585411,0.1972232908010482
6.4602958984375,-0.4156313769895583,0.3140853847689926,-0.2062567320823669,-0.1824215799570083,0.079040303826332,0.1792846024036407
6.470323974609375,-0.6868553790230304,0.4356659378238022,-0.298535202807188,-0.1852437257766723,0.1296182572841644,0.1162478402256965
6.48035205078125,-0.8546452370017766,0.5323750114072114,-0.3903934022933244,-0.1769981384277343,0.1679410487413406,0.0267229489982128
6.490380126953125,-0.9473363071154802,0.5637061153467744,-0.6107973176717758,-0.1506725251674652,0.2007701098918914,-0.0801638215780258
6.50040771484375,-1.047818031105399,0.5371996185520663,-0.9166758689790964,-0.0924751684069633,0.2276598662137985,-0.1890420317649841
6.51043505859375,-1.0789495938848703,0.488864224852249,-1.229501462945342,-0.0223325677216053,0.2484932392835617,-0.2696809470653534
6.520462890625,-0.9241749925628304,0.359445123658888,-1.3934265352547168,0.0282419454306364,0.240081638097763,-0.3090060949325561
6.5304912109375,-0.7406761087987571,0.0826882566133514,-1.386385969093442,0.0506548397243022,0.1923420876264572,-0.3145390748977661
6.540518798828125,-0.5623781181460246,-0.1855205623174086,-1.3233680796444416,0.0397281162440776,0.1183017417788505,-0.2890277504920959
6.550547119140625,-0.354717547147721,-0.363092430652678,-1.1094278073221444,-0.0005468663293868,0.0125742424279451,-0.2397488951683044
6.560574951171875,-0.2093329794562421,-0.504667541324906,-0.8394079203814268,-0.0508230812847614,-0.0847292840480804,-0.1826676875352859
6.57060205078125,-0.1733779420430772,-0.5630594880063087,-0.5740215384602546,-0.087410382926464,-0.1566980183124542,-0.1345816552639007
6.580630126953125,-0.1834603966508992,-0.5190737408833578,-0.2733393867522478,-0.1094618663191795,-0.19196417927742,-0.0910464152693748
6.59065771484375,-0.1567976681148633,-0.4395888468885794,0.0657575435459613,-0.1203432753682136,-0.2010522037744522,-0.0550825558602809
6.60068603515625,-0.0712184940992854,-0.4138772998638451,0.4044406323462724,-0.126711905002594,-0.2031886577606201,-0.0144530488178133
6.6107138671875,0.1117384830741211,-0.406612459960021,0.7648392938703298,-0.1365751773118972,-0.2195071876049041,0.0295785907655954
6.6207421875,0.2014681460989639,-0.4120485500667244,0.993359880208969,-0.1369144320487976,-0.1712267994880676,0.0700327008962631
6.630768798828125,0.1641983362928032,-0.3742199008014052,1.2187070972085,-0.1368422657251358,-0.1286750733852386,0.1091723814606666
6.640797119140625,0.2949119708087295,-0.3538092731963843,1.4730045143604278,-0.1418813914060592,-0.0949095487594604,0.1459648311138153
6.650824951171875,0.2954708468005061,-0.3438504815008491,1.4490192431390283,-0.142157033085823,-0.0864436328411102,0.1664248257875442
6.66085302734375,0.2602421509005129,-0.2635537596665323,1.4168196858018636,-0.1290586143732071,-0.085644707083702,0.1722606122493744
6.670881103515625,0.2332757449764758,-0.1763601909905671,1.4121388345092534,-0.1085895597934722,-0.0651831030845642,0.1786644607782364
6.68090869140625,0.0875388749822974,0.0336138811144977,1.4228221410870552,-0.0894555822014808,-0.0102899689227342,0.1715752184391021
6.69093505859375,-0.1070410825055092,0.1398337103649973,1.3278069388747211,-0.0623408779501915,0.059707224369049,0.1404149085283279
6.70096337890625,-0.253427210188657,0.2413864245872944,1.1973276245713234,-0.0367915034294128,0.1408351361751556,0.096065804362297
6.7109912109375,-0.3759832206794992,0.3040815848879516,0.9688806879907846,-0.0061302622780203,0.2257566750049591,0.047432754188776
6.72101904296875,-0.5003470112446695,0.2971100653748959,0.6909066271752119,0.0342762358486652,0.2829408049583435,0.0012727417051792
6.731047119140625,-0.5344457167340442,0.2237517645016312,0.352640887004137,0.0720702186226844,0.2944453954696655,-0.0351049751043319
6.7410751953125,-0.5002152380911633,0.0987101842727512,0.0429711267203092,0.1079055815935134,0.2734113037586212,-0.0635010749101638
6.751102294921875,-0.5365121842771768,-0.0636206045825034,-0.2091787570089101,0.1378256678581237,0.2385675460100174,-0.0888013690710067
6.761130126953125,-0.6002518851947038,-0.234633004804328,-0.4858095865219831,0.1705904752016067,0.2024864703416824,-0.0875612273812294
6.771158203125,-0.4650664390269666,-0.3442183649651706,-0.6726297967284918,0.1943088620901107,0.1469712853431701,-0.0459189750254154
6.781186279296875,-0.2411200835349969,-0.4377192170917987,-0.703344083943963,0.1925292462110519,0.0722693353891372,0.0357278063893318
6.791214111328125,-0.0517578424291685,-0.5840029803790152,-0.6405231783717871,0.1662731319665908,-0.0284679271280765,0.1383473873138427
6.8012421875,0.1444903039991855,-0.6573175151757895,-0.3932224882394075,0.1185503229498863,-0.1472078412771225,0.2541545331478119
6.811269287109375,0.3129397218652069,-0.6104960331702605,-0.0583516512036323,0.0668940544128418,-0.2546757161617279,0.3700707256793976
6.821297119140625,0.3961435998504981,-0.4674698834395036,0.2948468696832657,0.0247386433184146,-0.3198394477367401,0.4729205071926117
6.8313251953125,0.3310406842883676,-0.240657087399438,0.6574111848086118,0.0079287681728601,-0.3346474170684814,0.5431520342826843
6.841353271484375,0.2431434425887651,0.064593650865741,1.0086264229238031,0.0054048839956521,-0.3061850070953369,0.5815632939338684
6.85138134765625,0.1266438277937471,0.3619728885708376,1.2394243065446615,0.0141943814232945,-0.2716997265815735,0.5890930891036987
6.8614091796875,0.1425531984567642,0.5801318015014753,1.3896873487263917,0.0227936189621686,-0.2245553582906723,0.582003653049469
6.871437255859375,0.2083561885796487,0.6648496642462909,1.573027900123596,0.0365605615079402,-0.1923215240240097,0.5513626337051392
6.88146435546875,0.1049319083318114,0.7715116112411021,1.6991051800757646,0.0506290011107921,-0.1420629322528839,0.514018177986145
6.8914921875,0.0650853799054399,0.91844112508595,1.621818526777625,0.0562557280063629,-0.058178674429655,0.4869452714920044
6.90152001953125,0.1427561006177216,0.9571576631017028,1.5265923121631144,0.0637434422969818,0.0015074762050062,0.4602938890457153
6.911548095703125,0.1730168719120323,0.9167167855113744,1.4265098896890878,0.0673714652657508,0.0495346561074256,0.4426578879356384
6.921576171875,0.2326027410857379,0.9687366033449768,1.2614829936176537,0.0518105439841747,0.0990380048751831,0.430644154548645
6.931604248046875,0.2011026372548192,1.012429687664285,1.1205711326271297,0.0254306029528379,0.1313977986574173,0.4111127853393554
6.94163134765625,0.1170937630295753,0.9921457551788538,0.9255459886550904,-0.0032573619391769,0.1553431302309036,0.3762815296649933
6.9516591796875,0.0134330071447417,0.9599864567868412,0.6192278768867254,-0.0173390936106443,0.1538666784763336,0.3309593200683594
6.961687255859375,-0.0506035395612008,0.9731485745683311,0.3407961354315281,-0.0125112663954496,0.1254071444272995,0.283690869808197
6.971715087890625,-0.0465236315701156,0.9712998779617248,0.0929623613357543,0.0015568825183436,0.0781978145241737,0.2417369931936264
6.981743408203125,-0.0341715880624949,0.8977946428984404,-0.0558925676137208,0.012218227609992,0.0265455320477485,0.20193912088871
6.991771240234375,-0.0193626346557401,0.8138054232217371,-0.1683306137919425,0.0161602385342121,-0.0266361944377422,0.1661704778671264
7.001798095703125,0.0058614941782318,0.7188756342705339,-0.1862351037949323,0.0040792869403958,-0.0782464295625686,0.140358492732048
7.011826171875,0.043204990275111,0.6157794169332832,-0.2311176170945167,-0.0105894040316343,-0.1040631160140037,0.124313473701477
7.021854248046875,0.1199380100121721,0.4836447731709107,-0.2653980723589658,-0.0273985341191291,-0.1287097930908203,0.1321849375963211
7.03188232421875,0.2148440527616068,0.3955520271655172,-0.217577167519927,-0.0489999651908874,-0.1533280611038208,0.1545317769050598
7.041909912109375,0.2422995573768392,0.2784248367903754,-0.1698223136544227,-0.0693868473172187,-0.169739618897438,0.1822545379400253
7.051938232421875,0.2408253566384315,0.2139408568441867,-0.1298924543261528,-0.0873298943042755,-0.1823638081550598,0.2095071971416473
7.06196533203125,0.2626166249468922,0.2254244104215875,-0.0603454553693532,-0.1043898686766624,-0.1813984811305999,0.2330574244260788
7.0719931640625,0.2297974013414233,0.2561928755097091,-0.0051133974909782,-0.1149897873401641,-0.1675804108381271,0.2474089413881302
7.082021240234375,0.2203915673535317,0.2689206935271621,0.0254091665446758,-0.114780455827713,-0.1510424464941024,0.2512883841991424
7.092049072265625,0.2186076430788263,0.2684842748712748,-0.0034083471387624,-0.1019552052021026,-0.1405629068613052,0.2536732256412506
7.1020771484375,0.2592347639562562,0.2847475004732608,-0.0202899238348007,-0.079514630138874,-0.1364014446735382,0.2549436688423157
7.112105224609375,0.2952173104308545,0.2612118727155029,-0.0430102896869182,-0.0568415448069572,-0.131068468093872,0.2573897838592529
7.12213232421875,0.3490110060691833,0.2146097690816968,-0.0256458979099988,-0.0384512953460216,-0.1288333386182785,0.2655601501464844
7.13216015625,0.4027050772579386,0.1759223110299557,0.0254699568212032,-0.0280202236026525,-0.131280779838562,0.2776253223419189
7.142188232421875,0.3699516488976776,0.1878654814757406,0.0348690688073635,-0.0312637835741043,-0.1164741218090057,0.2888684272766113
7.152216064453125,0.3631805838601663,0.1811333967417478,0.0303624050378799,-0.0445689372718334,-0.1017990410327911,0.3037435114383697
7.162244384765625,0.4336503602176904,0.1664637239415198,0.049556934851408,-0.0623648650944232,-0.1045348197221756,0.3256537914276123
7.172272216796875,0.4393509830120951,0.2120942791294306,0.0618242957502603,-0.0860627293586731,-0.1156804114580154,0.3511402606964111
7.182299072265625,0.3941461424229666,0.2622092131897807,0.0113169283062219,-0.1036337986588478,-0.1314423680305481,0.3756721019744873
7.1923271484375,0.3516056987375021,0.3909733941383659,0.0248497790962457,-0.1259934306144714,-0.1697311699390411,0.394707590341568
7.202355224609375,0.1705199405297636,0.5376937952771783,-0.0363701210200786,-0.119710199534893,-0.1690617203712463,0.3843110203742981
7.21238330078125,-0.1594567677889019,0.6559769142217934,-0.2234679791241884,-0.0888292491436004,-0.1186853572726249,0.3456328809261322
7.222410888671875,-0.4112738758997991,0.7947382461149245,-0.2590840669065714,-0.0808152258396148,-0.1053483113646507,0.2776095271110534
7.232439208984375,-0.5419786695221439,0.8459653061356395,-0.4623720123112201,-0.0731956511735916,-0.0280519220978021,0.1919105798006057
7.24246630859375,-0.792499892603606,0.786311194031313,-0.70609133682549,-0.0530847944319248,-0.0051790960133075,0.1025474295020103
7.252494384765625,-0.6937522258646786,0.6943904507029801,-0.8832429704546928,-0.0186573080718517,0.0155624011531472,0.0392669923603534
7.262522216796875,-0.6931305137697606,0.5126419908028096,-1.2914695510804652,0.0174892432987689,0.0277847126126289,-0.0109106944873929
7.27255029296875,-0.3237663824364543,0.2446730450425296,-1.414181738513708,0.0320186503231525,-0.108513742685318,-0.0130593329668045
7.282578125,-0.537518000318855,-0.0836278390184044,-1.748030246764421,0.0416050963103771,-0.1544188559055328,-0.0246551502496004
7.292606201171875,-0.7054413484841585,-0.3228103238206357,-1.685871019971371,0.0354071222245693,-0.2941780686378479,-0.0210516266524791
7.30263427734375,-0.6758198249414563,-0.3508805262681096,-1.502166895958781,0.0060904594138264,-0.3631466627120971,0.0233775656670331
7.3126611328125,-0.6265797740194946,-0.4236204029820859,-1.2157090844362974,-0.025900762528181,-0.4963443875312805,0.0655239596962928
7.322689208984375,-0.563470333829522,-0.6188074595175683,-0.8019400672525167,-0.0290608685463666,-0.5982875227928162,0.0963263437151908
7.332717041015625,-0.3162571027848869,-0.6182643656168133,-0.5467816493570804,-0.0360500700771808,-0.674134373664856,0.1584863811731338
7.342745361328125,-0.3191027014743536,-0.5257551548760384,-0.1109574522316455,0.0243406873196363,-0.708979070186615,0.2225100547075271
7.352773193359375,-0.6151514212280511,-0.5364527822401374,0.0706751262038946,0.1839093118906021,-0.6581001877784729,0.3044014573097229
7.362801513671875,-0.5542591456308961,-0.248874296124652,0.2072024884998798,0.3244403302669525,-0.4821836352348327,0.4144336283206939
7.372828125,-0.3368256243653595,-0.1258534080684185,0.749659844917059,0.3890161216259002,-0.3063281774520874,0.506971001625061
7.382856201171875,-0.5270275859646499,-0.2767977105125784,1.5328998878747224,0.3210766315460205,-0.1663272082805633,0.5575860142707825
7.39288427734375,-0.6954270272091031,-0.2675835266392677,2.0870915212273595,0.1443625688552856,-0.0463539361953735,0.5647068023681641
7.402912109375,-0.8073843771982938,-0.2230141709420829,2.093557502371073,-0.026170140132308,0.0395290628075599,0.5488673448562622
7.412940185546875,-0.8638387434132396,-0.2137604587759822,1.4799310987532135,-0.0769140124320983,0.1029413267970085,0.5316212773323059
7.422967041015625,-0.8439389879398047,-0.1085938649054616,0.8187550084531307,-0.0383079461753368,0.141388863325119,0.5311694145202637
7.432995361328125,-0.9197763192124664,0.0233510649710893,0.5403150836914777,0.0198743995279073,0.1522790491580963,0.5356166362762451
7.443023193359375,-1.1544066936682909,0.0220888630155473,0.447372011578083,0.0515216663479805,0.1621547937393188,0.5111230611801147
7.453051513671875,-1.2831208249300718,0.0313474705524742,0.4668289917200803,0.0490020513534545,0.1754317134618759,0.4794615507125854
7.4630791015625,-1.3110700313463806,0.0083205960344523,0.3589116378366947,0.0412729792296886,0.2113968580961227,0.4529372751712799
7.473107177734375,-1.2732717772193252,-0.0657592971116304,0.0906511617839336,0.0591691546142101,0.2578389048576355,0.4395626187324524
7.48313525390625,-1.1987004472944884,-0.2062508137982338,-0.1860240913927555,0.0872678309679031,0.312006264925003,0.4522216916084289
7.493162353515625,-1.1815146269548684,-0.344871129785478,-0.4446259277403354,0.1139367222785949,0.3329419195652008,0.4615882933139801
7.503190185546875,-1.1684742358569056,-0.4443650848470628,-0.6534539716154336,0.1439940184354782,0.3144906163215637,0.4681273102760315
7.513218017578125,-1.09231534447968,-0.5053345903988927,-0.8085890037477016,0.1704077869653701,0.2658317387104034,0.4806913137435913
