seconds_elapsed,ax,ay,az,gx,gy,gz
0.0575087890625,-0.5133804611451923,-0.1043006246909499,0.2255710888832807,-0.1313870549201965,0.114100344479084,0.7025383710861206
0.067536865234375,-0.3607997166056185,-0.0470911292597651,0.5340864184349775,-0.1092898026108741,0.1635488420724868,0.6538257002830505
0.077563720703125,-0.487422501611337,-0.0018125293146818,0.7989864781439304,-0.0586926713585853,0.2397125959396362,0.582572340965271
0.087592041015625,-0.5766519965616986,0.1576930460520088,1.1123632762521505,0.0027800225652754,0.2123103737831115,0.5283082127571106
0.09761865234375,-0.3114890481328591,0.3971552245784551,1.5106132372647525,0.0503121204674243,0.115385964512825,0.506009578704834
0.10764697265625,-0.1677864239126443,0.6361841262541711,1.7294266685813664,0.0837564468383789,0.0193649716675281,0.5112506151199341
0.117673828125,-0.1663841193666681,0.806058827682957,1.7074287717849017,0.1190726235508918,-0.0818988010287284,0.5201671719551086
0.12770166015625,-0.2231158777508884,0.8975653641872108,1.6258090577185154,0.1425926089286804,-0.19173364341259,0.5293231010437012
0.137728759765625,-0.1440467432164587,1.0501206820245832,1.587731548258662,0.1428381502628326,-0.2978398501873016,0.5468965172767639
0.1477568359375,-0.0902239128151908,1.0869435883134604,1.48571961902678,0.1408173590898513,-0.3904127180576324,0.56194007396698
0.15778369140625,-0.0572536998990923,1.0581609267476946,1.172570199933648,0.1458352953195572,-0.450186014175415,0.5714067816734314
0.167811767578125,-0.1241115054376889,0.995027959551662,0.7274480131089687,0.1744839996099472,-0.4580975770950317,0.5584053993225098
0.1778388671875,-0.2236511171387508,0.91952731288746,0.2685895618766546,0.2022304087877273,-0.4149903059005737,0.5384961366653442
0.187866943359375,-0.2585748752754181,0.8934045912459492,-0.0431494058966636,0.2336674928665161,-0.332747608423233,0.5217246413230896
0.197893798828125,-0.2154262365637347,0.8924177721656859,-0.2321346851825714,0.2547677159309387,-0.2315248548984527,0.5073944330215454
0.207921630859375,-0.1500218081712257,1.015205655183643,-0.1900777506977319,0.2654833495616913,-0.163960263133049,0.4933643937110901
0.217948974609375,-0.1685434528250247,1.0561796167373656,-0.0734288088262081,0.2526085674762726,-0.0796669572591781,0.4706598818302154
0.227976806640625,-0.1948870141429826,1.1175543420892209,0.1704471675544977,0.2159458547830581,-0.0593180060386657,0.4521904587745666
0.238003662109375,-0.0886515397987794,1.199325812651217,0.3762871355295181,0.1805729418992996,-0.0635513663291931,0.4269237220287323
0.24803173828125,-0.1281075984696857,1.2360574604600667,0.4808645313352346,0.1528646945953369,-0.0837577581405639,0.3913672864437103
0.258058837890625,-0.1718716108670458,1.2970526119098067,0.5303402176439762,0.1395648717880249,-0.1184696704149246,0.3522923290729522
0.268085693359375,-0.137127036089031,1.31495490995571,0.5307768554955721,0.1328963637351989,-0.1249285265803337,0.31869637966156
0.27811376953125,-0.0793383799298666,1.382832660526037,0.4567728771299123,0.1253849118947982,-0.1212847903370857,0.293379545211792
0.288140869140625,-0.0602107413400895,1.442193050380796,0.3861515269398689,0.1212191581726074,-0.0982549116015434,0.2731258571147918
0.2981689453125,-0.0517699484254932,1.5100691935159265,0.3410843047231435,0.1173919290304184,-0.0624324642121791,0.2661081552505493
0.30819580078125,-0.0337251092368969,1.5827257027953865,0.3090197719424963,0.1155924722552299,-0.0363525822758674,0.2615023255348205
0.3182236328125,-0.0511570361249614,1.607732133758068,0.3036100218534469,0.1221901848912239,-0.0090301474556326,0.2583533823490143
0.3282509765625,-0.115494931264501,1.6398191706314682,0.3214268335729837,0.1240771859884262,0.0082563124597072,0.2521111369132995
0.338278564453125,-0.1810043087356724,1.6394567670598623,0.3679664664298295,0.1213871240615844,0.0117842014878988,0.238648846745491
0.348305908203125,-0.2107628478625789,1.6424514188311994,0.4246241731971502,0.1118913441896438,0.0069277361035346,0.2333702892065048
0.358333740234375,-0.2666504653065465,1.6075013937421143,0.4291413583606481,0.102465882897377,0.0022879771422594,0.2226721048355102
0.368360595703125,-0.3582164586467668,1.5804437293380498,0.4290829061716795,0.0879791527986526,-0.0065246489830315,0.2077112346887588
0.378388671875,-0.4412151329161599,1.516241452410072,0.399594361358881,0.069652609527111,-0.0119841303676366,0.1913144290447235
0.388415771484375,-0.4750248653963208,1.4997576428599655,0.3661018416017293,0.0490349680185318,0.0067281951196491,0.1752008944749832
0.39844384765625,-0.5069931347282604,1.45376293053478,0.319488558986783,0.0315422639250755,0.0328764393925666,0.1602456420660019
0.408470703125,-0.5125306759154423,1.4609161632902918,0.269521289768815,0.0215904209762811,0.060659259557724,0.1491184681653976
0.418498779296875,-0.5074137347605079,1.4944294335745274,0.2346446221768856,0.0173991378396749,0.0896240696310997,0.1378796547651291
0.42852587890625,-0.5522946771575138,1.504284034243226,0.2464525488704443,0.0214293878525495,0.100260391831398,0.1238878592848777
0.438553955078125,-0.5528839117549359,1.520951383666694,0.2997223667651414,0.0240757707506418,0.1102195531129837,0.1108373031020164
0.44858056640625,-0.5625977887786925,1.5255930719926951,0.3787053025871515,0.0142675265669822,0.1071993336081504,0.0948075577616691
0.45860888671875,-0.5832911788478493,1.537834275536984,0.448936776676774,0.0028505551163107,0.0953924730420112,0.0751712694764137
0.4686357421875,-0.5908495583381503,1.5507938564836978,0.4626783017814159,-0.0107460711151361,0.0818522423505783,0.0628871396183967
0.478663818359375,-0.5666272634904831,1.585894980481267,0.4272662121385335,-0.0183448698371648,0.0690312534570694,0.0531074814498424
0.488690673828125,-0.5492782519457862,1.6072786909021437,0.3198521316021681,-0.0205829422920942,0.0680382698774337,0.0460541732609272
0.49871875,-0.5809194082152098,1.5813197815202176,0.2097539265483617,-0.0130448639392852,0.0628048926591873,0.0385307446122169
0.508745849609375,-0.5930809341194108,1.5589292321443555,0.1195855798453092,-0.0088902572169899,0.0632371976971626,0.0349945612251758
0.518773681640625,-0.6014024434693157,1.5253817673295735,0.0487257447242736,-0.0104820281267166,0.0744509771466255,0.0261552594602108
0.52880078125,-0.6396011681560426,1.4742821330808102,-0.0434288073599338,-0.0188955087214708,0.0830336436629295,0.0106083322316408
0.538828857421875,-0.6901349121503532,1.3849018680155276,-0.1189110415846109,-0.038408488035202,0.0992355197668075,-0.0077528320252895
0.548855712890625,-0.670251377159357,1.2999626541376113,-0.208138308045268,-0.0552558861672878,0.1256918311119079,-0.0263750813901424
0.5588837890625,-0.633782033548504,1.2551119972810147,-0.2886521066963672,-0.0650978609919548,0.1546920388936996,-0.05081357806921
0.568910888671875,-0.6392466556299478,1.1845704343289136,-0.3213824099093675,-0.0721926391124725,0.1844333708286285,-0.078187495470047
0.578938720703125,-0.5806717170644551,1.1157983652673662,-0.3336994551688432,-0.0713952928781509,0.2161303162574768,-0.1099744513630867
0.5889658203125,-0.5091236439509317,1.091622832170874,-0.3275046921819448,-0.0624096989631652,0.2233531773090362,-0.1417220532894134
0.59899365234375,-0.4064565022133291,1.0596864558145402,-0.2642640998929739,-0.0475718975067138,0.1953681409358978,-0.1771405041217804
0.60902099609375,-0.2964373172124848,1.0177385346621275,-0.278415374842286,-0.0251030623912811,0.1740696281194687,-0.204853668808937
0.619048583984375,-0.227575414443016,1.049744615253806,-0.5623644184142351,0.0026065956335514,0.1587324887514114,-0.2412723898887634
0.62907568359375,-0.2695205408501439,0.961026467359066,-0.5783890860199928,0.0351496636867523,0.1051132008433342,-0.2579306364059448
0.63910302734375,-0.0994608565095812,0.9848659734342248,-0.7401075881958007,0.0641983598470687,-0.0104235149919986,-0.2604776620864868
0.649130859375,-0.1164959980658255,0.9579522475454956,-0.8667425020307302,0.0706884190440177,-0.1392899006605148,-0.2619251012802124
0.65915771484375,-0.113854598445259,0.8634528128355741,-1.1852239298015832,0.0461383275687694,-0.2177045345306396,-0.2553087174892425
0.669185791015625,-0.1085381161302328,0.6505042549643665,-1.598164679467678,0.0008917793165892,-0.2026226073503494,-0.2476043105125427
0.679212890625,-0.1468700661420356,0.406280086200498,-1.952704093569517,-0.0480981357395648,-0.1172512471675872,-0.23940309882164
0.68924072265625,-0.0939776667249854,0.2376260856730863,-2.1087083097517487,-0.0567562729120254,0.0144726680591702,-0.2406398504972458
0.699267822265625,-0.276040279741399,-0.0300428542273119,-2.178352923864126,-0.0660608261823654,0.1923140436410904,-0.2656370997428894
0.709295654296875,-0.3786882783871144,-0.1463227070581167,-1.843077013158798,-0.0809454247355461,0.2792780101299286,-0.2883115112781524
0.719322998046875,-0.1833800248910672,-0.2087353971555829,-1.2544658083319664,-0.1067578494548797,0.3239019215106964,-0.3206281661987304
0.7293505859375,-0.15840358720785,-0.2432698271811008,-0.6271820507615804,-0.1495896279811859,0.344996839761734,-0.3680541515350342
0.739377685546875,-0.2611361953970976,-0.2877390835046768,-0.0655506227970123,-0.1912577152252197,0.3301712870597839,-0.4285542666912079
0.74940576171875,-0.2065642088626511,-0.329986572125554,0.3880839563071727,-0.2136589437723159,0.2801956534385681,-0.4732696115970611
0.7594326171875,-0.086730207214225,-0.3033509325258434,0.7885685445040463,-0.225761666893959,0.2011245340108871,-0.5050951838493347
0.769460693359375,-0.0613688801329582,-0.259747280055657,1.087113684183359,-0.2258550226688385,0.1180430352687835,-0.5264737010002136
0.77948779296875,0.0102568247940391,-0.1960132782265543,1.2390811921954157,-0.2187784612178802,0.0389269143342971,-0.5312716960906982
0.789515869140625,0.0955067120563238,-0.1476318899605423,1.2518693620979786,-0.1978966295719146,-0.0237277150154113,-0.5149998068809509
0.799542724609375,0.1353434862736612,-0.1599387060869485,1.2022656654953956,-0.1739473342895507,-0.0653715655207634,-0.4963382184505462
0.80957080078125,0.1291919413739815,-0.2277007213231176,1.0849772566765543,-0.1412441581487655,-0.0849476307630539,-0.4661069512367248
0.81959765625,0.2107836349222809,-0.2567634419392794,0.9562316342979668,-0.0926771536469459,-0.1159130036830902,-0.4235536158084869
0.8296259765625,0.2976233851918951,-0.2379001899067312,0.893451645258069,-0.0522403679788112,-0.1439972519874572,-0.3779582381248474
0.839652587890625,0.3567462764963507,-0.1514863003663718,0.8583955294460057,-0.0223112292587757,-0.1791616380214691,-0.3331292569637298
0.849680908203125,0.4646427337221801,-0.1113331536762416,0.7984709298372268,-0.0074485447257757,-0.2359025478363037,-0.2804747521877289
0.859707763671875,0.5788356607437134,-0.1179760988220572,0.6671493194907904,-0.0051403837278485,-0.2883894741535187,-0.2162731289863586
0.869735595703125,0.6625034664463252,-0.1777279722124338,0.4089373592436313,-0.0022080240305513,-0.3112001121044159,-0.1481761783361435
0.879762939453125,0.6561786473389715,-0.3066797116223722,0.048628129568696,0.0070991911925375,-0.2934751808643341,-0.0930458158254623
0.889790771484375,0.6368995079819113,-0.4586466351125389,-0.2947966008007526,0.0241172444075346,-0.2427553236484527,-0.048719584941864
0.89981787109375,0.6094233624374493,-0.5923788867972791,-0.5123626624047756,0.0394261591136455,-0.1600085198879242,-0.022238440811634
0.909845703125,0.5573007052838802,-0.6941711088638752,-0.6037684419482946,0.0556392967700958,-0.0539669580757617,-0.011527782306075
0.919873046875,0.4181510681929066,-0.7937759038887917,-0.5364280131250619,0.0566731356084346,0.0479998886585235,-0.0257842168211936
0.929901123046875,0.2999441562896594,-0.8662694776915013,-0.2447527592152357,0.0428425259888172,0.125935360789299,-0.0629043728113174
0.939927978515625,0.1777302007021382,-0.9071024233393372,0.1940922470360994,0.0161161068826913,0.1575087308883667,-0.1239916980266571
0.9499560546875,0.0668967219100333,-0.8712701355230063,0.6685708767265081,-0.0166017431765794,0.1497963219881057,-0.1920903772115707
0.959983154296875,0.0043535829664673,-0.6919961029123515,1.0229723436623812,-0.0416556969285011,0.1109716966748237,-0.2491768300533294
0.970010009765625,0.0403528887796215,-0.4684258324574679,1.226584698715806,-0.0528087764978408,0.0542515069246292,-0.2792432904243469
0.9800380859375,0.0843032540619373,-0.2107331468440592,1.33996908583343,-0.056450642645359,0.0062046181410551,-0.2811477184295654
0.990065185546875,0.111965113170538,0.0375705828510224,1.3837047671854494,-0.0453560426831245,-0.0368405133485794,-0.2603447437286377
1.000093017578125,0.1571175477189943,0.2680311973415315,1.4052993438780308,-0.0286321900784969,-0.0782545283436775,-0.2167346775531768
1.0101201171875,0.1983011699680238,0.4586988036911934,1.3757453326135871,-0.011412956751883,-0.1055138781666755,-0.1646162122488021
1.02014794921875,0.1861908262617886,0.5594367674645037,1.2578203794568776,0.0198275204747915,-0.1112660393118858,-0.1029672175645828
1.030175048828125,0.1468670430678874,0.5915993537921458,1.0601263085365296,0.0623088143765926,-0.0940496549010276,-0.0442067645490169
1.040203125,0.0937124490506947,0.6213347129728645,0.9866326177805662,0.0995251610875129,-0.0730032324790954,0.0024411662016063
1.05022998046875,0.0596318363404367,0.6229126298140734,1.015872156268358,0.1244173422455787,-0.0670666694641113,0.027361636981368
1.060258056640625,0.0643130072934553,0.6215060509517788,1.0700666877925396,0.1322361081838607,-0.0774758905172348,0.0397858172655105
1.07028515625,0.0582781841086223,0.631205607189238,1.117643847003579,0.1223172023892402,-0.0984305292367935,0.0495291613042354
1.080312744140625,0.0767164704610593,0.6521741609379649,1.1320371140152214,0.1039230152964592,-0.1188545748591423,0.0534195080399513
1.090340087890625,0.0630832782688317,0.6639702510632575,1.0843114862442016,0.0834808275103569,-0.1426591277122497,0.0518011748790741
1.100367919921875,0.1193275773630943,0.738392162580043,1.0207219343870877,0.0693527609109878,-0.1559544205665588,0.0587893091142177
1.11039501953125,0.2407026253079064,0.8386404431402683,0.85544077129364,0.0691879987716674,-0.1582967489957809,0.0732978582382202
1.1204228515625,0.2903060113832354,0.8736109995607286,0.684061875846982,0.0856809616088867,-0.1564458608627319,0.0922529101371765
1.130449951171875,0.3034493879316374,0.8956203675992787,0.5258119265645742,0.1048928648233413,-0.1528756916522979,0.109934464097023
1.14047802734375,0.3159701025370508,0.8964240851975976,0.4644616780668497,0.1172211691737175,-0.1517598330974578,0.1176725476980209
1.1505048828125,0.2794447726889513,0.8678911606092006,0.425116925150156,0.1157707348465919,-0.1537096053361892,0.1139068827033042
1.160533203125,0.2241756890021264,0.8449960227120668,0.412604649579525,0.098297469317913,-0.1547666192054748,0.0995143577456474
1.17056005859375,0.2248677263868972,0.8152447353098541,0.3777379188597202,0.0677660480141639,-0.1520965993404388,0.0852054953575134
1.180588134765625,0.2241216937925666,0.7514283158943057,0.3194289377540349,0.0327947475016117,-0.1483300924301147,0.0681146532297134
1.190614990234375,0.2051290797593072,0.7244347297023981,0.2688186944574117,0.006001554429531,-0.1539216339588165,0.0463720597326755
1.20064306640625,0.1805658077205531,0.7509701968632638,0.1982674868941307,-0.0152786998078227,-0.1581174433231353,0.0230137426406145
1.210669921875,0.1567329688481986,0.7749610210426151,0.143877725058794,-0.0317582078278064,-0.1522616446018219,0.0014900641981512
1.220697998046875,0.1810937953837215,0.8406208763677626,0.0592751957893371,-0.0504535995423793,-0.1442511230707168,-0.0143693266436457
1.23072509765625,0.2296482203953899,0.940668885115534,-0.0231844762325286,-0.0585384927690029,-0.1218566447496414,-0.011635573580861
1.240753173828125,0.3718788175679743,1.067941293136403,-0.3018944501072168,-0.0482155494391918,-0.0575500875711441,0.012766171246767
1.2507802734375,0.2688085383895784,1.082957149025798,-0.357775327283144,-0.0280669089406728,-0.0536528974771499,0.0345520600676536
1.260807861328125,0.3436630691699683,1.1362178337659683,-0.216618551620841,-0.0140304528176784,-0.0616586208343505,0.0647959858179092
1.270835205078125,0.3958468819262459,1.2470888498231767,-0.1679658721327781,-0.0263583622872829,-0.0821298509836196,0.0825291872024536
1.280862060546875,0.3887915565872564,1.2258986161477865,-0.2364572245568036,-0.0338410474359989,-0.1123181134462356,0.1051340922713279
1.290889892578125,0.4430521756175905,1.1056186242975294,-0.3484685697555542,-0.0365706421434879,-0.1348100006580352,0.1366424262523651
1.3009169921875,0.4761518966648727,1.0850624507419764,-0.5179775796771049,-0.0322978645563125,-0.1554596126079559,0.1476460844278335
1.310945068359375,0.301494582335744,0.9147768304247408,-0.5614367821753025,-0.0420142225921154,-0.1818471103906631,0.1347700208425521
1.320971923828125,0.2875479083141312,0.825169113279134,-0.5353782118111848,-0.065762959420681,-0.2014767378568649,0.1197716295719146
1.331,0.3108504945009946,0.6916631446309387,-0.5889508120447396,-0.1074104681611061,-0.21285480260849,0.0978815034031868
1.341027099609375,0.2398234130542725,0.6253185949772596,-0.6964695219993591,-0.1564027816057205,-0.1932797729969024,0.0705982148647308
1.35105517578125,0.1527959216602146,0.6003487696979195,-0.8020733382433652,-0.1921862363815307,-0.1761561781167984,0.0524819232523441
1.36108203125,0.1657948847692459,0.560650965559855,-0.94781451908648,-0.1953508704900741,-0.1782467514276504,0.0519942976534366
1.37110986328125,0.202133624270372,0.5706849413834512,-1.104659862267971,-0.1676868647336959,-0.2108885943889618,0.069066897034645
1.38113720703125,0.2939752014152705,0.6092613402761519,-1.3510422685116528,-0.1107998713850975,-0.2721543610095978,0.1031638830900192
1.3911650390625,0.3672778996437787,0.6258797359913587,-1.6003870316922664,-0.0553630031645298,-0.3130103349685669,0.1552380919456482
1.401192138671875,0.4421411617198958,0.6050429919287562,-1.8933289445370436,-0.0100730191916227,-0.31416055560112,0.2239567041397094
1.411219970703125,0.4424315960338339,0.4145283841837197,-2.238008643403649,0.0281871892511844,-0.2817906141281128,0.3044071793556213
1.4212470703125,0.3919185660339891,0.1935484955482184,-2.4859943931907416,0.0502339005470275,-0.1825700104236602,0.3819285929203033
1.43127490234375,0.3008173223949968,-0.0120303372725844,-2.51960381732583,0.0541161186993122,-0.0332010798156261,0.4520107805728912
1.441302001953125,0.1844015316922217,-0.2103307765882462,-2.338468082496524,0.0421619862318038,0.1501037627458572,0.5056702494621277
1.451330078125,-0.0033275004548951,-0.4135206684459001,-1.9258979197084904,0.0221258290112018,0.3232068419456482,0.518860936164856
1.461357177734375,-0.2140568479066714,-0.6543789775058627,-1.290755849853158,0.0004676706157624,0.4256551861763,0.4950740933418274
1.471384765625,-0.3684039079990238,-0.8147668886650353,-0.567754294759035,-0.0239347573369741,0.4396936595439911,0.4438722431659698
1.481412109375,-0.4985052193028852,-0.9161726686973124,0.1324520756810903,-0.0642792508006095,0.4130727052688598,0.3628218472003937
1.491440185546875,-0.5648376766599714,-0.9676118370987474,0.74038874322474,-0.1117178201675415,0.3576378226280212,0.2762976586818695
1.501466796875,-0.5477731080798431,-0.9632984308790415,1.1722224094092846,-0.1600033193826675,0.292760282754898,0.1982446610927581
1.5114951171875,-0.5232726904105395,-0.8727553325794637,1.4525591077029705,-0.2054982483386993,0.2371827065944671,0.1325980424880981
1.52152197265625,-0.5485442751154304,-0.7403050104640424,1.5802052444070576,-0.222744882106781,0.181710660457611,0.0841855034232139
1.53155029296875,-0.5542200191969051,-0.6769095929395407,1.5458745202600954,-0.2167460769414901,0.1348751783370971,0.0471091493964195
1.541576904296875,-0.5979769990652799,-0.6022170477878303,1.523353476372361,-0.1952216178178787,0.1091884449124336,0.0122331893071532
1.55160498046875,-0.7184683686438947,-0.5746525298401713,1.4667641586661335,-0.1527367383241653,0.0764006748795509,-0.0141797754913568
1.561632080078125,-0.8018306155286729,-0.5621606394704431,1.4042811067461969,-0.0969256684184074,0.0325716994702816,-0.0307004284113645
1.571659912109375,-0.8095829832211137,-0.4962547734949737,1.3409136732071638,-0.0401857867836952,-0.0185643844306468,-0.021671425551176
1.58168701171875,-0.7662685960210859,-0.3591756225351244,1.216800971326232,0.0098374336957931,-0.0617531314492225,0.00825185328722
1.591714111328125,-0.6549940406642853,-0.1585552889045327,1.1132318757802246,0.0423492267727851,-0.0903001576662063,0.0551408417522907
1.6017421875,-0.5217267396101728,0.0001774023935198,0.9338929612398148,0.0706905871629715,-0.1112531125545501,0.1132286414504051
1.611768798828125,-0.3771164259605109,0.0849544845122843,0.7115478486657142,0.1027855277061462,-0.1283102333545684,0.1746819466352462
1.621797119140625,-0.3163034261446446,0.0857118787508457,0.4676473223656415,0.1358398795127868,-0.1222350299358367,0.2123702019453048
1.631823974609375,-0.386322791853547,-0.0342060017887502,0.2660737796634435,0.160238116979599,-0.0939518511295318,0.2185806185007095
1.64185205078125,-0.5079457227453589,-0.2018260561585426,0.1659820048391818,0.1647425889968872,-0.0484474822878837,0.1945154964923858
1.65187890625,-0.5898636525733396,-0.3652553808402269,0.1833984190642833,0.1545959413051605,0.0006990260444581,0.1551515758037567
1.6619072265625,-0.6824548790417612,-0.4903091629635542,0.2932107929140329,0.1262300759553909,0.0532181598246097,0.0848888605833053
1.671933837890625,-0.7645105003073811,-0.4808475071351974,0.5039274270147085,0.0815979465842247,0.1033019125461578,0.0006619674968533
1.6819619140625,-0.7754068651139736,-0.4192450374420732,0.7333171974033117,0.0384390205144882,0.13980533182621,-0.0833112299442291
1.6919892578125,-0.7145261338241398,-0.3058244099672884,0.9501537756890058,0.0148321203887462,0.1393341273069381,-0.1488059163093567
1.70201708984375,-0.6089703214403241,-0.0862589912395924,1.146305293342471,0.0053406143561005,0.1050680354237556,-0.1921443343162536
1.7120439453125,-0.4975099246552213,0.2209401411470025,1.2940069606035949,0.0013571495655924,0.0684313923120498,-0.2169485837221145
1.722072021484375,-0.4697581770397722,0.4687125404443591,1.4182652084350584,-0.0065617598593235,0.051682773977518,-0.2344399541616439
1.73209912109375,-0.4675634800070896,0.6029547144126147,1.4852835656970738,-0.0100796250626444,0.033021505922079,-0.2422796636819839
1.742127197265625,-0.4493285890059545,0.7479924231614917,1.5272650968581438,-0.0122394487261772,0.0247723646461963,-0.2360388040542602
1.752154052734375,-0.4259870590481907,0.8884656735390424,1.5158119749516248,-0.0098416805267333,0.0192054808139801,-0.219107985496521
1.762181884765625,-0.4206304273858666,1.0059207441616802,1.4743459920972586,0.001105242408812,0.0171812120825052,-0.1963597983121872
1.772209228515625,-0.3780350751753896,1.0621692856062204,1.4425550155609843,0.0140428030863404,0.0195247214287519,-0.1772443950176239
1.78223681640625,-0.3482118915807455,1.1473606476143,1.349850428378582,0.033004242926836,0.0137387365102767,-0.1557668000459671
1.792263916015625,-0.3312504545815289,1.218147855890542,1.2680676327049731,0.0500350855290889,0.0060434592887759,-0.1308547556400299
1.8022919921875,-0.3491409891244024,1.2468890894673763,1.1591688665688038,0.0645085647702217,-0.0064587509259581,-0.103633239865303
1.812319091796875,-0.3225831274686381,1.2514416382052005,1.0394155289411544,0.0724489539861679,-0.0296953245997428,-0.0780702531337738
1.822346923828125,-0.3255984932344407,1.236618309213221,0.9178758924186228,0.0755685791373252,-0.0489622317254543,-0.0578861497342586
1.8323740234375,-0.3732044401485472,1.1556116855438798,0.7241513096511364,0.0660918578505516,-0.0575170256197452,-0.0506218820810318
1.842402099609375,-0.4185014160005375,1.0731235180798917,0.5129565366446972,0.0475386828184127,-0.0382232218980789,-0.0487914904952049
1.852428955078125,-0.4220716391701251,0.9929403396226464,0.3119786217480897,0.0324941761791706,-0.0075801722705364,-0.0496121123433113
1.86245703125,-0.3960762337027117,0.92587032523863,0.1172188507139682,0.0153149235993623,0.040637157857418,-0.0530819445848465
1.87248388671875,-0.4062794651459902,0.8602895264990628,-0.0032382512688636,-0.0037150769494473,0.094051256775856,-0.0712975114583969
1.88251220703125,-0.4374314131263643,0.7961709092665463,-0.0316045140534639,-0.0236682780086994,0.1353792548179626,-0.1030168235301971
1.892538818359375,-0.4893286640262231,0.7287310386568308,0.0114355862498283,-0.0366179756820201,0.1494776606559753,-0.1438257098197937
1.902567138671875,-0.5215365142676979,0.6462646446332335,0.059133741492033,-0.0504301935434341,0.1370513439178466,-0.1896129101514816
1.912593994140625,-0.5672192745668814,0.6190650875404476,0.1127864212244749,-0.0721194073557853,0.1141552031040191,-0.2368980497121811
1.92262158203125,-0.5539778079388663,0.6920499519914388,0.1270002400159835,-0.095719538629055,0.0844329968094825,-0.2789291143417358
1.9326494140625,-0.494630496761389,0.7448349820438772,0.1017407110750675,-0.1224223524332046,0.0552639663219451,-0.3110161125659942
1.9426767578125,-0.4751328558154404,0.785051037902385,-0.0080061963230371,-0.1421204209327697,0.030236642807722,-0.3189669847488403
1.95270458984375,-0.4534636429840699,0.7835122109625489,-0.1861333969861268,-0.1468546837568283,0.0168971288949251,-0.309767484664917
1.9627314453125,-0.4789115341039374,0.7520443289007991,-0.4175684094667434,-0.1464879661798477,0.0278690867125988,-0.2931744158267975
1.972759521484375,-0.5195733244359493,0.6885648132894188,-0.6324971083045006,-0.1376714557409286,0.0555133484303951,-0.2766843140125274
1.98278662109375,-0.5552017237106338,0.6148878749210387,-0.7663941220968962,-0.1301810443401336,0.0825335159897804,-0.2575324475765228
1.99281494140625,-0.5691131254894659,0.5479715167287736,-0.8338064471125602,-0.1287051886320114,0.0944287851452827,-0.2408549189567566
2.002841552734375,-0.5787798389032482,0.4822401305373758,-0.8693868790596723,-0.1372590065002441,0.1053402870893478,-0.2294632494449615
2.01286962890625,-0.6157418614018708,0.4276319036457687,-0.9354653251230716,-0.1503170430660247,0.1351296156644821,-0.2326637059450149
2.022896728515625,-0.6322855844456702,0.4460156285330653,-1.0009697706907987,-0.1667708456516266,0.1749404221773147,-0.2442090362310409
2.032924560546875,-0.5699135551521555,0.5203937009081244,-1.069884901484847,-0.1685350388288498,0.1922902464866638,-0.2485748380422592
2.04295166015625,-0.4642422996951267,0.6048349021360278,-1.1660188785940409,-0.1544389277696609,0.1917008906602859,-0.2406221032142639
2.052979736328125,-0.3461330394800752,0.7047842728149145,-1.2157716282784938,-0.1293744295835495,0.161702498793602,-0.2244629561901092
2.06300634765625,-0.2472297803206369,0.8005630798108875,-1.2509306199431418,-0.1017894148826599,0.0549534000456333,-0.2037840485572815
2.07303466796875,-0.1454362430797889,0.7854550886586308,-1.3936977534115311,-0.0707080364227294,-0.1088747605681419,-0.169650137424469
2.083061767578125,0.0193851044991635,0.8166546751730144,-1.803494944354892,-0.0550065673887729,-0.2801440060138702,-0.1086203455924987
2.09308984375,-0.0076556978183565,0.6924042453218251,-2.1251304522424936,-0.0717167109251022,-0.4652377367019653,-0.0527176260948181
2.10311669921875,-0.0526076824578456,0.3549129235893488,-2.1472212880194186,-0.1385812312364578,-0.5861988067626953,0.0037477810401469
2.11314453125,-0.0376413647986017,0.0647504123300313,-2.382181552016735,-0.234080284833908,-0.572945773601532,0.0305472910404205
2.123171875,-0.243417893882282,-0.3702461017996072,-2.529520815706253,-0.3259162008762359,-0.4377898275852203,0.0262835714966058
2.13319970703125,-0.246825729564391,-0.7276188396312296,-2.5953262900471685,-0.363730788230896,-0.2161332964897155,0.0011080231051892
2.1432265625,-0.1051337693131528,-0.8866018524285405,-2.5287159290641545,-0.3347569406032562,0.0686989650130271,-0.029525252059102
2.153254638671875,-0.0897531169656664,-0.916083090717718,-2.187973569646477,-0.2480109632015228,0.3594507575035095,-0.067841812968254
2.16328173828125,-0.0049600152938626,-0.8605218739502132,-1.5510849483847615,-0.1347701549530029,0.5604584217071533,-0.0967197939753532
2.173309814453125,0.077068462236505,-0.8012951934777199,-0.45448330488801,-0.0496375449001789,0.6023130416870117,-0.1170456111431121
2.183336669921875,0.1685310500011779,-0.7146063594534993,0.882339884135127,-0.018816515803337,0.5012630820274353,-0.1350914537906646
2.193364501953125,0.2358874253122135,-0.6876254135474562,1.9605828641206025,-0.0353310443460941,0.2941714227199554,-0.1726580113172531
2.203391845703125,0.262751704302337,-0.7032261566527187,2.6751462612152097,-0.0923077762126922,0.0505590327084064,-0.2293830662965774
2.21341943359375,0.289633500682842,-0.6867344560571015,2.936909776464105,-0.1537633836269378,-0.1724871695041656,-0.2860027551651001
2.223446533203125,0.3692128132291138,-0.7288729313455522,2.6310288870692253,-0.1669977009296417,-0.3454940915107727,-0.3129220008850097
2.233473876953125,0.4467535143535583,-0.7783100392095744,1.967481391462684,-0.1207214295864105,-0.4502491056919098,-0.3101951479911804
2.24350146484375,0.5342120175760239,-0.7824832332409918,1.280613810545206,-0.027428762987256,-0.4873692989349365,-0.2845907211303711
2.253528564453125,0.6264844969514757,-0.7205977088227867,0.6600508856624364,0.0834434404969215,-0.4852303564548492,-0.2359066158533096
2.263556640625,0.7530044791698456,-0.7087341064192354,0.1710404572725296,0.1833966672420501,-0.4371525645256042,-0.1700085550546646
2.27358349609375,0.8645653771873563,-0.6861002498067915,-0.1070183592170476,0.2454115748405456,-0.3439877033233642,-0.0918117836117744
2.283611572265625,0.9122232004191726,-0.7038219305887818,-0.2509258948922157,0.2666151225566864,-0.2348282039165496,-0.0158072933554649
2.293638671875,0.9220315507933496,-0.7786426321648061,-0.262234639891982,0.2622259557247162,-0.127561017870903,0.045149341225624
2.30366650390625,0.9180056562781334,-0.8675303644727915,-0.1778641658127308,0.2572080194950104,-0.0223919935524463,0.0906129628419876
2.313693603515625,0.8243477869588881,-0.9453980325292796,-0.0464034392565488,0.2538414001464844,0.0572557039558887,0.1029175743460655
2.323721435546875,0.6530142650239169,-0.9788349496416748,0.2931207765430212,0.2347859442234039,0.1243553757667541,0.072845958173275
2.333748779296875,0.488865978417918,-1.0437058465462177,0.7542547714918851,0.2004756182432174,0.164883479475975,0.0108218090608716
2.34377685546875,0.4060753939412534,-1.153687293352559,1.1572469585955143,0.1703938841819763,0.1582918912172317,-0.0631379038095474
2.353803466796875,0.3728019237622618,-1.1578183287426829,1.4321972876757385,0.1446588635444641,0.1365797072649002,-0.1440094709396362
2.363831787109375,0.3502402921358123,-1.0292318424485625,1.698432979902625,0.1225389242172241,0.130650445818901,-0.228173092007637
2.373858642578125,0.4403033153008669,-0.7698932162590324,1.79092830824852,0.1154573485255241,0.1722706705331802,-0.2807344496250152
2.383886962890625,0.5973802752811461,-0.4772765167806297,1.6632973691135644,0.1310325711965561,0.2137768417596817,-0.3004229366779327
2.39391357421875,0.677494699351117,-0.1984388979382813,1.7805466149657965,0.1501390784978866,0.2328217774629593,-0.2905750572681427
2.403941650390625,0.7927103204838931,0.1743967819631099,1.944172412067652,0.172186866402626,0.2146542221307754,-0.2520825266838074
2.41396875,0.8599377173867077,0.4085968021776527,1.9900199710071085,0.2053358852863311,0.1624887734651565,-0.2064442038536071
2.42399658203125,0.8429093526311219,0.5384667524110526,1.9904963563472031,0.2293504178524017,0.1093674898147583,-0.1675018668174743
2.434023681640625,0.7826439036954194,0.6113263830471783,1.9870769032925368,0.239664688706398,0.0466530881822109,-0.1370610445737838
2.4440517578125,0.7235199529450387,0.6228272896181791,1.9185551557302476,0.2375850230455398,-0.0276435129344463,-0.1157693415880203
2.45407861328125,0.6738579502839595,0.6064936291284859,1.8319681746453045,0.2250833958387375,-0.0894635468721389,-0.1052258610725402
2.464106689453125,0.687442677391693,0.614085326366499,1.630153224402666,0.2069651186466217,-0.1147654429078102,-0.097958356142044
2.4741337890625,0.6912853242944925,0.6958461294040084,1.3125415652036667,0.1798524111509323,-0.1381962746381759,-0.0988153219223022
2.48416162109375,0.6342352572087198,0.6956344594147056,1.1312129381507634,0.1621605008840561,-0.1790052205324173,-0.0916295871138572
2.494188720703125,0.704948377335444,0.715493809812516,0.8354308334439993,0.1534055322408676,-0.2217372804880142,-0.0822632312774658
2.504216552734375,0.7124555380951613,0.8041362621225416,0.4763040915518999,0.1525517255067825,-0.2421616017818451,-0.0729341730475425
2.51424365234375,0.6422700951043516,0.8231864150293171,0.0734054279506206,0.1539276242256164,-0.2262052744626999,-0.0646492168307304
2.524271728515625,0.6250929695278405,0.8203127592891454,-0.2345136892735957,0.1375257521867752,-0.1955451071262359,-0.0496364422142505
2.534298583984375,0.6254772926703095,0.8007073836524039,-0.3425432713598013,0.1024129539728164,-0.1711652874946594,-0.0184760633856058
2.54432666015625,0.6134941555403173,0.7824898821774869,-0.5649672943890094,0.0704701989889144,-0.1409634500741958,0.0210910532623529
2.554353759765625,0.5078059854811057,0.7149271158404648,-0.8803151003092526,0.0432678088545799,-0.1207822039723396,0.0475010611116886
2.564380615234375,0.3918811201004311,0.6629007952008396,-1.0180243658661845,0.0141272339969873,-0.091112732887268,0.065830260515213
2.57440869140625,0.4077097902100533,0.6689813572235405,-1.1706313408255575,-0.0182080119848251,-0.0402110442519187,0.0794273540377616
2.584435791015625,0.3675582144225016,0.6127735131155699,-1.212938450679183,-0.0612686686217784,-0.0109868478029966,0.091165505349636
2.59446337890625,0.3809622877337038,0.5472657065469771,-1.1719693114310503,-0.1126028969883918,0.0419236570596694,0.1196038499474525
2.60449072265625,0.4403919799650088,0.5073169233225285,-1.3456868789583445,-0.1494669020175933,0.100796028971672,0.1461004465818405
2.6145185546875,0.3305478592701256,0.3498855969466268,-1.3412643863409757,-0.1785627901554107,0.1749739646911621,0.1781765669584274
2.6245458984375,0.3732908763229847,0.2992351677700877,-1.4532996969372034,-0.1830313205718994,0.2562882602214813,0.2038877755403518
2.634573486328125,0.2900281077573076,0.1424028302006423,-1.44030694437325,-0.1639765501022339,0.3264119923114776,0.2221055179834365
2.6446005859375,0.1948031169855035,0.0112386023730039,-1.3504559930562972,-0.1395987719297409,0.3808832466602325,0.2288499623537063
2.654628662109375,0.0747359093694016,-0.1034888699166476,-1.152437512487173,-0.1195247247815132,0.3940945267677307,0.218101367354393
2.664655517578125,-0.0647772820706479,-0.2100144771806895,-0.9149825090646744,-0.1144319623708725,0.3781038522720337,0.1939510256052017
2.67468359375,-0.1311379060762934,-0.1658557481110096,-0.7115320665746927,-0.1096712425351142,0.3167548477649688,0.1777188777923584
2.684710693359375,-0.0632438071593642,-0.0781813371155411,-0.6643348465919494,-0.0994665473699569,0.2315648347139358,0.18710358440876
2.69473876953125,0.1174060347159858,0.0619527444355189,-0.709673871487379,-0.085683986544609,0.1595242172479629,0.2201383709907531
2.704765625,0.3514166059061884,0.2013098502647131,-0.8065548675715923,-0.0474772118031978,0.0728194117546081,0.2815801501274109
2.714793701171875,0.5843742979094386,0.3275423938438296,-1.162152266293764,0.0386812090873718,-0.0422619096934795,0.36928591132164
2.724820556640625,0.7029726202830672,0.3846754630379378,-1.4648545256525278,0.1518708914518356,-0.1494030207395553,0.4537344872951507
2.734848876953125,0.6626966509308666,0.357842912626639,-1.6679694525778292,0.2425381392240524,-0.212201327085495,0.5142534971237183
2.74487548828125,0.4878454031985252,0.1454002584509551,-1.726369034576416,0.2750055491924286,-0.1775328367948532,0.5410813689231873
2.75490380859375,0.2237572809269651,-0.2321083816975355,-1.6663742923408746,0.2485176175832748,-0.0673175007104873,0.5347371101379395
2.7649306640625,-0.0809579256894066,-0.7081929122146219,-1.484104585045576,0.1841479539871215,0.077268972992897,0.488156795501709
2.77495849609375,-0.3868390708126127,-1.086651692694798,-1.1733084510803222,0.1022720858454704,0.2153745889663696,0.4058160185813904
2.784985595703125,-0.574343317760527,-1.2700561761736868,-0.7034504669278859,0.0170586556196212,0.3058504164218902,0.3134748935699463
2.795013671875,-0.6683924514196813,-1.1876781910859049,-0.152633862966299,-0.0725370571017265,0.3290266692638397,0.2162614911794662
2.80504052734375,-0.8033730957303196,-1.1659032893903554,0.3532558040320873,-0.1439135074615478,0.3302826285362243,0.1098500937223434
2.815068603515625,-0.9981849622778594,-1.2471657144516706,0.6550877102971077,-0.1780284941196441,0.3051187694072723,-0.0091499807313084
2.825095703125,-1.1044472424305976,-1.1744345325008034,0.9694587801396848,-0.1988914310932159,0.2668070495128631,-0.1137046217918396
2.835123779296875,-1.081470782925561,-0.9423953435819596,1.2937351579248904,-0.2196117937564849,0.2172168344259262,-0.1934501528739929
2.845150634765625,-1.0548985639508812,-0.7470140065833926,1.505242650142312,-0.2410515695810318,0.1740680336952209,-0.2376682162284851
2.855178466796875,-1.101768086349219,-0.5804683765120804,1.5872423034369945,-0.2568216323852539,0.1341059952974319,-0.2449878007173538
2.865205810546875,-1.108905756209418,-0.4149867224104702,1.591933676123619,-0.2512977123260498,0.0836289748549461,-0.2084646821022033
2.875233642578125,-1.039875986059755,-0.2628416658744216,1.494044964301586,-0.2094045579433441,0.014294920489192,-0.1390809416770935
2.8852607421875,-0.912251476665586,-0.0362000251501798,1.300854634541273,-0.1324400007724762,-0.0650704726576805,-0.0375945307314395
2.895287841796875,-0.7544557739567012,0.2220169035330414,1.0548328783035277,-0.0377130433917045,-0.1087678149342536,0.0757936313748359
2.905315673828125,-0.6538612372420728,0.3782879539579152,0.824106890875101,0.0502096191048622,-0.1047975718975067,0.1953863501548767
2.9153427734375,-0.5373955795155838,0.4286429803844541,0.6908060894101857,0.1188744008541107,-0.0901805087924003,0.3209832608699798
2.925370849609375,-0.3954595265764742,0.3542550442025065,0.6615612902253866,0.1595374047756195,-0.0692893415689468,0.4364597797393799
2.93539794921875,-0.3739242057904601,0.1838690322507172,0.6950736837267876,0.1724229902029037,-0.0422674641013145,0.5121113657951355
2.94542578125,-0.4668836079841479,-0.0599089636482298,0.6924000806033611,0.1801384389400482,-0.0096738329157233,0.5465005040168762
2.955452880859375,-0.5234714278530329,-0.2867002419762313,0.6203735397905111,0.2001781463623047,0.0112438509240746,0.5393362641334534
2.965480712890625,-0.5854891638161615,-0.4758130931645631,0.64702656891644,0.2048128396272659,0.0297048836946487,0.4877904951572418
2.9755078125,-0.620131255467236,-0.5385252046000212,0.79147128020823,0.1844006776809692,0.0335916467010974,0.4096479415893554
2.98553564453125,-0.6392658717870712,-0.6421124203246087,0.9218342746555804,0.1403216272592544,0.0380625613033771,0.3101421296596527
2.995562744140625,-0.6283476604748517,-0.6730551094684749,1.0855395667344332,0.0814100205898284,0.0453829504549503,0.2093101143836975
3.0055908203125,-0.5364944294247775,-0.6033506549276412,1.2140040340840816,0.021114993840456,0.0373894721269607,0.1218300685286521
3.01561767578125,-0.3857812323227524,-0.4282655984394252,1.2604881373614072,-0.0216167401522398,0.0196207482367753,0.049345675855875
3.0256455078125,-0.2603826005508192,-0.1966376206699758,1.2199497907459735,-0.0388002581894397,0.0026300472673028,-0.0054592485539615
3.0356728515625,-0.1903551428670063,0.0369916869845241,1.119990117868781,-0.0279848538339138,-0.0081714689731597,-0.0391694158315658
3.04570068359375,-0.1106222837268374,0.2973858866415917,1.0354594847917555,-0.0040361126884818,-0.0171580407768487,-0.0512886643409729
3.0557275390625,-0.0334525439397897,0.5236713343393057,0.979152491158247,0.0241755992174148,-0.0183161348104476,-0.0458512119948864
3.065755859375,-0.0318461316564586,0.6764810653291642,0.924106895762682,0.0463000759482383,-0.0079665575176477,-0.0296695791184902
3.07578271484375,-0.0748085818799678,0.7724796525556593,0.8862205249607562,0.0524910800158977,0.0090983640402555,-0.0147711550816893
3.08581103515625,-0.1540993324089795,0.8094298384860158,0.846831932902336,0.0515075773000717,0.0279908291995525,-0.0024356599897146
3.095837646484375,-0.247279720409587,0.7806723844267427,0.7624363243818283,0.0678816959261894,0.0257416069507598,0.0045295399613678
3.10586572265625,-0.3400308501474559,0.749820369241014,0.6458575251370668,0.0788720324635505,0.028595982119441,-0.0026317001320421
3.115892822265625,-0.4554492273107171,0.8232781849659979,0.6081254681140184,0.0708016082644462,0.0345129147171974,-0.0232449285686016
3.125920654296875,-0.5342816487461328,0.8340905978161841,0.5897077678918838,0.0464110523462295,0.0356351733207702,-0.0442013442516326
3.13594775390625,-0.5685328048508614,0.8581232883758843,0.5686246478527784,0.0063467808067798,0.0376178137958049,-0.0635260045528411
3.145975830078125,-0.6062296078974381,0.894365910558775,0.5536053578972816,-0.0411293916404247,0.0467279553413391,-0.0803721025586128
3.1560029296875,-0.6554162115991116,0.9230785756282508,0.5025783504933119,-0.0863614082336425,0.0660847276449203,-0.0962886586785316
3.16603076171875,-0.6487425059888512,0.958343658015877,0.44967152069211,-0.1248821690678596,0.0759064704179763,-0.102999560534954
3.176057861328125,-0.618371698448807,1.0089906531263142,0.367029477840662,-0.1417461037635803,0.0783993676304817,-0.1041936948895454
3.1860859375,-0.6184501705124974,1.005283688367158,0.2358487372696399,-0.1336602121591568,0.0826819986104965,-0.1050022318959236
3.19611279296875,-0.6538853487700224,1.0517127004563809,0.2163105085849762,-0.1330457329750061,0.0806367769837379,-0.1102626621723175
3.2061396484375,-0.6764098997890949,1.0799327597033233,0.2621662508308887,-0.128084510564804,0.0716864243149757,-0.1157703474164009
3.21616796875,-0.6599609423566609,1.0487561156731098,0.2478717680186033,-0.1356925368309021,0.0566073395311832,-0.1256755888462066
3.226194580078125,-0.6981679234150797,1.0585418888892977,0.2732283275932073,-0.1632256358861923,0.0499947071075439,-0.1363684386014938
3.23622265625,-0.7085276971269399,1.049976816574484,0.2606336344361305,-0.208815261721611,0.0637910962104797,-0.1410189270973205
3.24625,-0.6523384115889668,1.0254875413537026,0.1540828927308321,-0.2390030026435852,0.0569526366889476,-0.1185013726353645
3.25627783203125,-0.5203200511500239,1.0223159986454993,-0.0542319409251213,-0.2402223646640777,0.0220770165324211,-0.0826267674565315
3.2663046875,-0.4364471147967502,1.082900377337262,-0.3345218774676323,-0.2139071375131607,-0.0066542304120957,-0.0431680418550968
3.276332763671875,-0.3738123429138213,1.0704936079677194,-0.6275210734575987,-0.1770198941230774,-0.0194717198610305,-0.0048310565762221
3.28635986328125,-0.36846221405752,0.9796954389285296,-0.8574684777289628,-0.1406270116567611,-0.0091181481257081,0.0327679812908172
3.296387939453125,-0.3828217979952693,0.7748295036174356,-0.9861234992146491,-0.1189502999186515,-0.0087897777557373,0.0537559613585472
3.306414794921875,-0.3754826142136007,0.6285412102855742,-0.8568173203438519,-0.1378733962774276,-0.0013515693135559,0.0684310421347618
3.316442626953125,-0.2849695639924146,0.5725714857824147,-0.8856979623913764,-0.1594407707452774,0.061929702758789,0.0763111859560012
3.326469970703125,-0.3258105650825426,0.405322164421156,-1.0810194589614868,-0.1754290610551834,0.1125915497541427,0.0514407269656658
3.33649755859375,-0.4281171298794448,0.239846136342734,-0.9366869758725166,-0.1933023482561111,0.1663502752780914,0.013940536417067
3.346524658203125,-0.2761332917870953,0.2973422666955739,-1.0274199707210063,-0.1851807683706283,0.2322118431329727,-0.0192158166319131
3.356552734375,-0.2154511335429735,0.2725539354629814,-1.1515315035581588,-0.1382572948932647,0.2305735796689987,-0.0410728268325328
3.366579833984375,-0.1003037188082002,0.2751457055218517,-1.2596224604427817,-0.0617236346006393,0.1540641635656356,-0.0428789816796779
3.376607666015625,0.0616963767879642,0.3469927250493317,-1.4003145412027835,0.0230703335255384,0.0213533639907836,-0.0306131914258003
3.386634765625,0.1323714116603136,0.3454986870992929,-1.555226870495081,0.0945708826184272,-0.1591032296419143,-0.0105318902060389
3.39666259765625,0.2386355915091931,0.1741135811075568,-1.794428425323963,0.1472101658582687,-0.3044598996639251,0.0163909308612346
3.406689697265625,0.2474632237503305,-0.0235721603758633,-2.033109755671024,0.1460202634334564,-0.4037425518035888,0.0434750095009803
3.4167177734375,0.2695266783299855,-0.2692356046952307,-2.193139574107528,0.0954872593283653,-0.4121654629707336,0.070743590593338
3.426744873046875,0.1745663298437371,-0.6339396352630108,-2.375982112854719,0.0122197978198528,-0.326547235250473,0.0760009437799453
3.43677294921875,-0.0227658124290406,-1.0264227033119648,-2.404966215276718,-0.0888283997774124,-0.1633932739496231,0.0422025322914123
3.446799560546875,-0.2199052268750034,-1.3786594664946197,-2.328168806800246,-0.1794419288635254,0.0786885917186737,-0.0345604196190834
3.456827880859375,-0.4472853562079369,-1.6973691500633954,-2.189821243339777,-0.2271177470684051,0.3583563268184662,-0.146935760974884
3.466854736328125,-0.6509218227893113,-1.899908469057828,-1.781278436371684,-0.2279377430677414,0.5918782949447632,-0.2760039865970611
3.476883056640625,-0.7740745935969054,-1.887459906373173,-0.8731687356859446,-0.2052493393421173,0.6971247792243958,-0.3929228782653808
3.48690966796875,-0.6338263110816479,-1.5524419159516691,0.2660726106196642,-0.1801634430885315,0.6545796990394592,-0.4904683530330658
3.496937744140625,-0.4838724079143255,-1.1002526402849704,1.3906301825344562,-0.1895773410797119,0.5212776064872742,-0.5701697468757629
3.506965087890625,-0.3889841565499082,-0.7041584690667688,2.2551456561654804,-0.2203339189291,0.3304738104343414,-0.6198573708534241
3.51699169921875,-0.2753498132592067,-0.4760536239221691,2.6245453702688217,-0.2386957257986068,0.1095723956823349,-0.6255674362182617
3.527019775390625,-0.1657690196756273,-0.3140498750641942,2.5991157454580067,-0.2199414819478988,-0.1034549251198768,-0.590951144695282
3.537046875,-0.0849717279080301,-0.0898961056329309,2.278853864011168,-0.1673862338066101,-0.2766693234443664,-0.5246905088424683
3.54707470703125,-0.0285840702537447,0.0764712452620267,1.744006398075819,-0.0756667032837867,-0.3834455609321594,-0.4256358444690704
3.5571015625,0.1150430775774642,0.1612539534039795,1.0823609366983176,0.035649623721838,-0.418724000453949,-0.2910947799682617
3.5671298828125,0.245077954315301,0.1429002583287656,0.5350286677211523,0.144888237118721,-0.4000661671161651,-0.1379803419113159
3.577156494140625,0.3449898607943207,0.0642316491529345,0.1878916388303041,0.2276052981615066,-0.3606933355331421,0.0218505449593067
3.587184814453125,0.4195382482349872,-0.0982858944460749,-0.024409049591422,0.2782032489776611,-0.3072495758533478,0.1557356417179107
3.5972119140625,0.3804236508123576,-0.3384479648701846,-0.1710831273704767,0.3115606009960174,-0.2242701351642608,0.2625336647033691
3.60723974609375,0.246753979502432,-0.62868186086528,-0.2934142065316438,0.3341923952102661,-0.1457649320363998,0.3182419538497925
3.617266845703125,0.0311237356660421,-0.9240985663257538,-0.2319657583564519,0.3249991238117218,-0.0704777911305427,0.3149177432060241
3.627294677734375,-0.1605852968947961,-1.0972444714449343,0.0290332022607326,0.27899169921875,-0.0086935237050056,0.2732621729373932
3.637322021484375,-0.3198414640776812,-1.2614059828586877,0.4104600387662649,0.1873991638422012,0.0280909314751625,0.196232184767723
3.647349853515625,-0.4434563359716907,-1.3967074566215276,0.8084229995310306,0.0766175165772438,0.0561838187277317,0.1036830842494964
3.657376708984375,-0.4955057086933404,-1.4996166269540785,1.065744732940197,-0.0137438923120498,0.0545758754014968,0.0044527230784296
3.66740478515625,-0.4396671362891793,-1.499185980451852,1.1817998005717991,-0.0581936500966548,0.0457964986562728,-0.0961742848157882
3.677431884765625,-0.4189444105276838,-1.362847564856708,1.194798982876539,-0.0594320856034755,0.0470255389809608,-0.1926656663417816
3.6874599609375,-0.3719710258960723,-1.0941467246253045,1.2824439485818149,-0.0380871184170246,0.0413175895810127,-0.2693308889865875
3.69748681640625,-0.2631637009030207,-0.8310866667598485,1.4390847091019152,-0.0108524737879633,0.0200641620904207,-0.305727869272232
3.7075146484375,-0.0864377270736731,-0.5437450581401586,1.630304031050205,0.0089595802128314,-0.0137798208743333,-0.3004657328128814
3.7175419921875,0.0614719021160155,-0.23495807204023,1.7556313694179058,0.0243969075381755,-0.0560872182250022,-0.2566747665405273
3.727569580078125,0.1645133570587262,-0.0014233108013868,1.7862836973130702,0.0342450104653835,-0.085058145225048,-0.1900246292352676
3.7375966796875,0.2056321339106187,0.1885718031141907,1.7243179472655057,0.0498404279351234,-0.09463981539011,-0.1163267567753791
3.747624755859375,0.2586474655875936,0.30053631349653,1.6514800900697708,0.0711736753582954,-0.099913403391838,-0.041956391185522
3.757651611328125,0.3015329598510637,0.3847715438235551,1.5388240172266958,0.1020881384611129,-0.1025551110506057,0.0303400978446006
3.767679931640625,0.2876347463473677,0.3964541636370122,1.4163292719364164,0.1335829496383667,-0.1035695075988769,0.0897325873374939
3.777706787109375,0.2077269507654011,0.3517404310330748,1.2930623732298612,0.1534912437200546,-0.1031490042805671,0.133382186293602
3.78773486328125,0.1293860574402846,0.2946653756365179,1.2374918771773575,0.1509300768375396,-0.1133558303117752,0.1604606807231903
3.79776171875,0.1121509911314584,0.2676832606866955,1.201969897419214,0.1281286627054214,-0.1299688220024109,0.1751398593187332
3.807789794921875,0.0898468961963429,0.2795623529203236,1.1282377217322588,0.090334951877594,-0.1342075020074844,0.1804968118667602
3.817816650390625,0.054239466644451,0.2998753653697669,0.9310703050345182,0.0527737587690353,-0.1318511813879013,0.1892947107553482
3.827844970703125,0.0538550795699004,0.3184516902197152,0.6947989584386348,0.0277981013059616,-0.1236137598752975,0.2009942382574081
3.83787158203125,0.0727324879919644,0.3658455287531018,0.4912514853149652,0.0186339449137449,-0.1143517047166824,0.2176337540149688
3.847898681640625,0.0631643258820986,0.4416859287656843,0.2880962263792753,0.0188422054052352,-0.1063182801008224,0.2319341301918029
3.857927001953125,0.0489601699680788,0.502582880537957,0.1241559565007686,0.0207238793373107,-0.0910515561699867,0.2469201833009719
3.86795361328125,0.0345431567546678,0.5679325739353895,0.0036006548404693,0.0186727121472358,-0.0653184950351715,0.259863406419754
3.87798193359375,-0.0202885835443739,0.5889378064326941,-0.1159299799472093,0.0182979721575975,-0.0499286130070686,0.2740981578826904
3.8880087890625,-0.0546676426283782,0.6173777920406311,-0.2164624842762947,0.0157333482056856,-0.0483160689473152,0.2882374227046966
3.89803662109375,-0.0581152760313358,0.6737571202579885,-0.253750889185071,0.007939051836729,-0.0594328306615352,0.2980445921421051
3.908063720703125,-0.0804131512882188,0.7271537794027477,-0.3189671654611826,-0.0005809334106743,-0.0870998725295066,0.3027956783771515
3.91809130859375,-0.0518735092646675,0.7573289182402193,-0.4375736711412668,-0.0113151362165808,-0.1086688190698623,0.3093023002147674
3.9281181640625,-0.0004898270602687,0.7336636727534234,-0.6373521471202374,-0.013223823159933,-0.1190743222832679,0.320474237203598
3.93814599609375,0.0615408072003396,0.7054962204765528,-0.9198574216246604,-0.0034915257710963,-0.1172273382544517,0.3264118731021881
3.94817333984375,0.0873169027946889,0.6572796673834324,-1.1039333015590906,0.0101806102320551,-0.1320433169603347,0.3265735208988189
3.958201171875,0.1490548811015207,0.6728651398543268,-1.149406766489148,0.0049450360238552,-0.1379224956035614,0.3353862166404724
3.96822802734375,0.1695963046125136,0.6453026677332818,-1.2551432692021132,-0.0111772082746028,-0.1397201269865036,0.3321081101894378
3.978256103515625,0.1373816958366893,0.5497189449179917,-1.2981184875756502,-0.0363260954618454,-0.1095355302095413,0.3215928375720978
3.990162841796875,0.1656691760303452,0.5605196673303843,-1.4055658858597275,-0.0712494626641273,-0.097631499171257,0.2826582491397857
4.000191162109375,0.0150327430921141,0.5342877862259745,-1.408898245152831,-0.0924721956253051,-0.0840099602937698,0.2432826161384582
4.010218017578125,-0.0164397512126713,0.5539880736045539,-1.5114333214759823,-0.096610702574253,-0.0686245411634445,0.2101516723632812
4.020246337890625,0.0276101654539816,0.5773541169490665,-1.5944786844313144,-0.086111195385456,-0.0528077632188797,0.2046354562044143
4.03027294921875,0.2586886743808165,0.6816803144726902,-1.7218752302885054,-0.050850287079811,-0.0742872953414917,0.238027274608612
4.04030126953125,0.5562008542831987,0.9166054340913892,-1.7735937270879745,-0.004720339551568,-0.1147713363170623,0.3087110221385956
4.050328369140625,0.7726517211869358,1.167496038474515,-1.768213787615299,0.0337545461952686,-0.1743247061967849,0.4010284543037414
4.060356201171875,0.901978358323872,1.2618129562243818,-1.8608301119923591,0.0662874579429626,-0.2089860141277313,0.4981991946697235
4.07038330078125,0.8056595261670648,1.1047861920613795,-1.909282884994149,0.0739433169364929,-0.2026098221540451,0.5825114250183105
4.0804111328125,0.7170330751437693,0.8185578784458338,-1.863827540242672,0.0545320734381675,-0.1596937775611877,0.642636775970459
4.090438232421875,0.522408182535693,0.3864824393946677,-1.8151105633467437,0.022328820079565,-0.0587326139211654,0.6605491042137146
4.100466064453125,0.2196764230878092,-0.0741618723411113,-1.6634090127944945,-0.0299309212714433,0.0713715925812721,0.6463158130645752
4.1104931640625,-0.0220431972429156,-0.469427118454501,-1.3504168300896882,-0.0958199054002761,0.1747455447912216,0.5987679362297058
4.120521240234375,-0.2329766524320468,-0.8897701072011143,-0.9011211569726466,-0.157828688621521,0.2675734758377075,0.5129745006561279
4.13054833984375,-0.4914033879410475,-1.1771939142115413,-0.5452238985210657,-0.2102469950914383,0.3367340564727783,0.3858361840248108
4.140575927734375,-0.787766434340924,-1.352053637511283,0.0182756614029407,-0.2586036026477813,0.3675231337547302,0.2308857291936874
4.150603271484375,-0.886220086569339,-1.4143953812643886,0.4742535887628793,-0.2922814786434173,0.4321818649768829,0.0891423821449279
4.160631103515625,-0.9498527469158172,-1.3620403401270509,0.637018969643116,-0.3078151643276214,0.4303088784217834,-0.0335305333137512
4.170657958984375,-1.1384775223262606,-1.3469701967671512,1.2130664609730244,-0.3339265584945678,0.3474100530147552,-0.124980591237545
4.180685302734375,-1.023589891038835,-1.106625755513459,1.6323621326237916,-0.366378515958786,0.2697876989841461,-0.1712919026613235
4.190713134765625,-1.0884816846009344,-0.928262700267881,1.8184265560269357,-0.381973534822464,0.1515279114246368,-0.1904446929693222
4.200739990234375,-1.1345347760498523,-0.8196975500002502,1.8000345747679471,-0.374942272901535,0.0390024334192276,-0.1765467226505279
4.21076806640625,-1.0201038755539804,-0.6167433665946126,1.6414286516547203,-0.3356524705886841,-0.0499377474188804,-0.120235800743103
4.220795166015625,-0.8117670492619276,-0.3766200207456946,1.3196212943315506,-0.2568889558315277,-0.1156120970845222,-0.0248818546533584
4.2308232421875,-0.5660608983119949,-0.1799975245796144,0.9667547818779944,-0.1544534415006637,-0.1367514729499817,0.0912814959883689
4.24085009765625,-0.3890313201598823,-0.0144550802014768,0.6979255660265684,-0.048777874559164,-0.1228913068771362,0.2123120427131652
4.2508779296875,-0.2803609376857988,0.0406675259530544,0.5362222614198923,0.0390774607658386,-0.0822633132338523,0.3211797177791595
4.2609052734375,-0.2348064251424744,-0.073441960568726,0.4641010280609131,0.100882239639759,-0.0258812643587589,0.3998415172100067
4.27093310546875,-0.2972744438900612,-0.3088210345000028,0.445854008230567,0.1344803869724273,0.0310990400612354,0.4361545741558075
4.280960205078125,-0.426011097510904,-0.5929033490628004,0.5028852244853973,0.1596432626247406,0.0765437558293342,0.431408554315567
4.290988037109375,-0.5159908628392964,-0.8383890987277031,0.6090770697504282,0.1729821413755417,0.0829015970230102,0.3809351027011871
4.30101513671875,-0.5619612809734419,-0.8987786854997277,0.8405699498981237,0.150218516588211,0.0799660012125969,0.2911224067211151
4.311043212890625,-0.6316014015737921,-0.8796239031746983,1.1026204653948546,0.0925058722496032,0.0617128051817417,0.1743724197149276
4.321070068359375,-0.6232745949942619,-0.903211407250166,1.3162357435464858,0.020965376868844,0.0374689847230911,0.0561677552759647
4.331098388671875,-0.5718613647516817,-0.8825859678506851,1.4757745635956525,-0.0521369725465774,0.0202134922146797,-0.0485931001603603
4.341125,-0.4996149341104552,-0.7912137983158231,1.5044512075036762,-0.1018384844064712,0.0164120960980653,-0.1333639174699783
4.351153076171875,-0.4324705027833581,-0.5799341235049068,1.4048819952487943,-0.1184831410646438,0.0428825840353965,-0.1958857625722885
4.37058203125,-0.2686642345480621,-0.0251416016496717,1.3053203817784786,-0.0760448724031448,0.1269519180059433,-0.253586858510971
4.380609375,-0.2228040535890497,0.1998382433421909,1.3805693917691706,-0.0414511300623416,0.1538179665803909,-0.2527956664562225
4.390636962890625,-0.196283473470062,0.4005348570793867,1.5163520731776952,-0.0123028317466378,0.1714909672737121,-0.2430599629878997
4.4006640625,-0.2227669181827455,0.5389562164284288,1.6260925508350133,0.0074158711358904,0.1731689721345901,-0.2342339605093002
4.41069140625,-0.3169808504821732,0.6230867442719638,1.7054314604878424,0.0072052152827382,0.1628135293722152,-0.2369501143693924
4.420718994140625,-0.3884647723183035,0.6998582876548171,1.7443612028628586,0.0040662880055606,0.1397426277399063,-0.2385834604501724
4.430746337890625,-0.4187160816645249,0.7513616803988814,1.6731331189513206,-0.0035074756015092,0.1074328944087028,-0.2386633455753326
4.440774169921875,-0.4960539171606302,0.7981560186691582,1.5781646784901615,-0.0199054274708032,0.0731065720319747,-0.2414005249738693
4.45080126953125,-0.5088774871701375,0.8800262003652751,1.4305945286542177,-0.0261297691613435,0.0349605157971382,-0.2267856299877166
4.4608291015625,-0.477639468341507,0.9203571878403424,1.1988415362656115,-0.024561071768403,0.0145385600626468,-0.2082179188728332
4.470856201171875,-0.5351877307403833,0.955433177396655,0.9611556466966868,-0.0222651604562997,0.0170310139656066,-0.2005046010017395
4.48088427734375,-0.6051682988088578,0.9453523667566478,0.7415601250916719,-0.0231262370944023,0.0294764228165149,-0.2013655602931976
4.4909111328125,-0.6103668173000216,0.964184785259515,0.5615151081085205,-0.031825453042984,0.0497862212359905,-0.2024880796670913
4.50093896484375,-0.6326324251219629,0.9549646831020712,0.4476794700920581,-0.0476440712809562,0.0690064504742622,-0.2093548774719238
4.51096630859375,-0.6732260090559721,0.968807038232684,0.3577835105895995,-0.0679706558585167,0.0848029851913452,-0.2213031500577926
4.520994140625,-0.6922539501309395,1.0132768790781497,0.2801373763293027,-0.0880700275301933,0.0859038978815078,-0.2311934530735016
4.53102099609375,-0.6853450475253164,1.0520875251181423,0.2212427042901515,-0.1047512739896774,0.0585534982383251,-0.2422714084386825
4.541049072265625,-0.6706367232151329,1.053973484995216,0.1132768350899219,-0.116403579711914,0.0306405667215585,-0.2541334629058838
4.551076171875,-0.6798983264267444,1.090620669391006,-0.0821352623730897,-0.1205197572708129,0.015393704175949,-0.2618907392024994
4.561104248046875,-0.6794799548842012,1.1158616397619248,-0.2955085484623909,-0.1202686429023742,0.0007371427491307,-0.2603612244129181
4.571131103515625,-0.650195262080431,1.1384363135330378,-0.4830687633812427,-0.1147353872656822,-0.017274348065257,-0.2497605234384536
4.5811591796875,-0.6121988550327718,1.1405987522639334,-0.6817354787260294,-0.1066970527172088,-0.0266985893249511,-0.2225690484046936
4.591186279296875,-0.5761006462892517,1.1350075081281363,-0.9262181888282298,-0.0987967848777771,-0.0245643313974142,-0.1853841245174408
4.601214111328125,-0.5422583267137407,1.111228427003324,-1.199334288218617,-0.0892175957560539,-0.008803472854197,-0.1343728750944137
4.611240966796875,-0.493307979453355,1.0020829926297068,-1.4507821611583231,-0.0751047059893608,0.0141750797629356,-0.0738509371876716
4.621269287109375,-0.4784116948230191,0.8359032732613384,-1.6645675351798532,-0.0647295117378234,0.0539265982806682,-0.0249624177813529
4.6312958984375,-0.5352827886126935,0.5780844039849936,-1.7584014186531305,-0.0670219585299491,0.1125438436865806,0.0041022566147148
4.64132421875,-0.5725323228158057,0.3249852567069232,-1.7605150498062372,-0.0796399638056755,0.1926700174808502,0.0060258889570832
4.65135107421875,-0.6142445355162024,0.0534074727997183,-1.6831296123087405,-0.1010938584804534,0.2920719683170318,-0.0235522426664829
4.661379150390625,-0.6778605369888245,-0.1332376731008291,-1.4773855059236287,-0.116598755121231,0.3525397777557373,-0.0923132970929145
4.67140625,-0.6751943865194916,-0.1611892176046967,-1.2078940267711875,-0.1160797029733657,0.3178108334541321,-0.1786116957664489
4.68143408203125,-0.5678930456425995,-0.0788201464757323,-1.027370286360383,-0.1082622110843658,0.2351930290460586,-0.2520650625228882
4.691461181640625,-0.421041930796206,0.033552287120372,-0.9567647182613612,-0.0976218208670616,0.1546936482191085,-0.2943842709064483
4.7014892578125,-0.2033106686931103,0.1178968961060047,-1.0859896485894918,-0.0679604783654213,0.0405328758060932,-0.2881670892238617
4.71151611328125,0.0963932125672697,0.2814975587666034,-1.3257698800891635,-0.0248604100197553,-0.0894765257835388,-0.2386471927165985
4.721544189453125,0.3071722809122875,0.3846688871666789,-1.6620745493203402,0.0222374498844146,-0.2006995230913162,-0.1616897881031036
4.7315712890625,0.2622969645384699,0.2444473465278744,-2.12713243971467,0.0619651563465595,-0.2404455989599228,-0.0845276340842247
4.741597900390625,0.0452458667192608,-0.0982479005232453,-2.575286541581154,0.0806982144713401,-0.1378450542688369,-0.0147873787209391
4.751626220703125,-0.1471771684629842,-0.6051759706586599,-2.871165676921606,0.1020698174834251,0.0494942218065261,0.0382156521081924
4.7616533203125,-0.3667549352155998,-1.082726409009844,-2.768778484636545,0.0946707278490066,0.2472504824399948,0.0502511262893676
4.771681396484375,-0.5915074011923744,-1.383808958212286,-2.1503245147317647,0.0579334869980812,0.4269627332687378,0.021028259769082
4.781708251953125,-0.752150346558541,-1.625745198702067,-1.2479402059555054,0.0071818265132606,0.5356775522232056,-0.0543573349714279
4.791736083984375,-0.8736938555385917,-1.8136254393555225,-0.3532996431738138,-0.0345256738364696,0.5743983387947083,-0.1610981523990631
4.801763427734375,-0.9453570429317651,-1.826963059834391,0.3624468262255191,-0.0448070541024208,0.5229455828666687,-0.2811913192272186
4.811791015625,-0.9807790694467724,-1.7276026680245995,1.1168746161967515,-0.042655486613512,0.3913327157497406,-0.3978910446166992
4.821818115234375,-0.8297660126153379,-1.466690362777561,1.7556500741183756,-0.0374798253178596,0.2324360758066177,-0.4779797792434692
4.83184619140625,-0.4963094628242775,-1.0719082240059972,1.918368108725548,-0.018758600577712,0.1430196464061737,-0.4915680289268493
4.841873046875,-0.3262475317277014,-0.784489604627341,1.9880355191916224,0.0010665510781109,0.0250012464821338,-0.4581154584884643
4.851901123046875,-0.1296726010303944,-0.5797479532830416,2.14686414514482,0.0352844446897506,-0.110395461320877,-0.3681562840938568
4.86192822265625,0.1815313465507701,-0.3882929228827357,2.0264193181216714,0.1062946543097496,-0.2443344742059707,-0.2465391159057617
4.8719560546875,0.3250622674658894,-0.3165137809596955,1.6912661570131775,0.2097246497869491,-0.3438088595867157,-0.1269964724779129
4.881983154296875,0.285566159912385,-0.3440186046093702,1.2769330762058495,0.3313565850257873,-0.4053256213665008,-0.0262245349586009
4.892010986328125,0.2708252485068514,-0.4518583632119,0.8569114283680915,0.4438884556293487,-0.4338108003139496,0.0594703927636146
4.9020380859375,0.3600501768799498,-0.6061179276838898,0.5763087726145982,0.5210869908332825,-0.4337225556373596,0.1388823688030243
4.912066162109375,0.5049032863095403,-0.7701824084639549,0.4046580744892358,0.555878221988678,-0.3964129984378814,0.2095389515161514
4.92209326171875,0.5559895861526951,-0.9551676583282648,0.2051870570242404,0.5724603533744812,-0.3358104825019836,0.260488212108612
4.932121337890625,0.4917652069907635,-1.1794107134781775,0.0433592492550611,0.5698030591011047,-0.2812907695770263,0.2704558968544006
4.9421484375,0.3486236872520297,-1.3261059801757336,0.044471009889245,0.5383933782577515,-0.2400888204574585,0.2425714433193206
4.95217626953125,0.2566243805284611,-1.4484168933317063,0.1260217503726482,0.482079803943634,-0.2198623716831207,0.1877571940422058
4.962203125,0.2485358031515963,-1.494596606834978,0.3367401380389929,0.393154114484787,-0.2083929777145385,0.1266134232282638
4.9722314453125,0.2670505340074189,-1.4270105326876044,0.5287006337434053,0.2897334694862366,-0.1609762012958526,0.0561661571264267
4.982258056640625,0.1915033995866775,-1.4860652175940572,0.5628706143707036,0.2170481532812118,-0.0848953500390052,-0.0308252908289432
4.992286376953125,0.0771716486163437,-1.5404527874723075,0.556191282737255,0.1940530836582183,-0.0259603932499885,-0.1233320534229278
5.002313232421875,0.0443725362171418,-1.3518705360293388,0.7115373272716998,0.20497527718544,0.0022871471010148,-0.2062344998121261
5.01234130859375,0.0989174155489541,-1.0064224100735035,0.9515712412714956,0.2289021760225296,-0.0006476561538875,-0.2668501436710357
5.0223681640625,0.167196787456423,-0.6327420229762792,1.2655746468454598,0.2450316846370697,-0.0317740775644779,-0.2967526912689209
5.032396240234375,0.2453599861270748,-0.3005192892964929,1.5880255627691744,0.2380214482545852,-0.0753383338451385,-0.2941337525844574
5.042423583984375,0.2825644208131357,-0.0376025854244828,1.7608704391151666,0.2172099351882934,-0.1181940287351608,-0.2694700360298157
5.052451416015625,0.2735832785107195,0.1752071484979242,1.830844723573327,0.1916446536779403,-0.1466813385486602,-0.2293665409088134
5.062478271484375,0.2418362689803354,0.3394758466131985,1.751402938067913,0.1768824011087417,-0.1442499011754989,-0.1791092157363891
5.07250634765625,0.2662471634689718,0.489919213797897,1.6000275507301092,0.1839746683835983,-0.1397483646869659,-0.1285845339298248
5.082533447265625,0.3035908239626325,0.5740114554576575,1.432300163528323,0.2121350020170211,-0.1398421823978424,-0.0811701118946075
5.09256005859375,0.2707336977658793,0.6898579218398779,1.3364414962291715,0.2402196228504181,-0.1390831768512725,-0.0506921000778675
5.10258837890625,0.1862081061901524,0.7552732278194279,1.2758973034173249,0.2604522407054901,-0.1510720998048782,-0.0334509834647178
5.112615234375,0.1751418281767517,0.7422229729145765,1.2407991020292044,0.2598730027675628,-0.1588099151849746,-0.0185713693499565
5.1226435546875,0.1895376524716615,0.7595901411704719,1.1766630222052334,0.2410109192132949,-0.1646157056093216,0.0041581061668694
5.13267041015625,0.1962166187789291,0.7711773377854376,1.086349129551649,0.2070652097463607,-0.1834328025579452,0.024850333109498
5.1426982421875,0.2268099647621624,0.7824603638220577,0.9576566986650228,0.1647974550724029,-0.2172389030456543,0.0439132004976272
5.1527255859375,0.3210715538619086,0.7982233848169445,0.7543699223041535,0.1272535324096679,-0.2449283152818679,0.0630719810724258
5.162753173828125,0.3434849361240863,0.8061429257698357,0.4101689468652009,0.1128572896122932,-0.2447655946016311,0.0866580009460449
5.1727802734375,0.2166571117992512,0.8038441473081708,0.046701545420289,0.1119185239076614,-0.2152718901634216,0.1057691052556037
5.182808349609375,0.1382676483583636,0.8120369522444904,-0.1833469811379909,0.1069076880812645,-0.1685954332351684,0.1323363929986953
5.19283544921875,0.2017415196802467,0.8318314207125455,-0.2741740840107202,0.0896264389157295,-0.1262671500444412,0.163595512509346
5.20286328125,0.1984041188858449,0.8020530261076987,-0.3138502608388662,0.0549598298966884,-0.0853117927908897,0.1899085044860839
5.212890380859375,0.0763353347895201,0.7176591711528599,-0.3013917612820863,0.0156292002648115,-0.0473143458366394,0.2013846039772033
5.222918212890625,0.0384584533351473,0.639999519823864,-0.2911158664613962,-0.0187638141214847,-0.0283674336969852,0.2117603570222854
5.2329453125,0.0865155141507741,0.6761239224545658,-0.2975000145405531,-0.0458111464977264,-0.0320103727281093,0.2229443043470382
5.24297314453125,0.1403108446237631,0.7235545128017663,-0.2815945894002914,-0.0592742413282394,-0.052823968231678,0.2289058864116668
5.253000244140625,0.1663012999214231,0.758914726126939,-0.3071002020567655,-0.0700379461050033,-0.0899308547377586,0.2332585602998733
5.2630283203125,0.1886333240430802,0.7695087469860911,-0.4050000197947025,-0.0778236165642738,-0.1326832622289657,0.2399813681840896
5.27305517578125,0.2130545755289495,0.7253579089619219,-0.5106383228302002,-0.0847275927662849,-0.1566149592399597,0.2552463710308075
5.283083251953125,0.2121310309432446,0.6938543710649013,-0.6642448302209377,-0.089139275252819,-0.153516799211502,0.2718070447444916
5.2931103515625,0.2330566953983157,0.6534427195690572,-0.804865599310398,-0.090548351407051,-0.1324378699064254,0.2912845909595489
5.30313818359375,0.2194998609445057,0.5541248517267405,-0.9237591052383184,-0.084514319896698,-0.1043287366628646,0.2985721826553345
5.313165283203125,0.1663425452472642,0.4421870832208543,-0.946199485105276,-0.0737551525235176,-0.0898541957139968,0.2920809984207153
5.323193359375,0.0875278238653205,0.3658786273051053,-0.917113091352582,-0.0673364698886871,-0.1108489632606506,0.2675559520721435
5.333220458984375,0.0111085462525486,0.3299487243331969,-0.8293143963903188,-0.0838826894760131,-0.1478567868471145,0.2170616239309311
5.343248291015625,-0.0468229981091804,0.364580258057639,-0.7677151415675878,-0.1235245168209075,-0.1803341805934906,0.1655047684907913
5.353275146484375,-0.0604044738139025,0.4268916066724806,-0.8110200302869081,-0.1721922010183334,-0.200362741947174,0.1270263493061065
5.363303466796875,0.0049545536674559,0.4855822805721312,-1.0390858585953713,-0.1972189843654632,-0.2107303887605667,0.1267267167568206
5.373330078125,0.155189483999554,0.5207436833895742,-1.362597681748867,-0.1813792884349823,-0.2181409001350402,0.1657265871763229
5.3833583984375,0.3471234387569129,0.6150736067514866,-1.676112427023053,-0.1419641077518463,-0.2480167001485824,0.2270117402076721
5.393385498046875,0.5087699351424351,0.6743718911554664,-1.898542295271158,-0.0904551073908805,-0.2534956037998199,0.3016071617603302
5.403413330078125,0.5805309568868949,0.701769601168856,-2.2315677967011927,-0.0255679171532392,-0.256894052028656,0.3903931975364685
5.4134404296875,0.5690269815759733,0.5737051659874618,-2.471493574151397,0.024997254833579,-0.2387400716543197,0.4783179759979248
5.42346728515625,0.4669544447306543,0.342213966340199,-2.4774118582844733,0.0420757494866848,-0.1605448126792907,0.5466734170913696
5.433495361328125,0.3272514480732381,0.0214889974262565,-2.416121231019497,0.0205701906234025,-0.0361480191349983,0.5859587788581848
5.443522216796875,0.111863534225896,-0.4219309155251831,-2.102694748550653,-0.0275769829750061,0.0995827615261077,0.5817870497703552
5.45355029296875,-0.0931893384920433,-0.8462093440245837,-1.6988889069765805,-0.0764893963932991,0.2178244590759277,0.5384116172790527
5.4635771484375,-0.3038804180263541,-1.1784013903051611,-1.1745032138228415,-0.1245759055018425,0.2806772291660309,0.4500851631164551
5.47360546875,-0.5304096296183765,-1.4466167120419442,-0.5499725543528795,-0.1718014627695083,0.3089956939220428,0.3198568522930145
5.48363232421875,-0.721049398113042,-1.581403075889498,0.0031727848172187,-0.2059613317251205,0.3066195249557495,0.172577291727066
5.493660400390625,-0.7948289931382984,-1.6254519148439168,0.4804880992382764,-0.2246450036764145,0.2815975546836853,0.0390416085720062
5.5036875,-0.7849488927021622,-1.5309361865863202,0.943857305893302,-0.232493594288826,0.2314397543668747,-0.0651168450713157
5.513715087890625,-0.7204528935246169,-1.332058897230774,1.310155546849966,-0.2352680712938308,0.1543692052364349,-0.138722613453865
5.523742431640625,-0.6336272083129734,-1.0827108461145312,1.5693892513602972,-0.2361203879117965,0.0755500197410583,-0.1821810156106948
5.533770263671875,-0.6658624214854091,-0.8827955189481377,1.7251748563557865,-0.2432552725076675,0.0304664336144924,-0.2068759799003601
5.54379736328125,-0.7524877618193626,-0.80378496446684,1.708151240840554,-0.2359625399112701,-0.0014018258079886,-0.2083121836185455
5.5538251953125,-0.7629267382472753,-0.8241936923757195,1.5724696817189454,-0.1956982016563415,-0.0311562567949295,-0.1827365159988403
5.563852294921875,-0.7611526412468403,-0.7897040513399988,1.4104711935579777,-0.1357562839984893,-0.056958869099617,-0.1456654220819473
5.57388037109375,-0.6948876596353948,-0.6334886766251177,1.31652625092566,-0.05444011464715,-0.089335985481739,-0.1033019870519638
5.5839072265625,-0.5615511292699724,-0.4183024958949536,1.2494026797235012,0.018750425428152,-0.1442403644323349,-0.0595170296728611
5.593935302734375,-0.3706313747901469,-0.2000665722053498,1.2131354345560073,0.0775668695569038,-0.1692708879709243,-0.0056538018397986
5.60396240234375,-0.1825898426277563,-0.0584141950458288,1.0112468345552683,0.1176729351282119,-0.1766055226325988,0.0545879825949668
5.613990234375,-0.0323733430014923,-0.0679255352348089,0.8514122464299202,0.1436299681663513,-0.1839193552732467,0.1165738552808761
5.624017333984375,0.0631503932548686,-0.1587253117091953,0.6845218945741653,0.1509620696306228,-0.176709309220314,0.1660633534193039
5.634045166015625,0.0615594525353051,-0.3018313948083669,0.5783961002826691,0.1457585096359253,-0.1525576412677765,0.178027868270874
5.644072265625,0.0042307329049333,-0.4405146930292248,0.4711480239629745,0.1345258951187133,-0.122956559062004,0.1628909707069397
5.6541005859375,-0.0443895238845609,-0.5721981224253774,0.3664057929843664,0.1272900998592376,-0.0923539102077484,0.1238508895039558
5.664127197265625,-0.0295730812910944,-0.6418754697635769,0.345225642311573,0.1021936014294624,-0.0528141520917415,0.0686136931180954
5.674155517578125,-0.0793768305104225,-0.6407081795498728,0.4050292458891868,0.0539648234844207,-0.0127487601712346,-0.0037984540686011
5.684182373046875,-0.1130014704809524,-0.6347535089291632,0.4954378310889005,0.0026496050413697,0.0473212376236915,-0.0732375830411911
5.694210205078125,-0.062036641592998,-0.5632582985140383,0.5966366903722286,-0.0335523411631584,0.1000939086079597,-0.123050145804882
5.7042373046875,0.0187239166270941,-0.4117107694797217,0.716826081329584,-0.0519165508449077,0.1346874386072158,-0.1585735976696014
5.714265380859375,0.0421720304981805,-0.1959899704162031,0.8679542159080504,-0.0506627336144447,0.1483931392431259,-0.184329017996788
5.7242919921875,0.0595107763771899,0.0525659804742783,1.0255793112903833,-0.037965077906847,0.1474072337150573,-0.1951746195554733
5.7343203125,0.0644033159254118,0.2623277250029146,1.1628402485579252,-0.0201048571616411,0.1369562000036239,-0.1886038035154342
5.744347412109375,0.0789710809874348,0.3889456877030432,1.2278121946841478,-0.0052525270730257,0.1230423673987388,-0.1777988672256469
5.7543740234375,0.0607118775289505,0.4934959032408892,1.2765449536710978,0.0061330199241638,0.1041032969951629,-0.1568323373794555
5.76440234375,0.0271954289069399,0.5475182930685579,1.264118018296361,0.0123665891587734,0.0870948210358619,-0.141447976231575
5.77442919921875,-0.0481977570611052,0.533426347091049,1.1715168914884329,0.0215374510735273,0.0797737911343574,-0.1299508363008499
5.78445751953125,-0.1364905191506259,0.5107631182536483,1.0724258181393145,0.0314863659441471,0.079915814101696,-0.1233275905251503
5.794484130859375,-0.2055546847602352,0.5224824168156832,0.96534549960196,0.0383943393826484,0.0863137915730476,-0.1223584711551666
5.80451220703125,-0.2836270450759678,0.5064967660460621,0.8781880251526832,0.0353692024946212,0.0958743914961814,-0.1275008171796798
5.814539306640625,-0.3660129577418789,0.4693925585977733,0.8211866195142269,0.0243301335722208,0.1037573516368866,-0.140191838145256
5.8245673828125,-0.4308357411883771,0.4318540513854473,0.7503057416051626,0.0106708323583006,0.1004882007837295,-0.1574384272098541
5.83459423828125,-0.4678680889768525,0.4093509084805846,0.680609689566493,-0.0040386049076914,0.1015364229679107,-0.1774379611015319
5.844622314453125,-0.5028619897402823,0.4246612172719091,0.5987725333571434,-0.0232520103454589,0.1175639033317565,-0.203015387058258
5.8546494140625,-0.5240506525130942,0.4557787515260278,0.5036263982415199,-0.038314051926136,0.1426663249731063,-0.2303442060947418
5.864677490234375,-0.563207627772726,0.5021297299429774,0.4813473464161157,-0.0560884959995746,0.1687620282173156,-0.261315256357193
5.874704345703125,-0.5682175283566117,0.5602928728371859,0.5524029963701963,-0.0737516433000564,0.1813763678073883,-0.2888635396957397
5.884732421875,-0.5784029684148728,0.6572728723164647,0.6193623169213534,-0.0934451669454574,0.1757964342832565,-0.3120565414428711
5.894759521484375,-0.542738730641827,0.7747589225992559,0.6450918014615774,-0.1083018779754638,0.159073919057846,-0.3266328275203705
5.904787109375,-0.5345907146953046,0.8573206667561084,0.6271043093502521,-0.1200617775321006,0.1477465182542801,-0.3357294797897339
5.914814453125,-0.5424939255679025,0.9069459176033736,0.5538029262959957,-0.1194002479314804,0.1371958702802658,-0.3365814089775085
5.924842529296875,-0.4918055390011518,0.9521724951002746,0.4650508761316537,-0.1193528547883033,0.12241131067276,-0.3243952989578247
5.934869384765625,-0.5032761234991252,0.9532636513378472,0.3622375673890113,-0.1155301481485366,0.1037039384245872,-0.3274054527282715
5.9448974609375,-0.4891867348048835,0.9196548117246478,0.2450853521704673,-0.1086407452821731,0.0818410143256187,-0.318015456199646
5.954924560546875,-0.4170073049852624,0.9632485273227096,0.0803740979194641,-0.1070937141776084,0.0554818473756313,-0.2927846610546112
5.964952392578125,-0.3240881252041086,0.9555833264570682,-0.0916962869226932,-0.1077608168125152,0.0362151674926281,-0.2582204043865204
5.9749794921875,-0.322472177907452,0.911092442823574,-0.2907370962768792,-0.1131403967738151,0.0202343352138996,-0.2339241206645965
5.98500732421875,-0.3175176973052322,0.846719266308099,-0.4586369174361229,-0.1273408085107803,0.0183008443564176,-0.2179804146289825
5.99503466796875,-0.2929895331124775,0.7459433086119591,-0.6275906315624713,-0.1402704566717147,0.0376100949943065,-0.2034318298101425
6.0050625,-0.2503055710367858,0.6508438621822744,-0.8207873910635709,-0.1489077806472778,0.0801347643136978,-0.1933903098106384
6.01508935546875,-0.2533929243265651,0.5841906119056046,-0.968836848849058,-0.1451372802257537,0.1444463729858398,-0.1890304535627365
6.02511767578125,-0.2473666315080598,0.5611086461994796,-1.0565133787363767,-0.132876455783844,0.195735827088356,-0.197074607014656
6.03514453125,-0.2198938652307726,0.6030194502118975,-1.026055112108588,-0.1015859097242355,0.19918754696846,-0.2075075358152389
6.0451728515625,-0.1371543990199919,0.6467015747457743,-0.995941128873825,-0.0590552575886249,0.161637008190155,-0.2126459926366806
6.055199462890625,0.0186406131246592,0.6537858339183032,-1.0634504845231771,-0.0144302640110254,0.0867209509015083,-0.1995088905096054
6.0652275390625,0.1313481695597991,0.595755523623526,-1.1832558445990085,0.0281977988779544,-0.0101442672312259,-0.1822312772274017
6.075254638671875,0.2338770718704909,0.4890845896046608,-1.4753420173972844,0.0681180506944656,-0.1056390926241874,-0.1610373109579086
6.085282470703125,0.4101268247565254,0.5112975173912943,-1.7531681941747663,0.081587053835392,-0.1763375252485275,-0.1213103681802749
6.095309326171875,0.5009797196576371,0.4012446858491748,-2.029828249782324,0.0711115077137947,-0.1987669318914413,-0.0746488571166992
6.105336669921875,0.4272794004136696,0.0777737061627209,-2.285692185598612,0.0361734926700592,-0.1800403892993927,-0.0461168177425861
6.115364501953125,0.2487446235966868,-0.348153147130832,-2.256459661373496,-0.0193448923528194,-0.1089379861950874,-0.041265070438385
6.125391357421875,0.1683022279476747,-0.6678370825592428,-2.2706705575555564,-0.0747308656573295,0.0218811631202697,-0.0634941607713699
6.135419677734375,0.0009114340228028,-0.9565517330978064,-2.2108576016277075,-0.1103618368506431,0.1788726449012756,-0.1082515120506286
6.1454462890625,-0.0692717530788388,-1.1335791558254509,-2.008773186793923,-0.1322316974401474,0.3188681602478027,-0.1704707145690918
6.155474609375,-0.1162124410172458,-1.1948059240739792,-1.4945570054769517,-0.1493150740861892,0.4092696905136108,-0.2375741153955459
6.16550146484375,-0.1640679148461669,-1.185634848690033,-0.8041092279851436,-0.158342957496643,0.4194952249526977,-0.3032438158988952
6.175529541015625,-0.2279936581213958,-1.112198879470676,-0.1230541327387094,-0.1689532548189163,0.3672575950622558,-0.3640091717243194
6.185556396484375,-0.2613416731076315,-1.0070423686027523,0.5162450567960739,-0.193072497844696,0.2812974750995636,-0.4112265110015869
6.19558447265625,-0.2480289496080018,-0.9136663118995726,0.9830126737177372,-0.2159897983074188,0.1740216314792633,-0.4362953901290893
6.205611572265625,-0.1555590296979993,-0.8392813713923096,1.1831874555379152,-0.2195313423871994,0.0692379474639892,-0.4260973632335663
6.2156396484375,-0.0671671454824041,-0.7188182780601083,1.1561159087389707,-0.1941037476062774,0.0098630394786596,-0.3885249495506286
6.22566650390625,-0.0491375860613305,-0.6883071122013033,1.0586059671014547,-0.1537379771471023,-0.0239395145326852,-0.3385449349880218
6.235694580078125,0.0559066235385369,-0.6384704836256802,1.0040770890563726,-0.0992883294820785,-0.0326674915850162,-0.2644014656543731
6.2457216796875,0.1542575003790669,-0.6912468189150095,0.9594593641728162,-0.0395390875637531,-0.0337945781648159,-0.1895869970321655
6.255749267578125,0.2035475461889058,-0.752414404322207,0.9313830242455003,0.0201679188758134,-0.0430820845067501,-0.1242873445153236
6.265776611328125,0.2464071022935211,-0.8268870231129228,0.9267407513976096,0.0781984999775886,-0.0793681889772415,-0.0730565264821052
6.275804443359375,0.3205790576372295,-0.9172625828258693,0.9068038787841796,0.1176044940948486,-0.1309613436460495,-0.0371547192335128
6.285831787109375,0.3721597534012049,-1.04564331741482,0.8689017258912325,0.1392887532711029,-0.1960652321577072,-0.0120741315186023
6.295859375,0.4801582462294027,-1.197462356866896,0.7422989607602357,0.1466246992349624,-0.2473553270101547,0.0144261848181486
6.305886474609375,0.5843733845939859,-1.284992464020848,0.5092383929044008,0.1416739821434021,-0.2702526748180389,0.0455192513763904
6.31591455078125,0.6423246748358011,-1.4275253503419458,0.2307014375090599,0.1390483677387237,-0.2539378702640533,0.067378744482994
6.32594140625,0.5991058934973552,-1.5581825054302811,-0.0939560485482215,0.1496133357286453,-0.2035006880760193,0.0721393600106239
6.335969482421875,0.4716570329310372,-1.6834245036020874,-0.349628845706582,0.1697763949632644,-0.1305913180112838,0.0541164129972457
6.34599658203125,0.3483658765660599,-1.7806567973420022,-0.424490317684412,0.1813440173864364,-0.0415428951382637,0.0139304930344223
6.3560244140625,0.2047534513799473,-1.832363311442733,-0.2858937478989362,0.1802630275487899,0.036950048059225,-0.0476628318428993
6.366051513671875,0.1203524634314235,-1.801310001531243,0.0071539634078741,0.1628244370222091,0.0882921814918518,-0.1113621070981025
6.37607958984375,0.0972566975288093,-1.6417989462718368,0.3779804954439401,0.1308899372816085,0.1182620599865913,-0.1605885028839111
6.3861064453125,0.135417227363307,-1.4208441190123555,0.7381921099632978,0.0946762263774871,0.1175415217876434,-0.185276061296463
6.396134765625,0.2422166466000489,-1.1494227677758782,1.0537088427096604,0.0679820328950882,0.0822080373764038,-0.1833194345235824
6.406161376953125,0.329273674615845,-0.8931577768780291,1.2344289824754,0.0524830631911754,0.0312780104577541,-0.159257635474205
6.416189697265625,0.3542108032019809,-0.6723129858642816,1.2431424502849575,0.0564059019088745,-0.0243109483271837,-0.1209068000316619
6.426216552734375,0.3382684435848146,-0.5166683237094432,1.189661035466194,0.0601145960390567,-0.0559686683118343,-0.0829843580722808
6.436243408203125,0.3054512110070325,-0.4062666056644171,1.1411918958514928,0.0733502358198165,-0.0673044100403785,-0.0431898050010204
6.446271484375,0.261288134555798,-0.3869674464326351,1.0405220288783312,0.0894231647253036,-0.0707850530743599,-0.0097075290977954
6.456298583984375,0.1993936961787752,-0.3605868045073002,0.9667577044874428,0.094574250280857,-0.0531163029372692,0.0172697603702545
6.466326416015625,0.1397066316529177,-0.3269574335627258,0.9069482556909322,0.0977682247757911,-0.0327762998640537,0.0432918481528759
6.476353515625,0.1488363155805505,-0.3303855083152651,0.8873924913495779,0.0943718925118446,-0.0252438131719827,0.0653028786182403
6.486381591796875,0.1174020161279942,-0.2476891049280762,0.9788993931800126,0.0787811204791069,-0.0242861416190862,0.0812798514962196
6.496408203125,0.0847119627269916,-0.1104264140948653,0.9806360077142716,0.0747072845697403,-0.0480724312365055,0.1034964695572853
6.5064365234375,0.0351286878579296,-0.0157575411021709,0.8419757250428199,0.0702026635408401,-0.0418340489268302,0.1360424607992172
6.51646337890625,0.0464125815442297,0.114996571554616,0.7603297074913978,0.0544711127877235,-0.1041032820940017,0.1932250559329986
6.52649169921875,0.3720138421244919,0.336224151340872,0.7385071672618388,0.042470708489418,-0.1616368442773819,0.2674230933189392
6.536518310546875,0.4271144556429236,0.4095363480500876,0.57134442820549,0.0295682270079851,-0.1760922223329544,0.3324918448925018
6.546546630859375,0.2509894981803372,0.3695867611080408,0.2648655729174614,0.0168925523757934,-0.1343735009431839,0.4001687467098236
6.55657373046875,0.3391435824515297,0.315162293285504,-0.054184010130167,-0.0025402684696018,-0.1235323026776313,0.4984723925590515
6.5666015625,0.7004196478646249,0.3737104899745434,-0.0818687203913927,0.0010102968662977,-0.14199298620224,0.5822057723999023
6.576628662109375,0.4606532987598329,0.2847545878011733,-0.2605816119879484,0.0121393809095025,-0.1005201190710067,0.6087154150009155
6.586656494140625,0.1537520898738875,0.1267773179803043,-0.3242623492598533,0.0163756888359785,-0.0896742865443229,0.6144840121269226
6.59668359375,0.202505489790067,-0.066220119556412,-0.274264100381732,-0.0032211821526288,-0.0362243726849556,0.6272274851799011
6.606711669921875,0.1721308645914308,-0.2109488354213535,-0.268463889670372,-0.0472063533961772,-0.1112685203552246,0.6601489782333374
6.616738525390625,0.4072250389004126,-0.2347048279315233,-0.0581318709731102,-0.1001947298645973,-0.1375360637903213,0.6551890969276428
6.6267666015625,0.0454223740636371,-0.4380016142297536,-0.1389548817038536,-0.1704326570034027,-0.1385113894939422,0.6234164237976074
6.636793701171875,-0.0400543990233913,-0.5233672368261962,-0.1973404351770877,-0.2230226248502731,-0.1340308934450149,0.5967038869857788
6.6468212890625,-0.1225057964072562,-0.7333847096815704,-0.4432762666970491,-0.2704283595085144,-0.0335734225809574,0.5946525931358337
6.6568486328125,-0.0128017691696528,-0.7594374348267913,-0.4522153599560261,-0.3312091529369354,0.0322852209210395,0.6111956238746643
6.66687646484375,0.0400422701941803,-0.7042603220060467,-0.3239952227562666,-0.4016009569168091,0.1265185922384262,0.6275554299354553
6.6769033203125,-0.1269233845206443,-0.6937694692604244,-0.1556353828698396,-0.4100365042686462,0.2324756532907486,0.6195326447486877
6.686931396484375,0.0705991200919263,-0.6702025695815682,-0.2159942822426557,-0.2820812165737152,0.208383709192276,0.5776441097259521
6.69695849609375,0.2930913312528282,-0.3524615849144756,-0.2194412078261375,-0.0849186182022094,0.0970947295427322,0.5135743021965027
6.706986572265625,0.1234471506442874,-0.1855035746499896,-0.4379840055078268,0.0840178206562995,-0.0128894504159688,0.5010145306587219
6.717013427734375,0.1552719198523089,-0.2628301215671003,-0.1877677201896905,0.1555540561676025,-0.1020438224077224,0.5547505021095276
6.72704150390625,0.4578987393546849,-0.233695504758507,0.0082855977863073,0.1438126564025879,-0.1579426229000091,0.6493128538131714
6.737068603515625,0.4187652545684948,-0.1233016777589917,0.0732043524205684,0.0893896371126174,-0.2915121614933014,0.7286446690559387
6.7470966796875,0.3609031769800931,-0.0029375147566199,-0.1812391952037811,0.0229975152760744,-0.4552772343158722,0.824582040309906
6.757123291015625,0.4423506762847304,-0.0115418231032788,-0.7822428486138582,-0.008975064381957,-0.6214544773101807,0.9407315850257874
6.767151611328125,0.4214243177099153,-0.1920879214763641,-1.520692148208618,-0.0197936948388814,-0.724145770072937,1.0540120601654053
6.777178466796875,0.2141619887815788,-0.3292708250716328,-2.274278226658702,-0.0405160188674926,-0.667894721031189,1.1312708854675293
6.78720556640625,-0.032036366132088,-0.499994033088535,-2.8388632437318564,-0.0535844378173351,-0.4815876185894012,1.1798810958862305
6.7972333984375,-0.2171287661653012,-0.7017213050477207,-3.1159774728477,-0.0482037886977195,-0.2482723444700241,1.2020328044891355
6.807260498046875,-0.3941674409393221,-0.9432382972121238,-3.049038610562682,-0.006599482614547,0.0094516575336456,1.1901990175247192
6.817288818359375,-0.6556283199798315,-1.28543670065701,-2.622327109697461,0.0540308430790901,0.1628824919462204,1.1381691694259644
6.8273154296875,-0.8141814899925142,-1.5440519810080526,-1.8557512012928723,0.1259863674640655,0.2451575398445129,1.0491151809692385
