seconds_elapsed,ax,ay,az,gx,gy,gz
0.0729638671875,-0.0474593049850314,0.4193970861986279,0.094234865489602,0.030190335586667,-0.0679916143417358,-0.0046192584559321
0.0829921875,-0.0310214534685015,0.4290795451708137,0.1005260745882987,0.0229521207511425,-0.0184203721582889,-0.0265749860554933
0.09302001953125,0.0156524002272635,0.4284501612260937,0.1541559579670429,0.0122398221865296,0.0153330639004707,-0.0433584935963153
0.10304833984375,0.0311073051210492,0.427817416280508,0.1560024626165628,0.0045877615921199,0.0477607809007167,-0.0509136132895946
0.113076171875,-0.0261667799789458,0.4602313470207154,0.2296393612354993,-0.0013399021700024,0.0696202665567398,-0.0607260316610336
0.12310302734375,-0.1049147380013018,0.4451343156538903,0.2937257566988468,-0.0037959872279316,0.0756275877356529,-0.065111331641674
0.133131103515625,-0.1717915679007768,0.4062628793373704,0.3409165469408035,-0.0008734341245144,0.0717079490423202,-0.0717636421322822
0.1431591796875,-0.281687309185043,0.4064908428743481,0.4090869968473911,0.0046947691589593,0.071471981704235,-0.0849413499236106
0.153187255859375,-0.3770692258179187,0.4126211623229086,0.485317419090867,1.02689955383e-05,0.0616587623953819,-0.1017227247357368
0.163215087890625,-0.4034638232033699,0.4213347762629389,0.596208820348978,-0.0080485129728913,0.0403013303875923,-0.1171105206012725
0.1732421875,-0.4260484338466078,0.4737111524492502,0.6350058762550354,-0.0157074965536594,0.0179654024541378,-0.1235271394252777
0.18327001953125,-0.4681107020936906,0.5186269834965467,0.5874743097513914,-0.0096608009189367,0.0018463076557964,-0.123743750154972
0.19329833984375,-0.4918974550683051,0.5881580542318523,0.5399661241233349,0.0059056421741843,-0.0127773759886622,-0.1141297370195388
0.203326171875,-0.5261413777146489,0.6206212309412658,0.4798626608163118,0.0260775629431009,-0.0254541430622339,-0.0929535552859306
0.21335302734375,-0.5300076246887445,0.6277877615697681,0.4301023123472928,0.0473189391195774,-0.0347674861550331,-0.063759446144104
0.223381103515625,-0.5088920636847615,0.6370890392046421,0.3467582587063312,0.0700909569859504,-0.0372602976858615,-0.0303483456373214
0.2334091796875,-0.5814577528756112,0.593035962466523,0.264444717156887,0.0908854529261589,-0.0237910915166139,-0.0052810763008892
0.243437255859375,-0.6619193098828197,0.5359742780081928,0.2098842749297618,0.1078127473592758,-0.0027593998238444,0.0076883281581103
0.25346484375,-0.7030388173870742,0.4787997077599167,0.1966512838691473,0.1219855546951294,0.0202612318098545,0.0110814608633518
0.2634921875,-0.7654328758493065,0.4456261908240616,0.2692605930060148,0.1262130290269851,0.0370008572936058,0.0007117466302588
0.273520263671875,-0.8047931916613131,0.4451635417483747,0.3371680080622434,0.1272639036178589,0.038732711225748,-0.0134773086756467
0.28354833984375,-0.8257015396554023,0.4726628124400973,0.44148412258327,0.1181375235319137,0.0260869562625885,-0.0297707952558994
0.293576171875,-0.8113942704267799,0.5127640097472816,0.5546516520798206,0.0999966040253639,0.0110286455601453,-0.0427355952560901
0.30360400390625,-0.7561612627003341,0.5767158921107649,0.616330401879549,0.0849233791232109,-0.0024216501042246,-0.052194345742464
0.313631103515625,-0.6955027227938175,0.6688742435872554,0.6415560285508632,0.0732579380273819,-0.0069903023540973,-0.0529578737914562
0.3236591796875,-0.6257428848039358,0.7649632855761795,0.628372721850872,0.0734661221504211,-0.0141344871371984,-0.0442345738410949
0.333687255859375,-0.5835086209908128,0.836404646912217,0.5826414827674627,0.0960452035069465,-0.0216038543730974,-0.0303115658462047
0.343715087890625,-0.5276605501059443,0.9628237260393798,0.5570253954738378,0.1246308833360672,-0.031531237065792,-0.0128995915874838
0.3537431640625,-0.4707324288994073,1.0658985352624206,0.579638209298253,0.1473689526319503,-0.0435370318591594,0.0088778752833604
0.363770263671875,-0.4302231622479855,1.1181735699661075,0.5584849466323852,0.1581498235464096,-0.0510687008500099,0.0381915271282196
0.373798095703125,-0.4315774264011532,1.1049573108445851,0.5040484230458736,0.171322613954544,-0.0484787747263908,0.0689582228660583
0.383825927734375,-0.4039090096876025,1.1375277473207563,0.4478238469988107,0.1870206892490387,-0.0431475564837455,0.0921689718961715
0.39385400390625,-0.3852957868933677,1.2050450670808552,0.4076116635978221,0.2069219499826431,-0.0460384152829647,0.1074675023555755
0.403882080078125,-0.3726619307696819,1.2255704801719636,0.3675187226623296,0.2212276309728622,-0.048515897244215,0.1152248606085777
0.4139091796875,-0.3590773497924208,1.252383887491375,0.3533113336116075,0.2172145098447799,-0.0482525080442428,0.124590665102005
0.423937255859375,-0.3641237464617937,1.2216893278896808,0.2909621372044086,0.2046965807676315,-0.0423486605286598,0.1352056711912155
0.433965087890625,-0.3796775816854089,1.1990171120282265,0.2275046872943639,0.1867599338293075,-0.0150307500734925,0.1385284960269928
0.4439931640625,-0.3777060624167322,1.2084165893405676,0.1975906105458736,0.1754041165113449,0.0062265177257359,0.1305719763040542
0.45402099609375,-0.3563739360526204,1.2113400025065988,0.1696422809123992,0.1706253439188003,0.027032995596528,0.1167927682399749
0.464048095703125,-0.4030831533227115,1.2204165314748885,0.1515606807768345,0.1684457957744598,0.0525482073426246,0.1037870720028877
0.474076171875,-0.370255381084606,1.2464847464501858,0.1983639330059289,0.1610603183507919,0.0715075135231018,0.0903974995017051
0.48410400390625,-0.3401100528635084,1.2912912719041107,0.316377733489871,0.1467490345239639,0.0804380550980568,0.0756196901202201
0.494132080078125,-0.3284966258287429,1.3312833828136323,0.4336860160529613,0.1284632384777069,0.0909711271524429,0.0540640577673912
0.50416015625,-0.3369346376977861,1.3295016139633953,0.4568073639214038,0.1204232946038246,0.1003072336316108,0.0379756912589073
0.514187255859375,-0.3595781389214098,1.384330497868359,0.4485381327480077,0.1257370859384536,0.1109063476324081,0.0219477228820323
0.524215087890625,-0.3961212053555995,1.479759541578591,0.4964975692749023,0.1336812227964401,0.1193164214491844,0.0048197112046182
0.5342431640625,-0.3892852218557149,1.5347745957054195,0.611017097902298,0.127566859126091,0.1075662896037101,-0.0111781628802418
0.544271240234375,-0.382425930545479,1.558100672365725,0.7288479430347681,0.1053430959582328,0.0811659395694732,-0.0265253502875566
0.55429931640625,-0.3820914378941059,1.5676488374337554,0.7705395513385533,0.0687683075666427,0.0566728413105011,-0.0475470125675201
0.564326171875,-0.3582891950894147,1.5826856630459427,0.7187076572924852,0.0320891551673412,0.0384888239204883,-0.0607917234301567
0.57435400390625,-0.3806091634470969,1.6025161526754497,0.5907043777137995,0.0092581398785114,0.0363092944025993,-0.0714547559618949
0.584382080078125,-0.3973962667927145,1.6250259445168076,0.443595415648818,-0.0027460583951324,0.0469915010035038,-0.0810099095106124
0.59441015625,-0.4571274627212435,1.6595752798505126,0.3390069139271974,-0.0047793816775083,0.0611627139151096,-0.087437979876995
0.604437255859375,-0.4908576636917889,1.6738751694902776,0.291375394180417,-0.0083887567743659,0.0789575800299644,-0.0919084548950195
0.614465087890625,-0.4985101512063294,1.714744355495274,0.2867401355952024,-0.013982193544507,0.0914528593420982,-0.0935167372226715
0.6244931640625,-0.503038296155259,1.7329174333065749,0.2815004813760519,-0.025169325992465,0.1002546548843383,-0.0926524475216865
0.634521240234375,-0.5157875953521579,1.7648416808336973,0.2657505390584468,-0.0364206470549106,0.1102537661790847,-0.0930031836032867
0.644549072265625,-0.5087764379484578,1.779676554132998,0.256374807947874,-0.045866884291172,0.1112056896090507,-0.0838303714990615
0.654576171875,-0.4552434390729293,1.812246990609169,0.236741886717081,-0.048015259206295,0.1063161194324493,-0.0667155683040618
0.66460400390625,-0.5414773689365014,1.8043123982176184,0.1689443617761135,-0.0413871854543685,0.116237036883831,-0.0538827739655971
0.67463232421875,-0.5822832073817029,1.7662571005895733,0.1056155066817998,-0.0310794226825237,0.1268673092126846,-0.0430666096508502
0.68466015625,-0.6186121561411768,1.721454666788876,0.0287578924506902,-0.0240525119006633,0.1310187131166458,-0.0329844616353511
0.694688232421875,-0.6704639239314943,1.6830407649815082,0.0045966801404953,-0.0284480601549148,0.1390207111835479,-0.0321721993386745
0.704715087890625,-0.6950033949695528,1.6448399214029312,-0.0451782813757658,-0.0427236035466194,0.1568083316087722,-0.0378684625029563
0.714742919921875,-0.693366952874139,1.6068799008429049,-0.1114630636662244,-0.0624661482870578,0.1797525286674499,-0.041361466050148
0.724771240234375,-0.6607556729309261,1.5338038509771228,-0.1710889725893735,-0.0772663578391075,0.1964748948812484,-0.0413502007722854
0.734799072265625,-0.6125390102399513,1.3885761726140975,-0.2234586267739534,-0.0751084014773368,0.1866680681705474,-0.0319843962788581
0.7448271484375,-0.5622569029191509,1.2477996284410358,-0.3411000868141651,-0.0472376495599746,0.1486939936876297,-0.0277430322021245
0.75485400390625,-0.5229082044797018,1.120360120224953,-0.4604869292169809,-0.010817059315741,0.0989030078053474,-0.0282271951436996
0.764882080078125,-0.4194158639643341,1.0143768031440674,-0.6052864452958107,0.0300882160663604,0.0233509577810764,-0.0241386871784925
0.77491015625,-0.3027660818425938,0.8646664264090359,-0.8480261111229658,0.0605651661753654,-0.0685933455824852,-0.0168815739452838
0.784938232421875,-0.218879226561822,0.6854495308130979,-1.1543337014973163,0.0660729706287384,-0.1560747474431991,-0.0166393518447875
0.794966064453125,-0.25711090367008,0.3744257255718112,-1.3571446770399809,0.0367672741413116,-0.2389083802700042,-0.0411769151687622
0.8049931640625,-0.2517264706853777,0.10112053335011,-1.5563298633009195,-0.0260318573564291,-0.264920026063919,-0.083704262971878
0.815021240234375,-0.2593458961805328,-0.0911927943799644,-1.818628800600767,-0.0901258960366249,-0.2291452437639236,-0.1418083161115646
0.825049072265625,-0.2335578133208677,-0.2279194055750966,-2.027817494481802,-0.1310065388679504,-0.1427641212940216,-0.1971687227487564
0.8350771484375,-0.1356069595154374,-0.2861675233390182,-2.1454221296429634,-0.1374058425426483,-0.0289225056767463,-0.2336556315422058
0.84510498046875,-0.0028427491452544,-0.2316141684398055,-2.175652432733774,-0.1050062701106071,0.0816291868686676,-0.2497483640909195
0.855132080078125,0.1810376082170754,-0.134457935610786,-2.017776577460766,-0.0521292090415954,0.1656969338655471,-0.2401711046695709
0.86516015625,0.25364658856038,-0.0749357793230563,-1.7539666510760783,0.0115232085809111,0.2266605794429779,-0.2288379967212677
0.87518798828125,0.1797232376828789,-0.0734871879499405,-1.362892280781269,0.0577740594744682,0.2523891031742096,-0.2232938259840011
0.885216064453125,0.1999270541368052,-0.0666848144587129,-0.9114145874500276,0.0741093829274177,0.2473057359457016,-0.2229367196559906
0.895243896484375,0.1505715236090123,-0.1163848841078579,-0.4882002810508012,0.05785958096385,0.2216805219650268,-0.2246842831373214
0.905271240234375,0.1222981632722541,-0.1983182672332972,-0.0934223800629377,0.0165693704038858,0.1789749711751938,-0.2309616804122924
0.91529931640625,0.0440978291952982,-0.2967727962445468,0.194480954092741,-0.0413245558738708,0.1451661437749862,-0.2521266341209411
0.9253271484375,-0.0586202024793252,-0.4455486686084419,0.4219049773663282,-0.0981741771101951,0.1222913339734077,-0.2830716967582702
0.93535498046875,-0.1006998967852443,-0.537010269992426,0.5598012899279594,-0.1382558196783065,0.1161852404475212,-0.3186139762401581
0.94538330078125,-0.0721023825280368,-0.5420659459467977,0.7174626256674528,-0.1638311445713043,0.1386266201734542,-0.3468354642391205
0.95541015625,-0.0006154650172218,-0.4965951844304799,0.7803916677892208,-0.1650332957506179,0.1834758520126342,-0.3549580872058868
0.96543798828125,0.1070997538901865,-0.4403504423782229,0.8148439724892378,-0.1380671113729477,0.233972892165184,-0.3433131873607635
0.975466064453125,0.2010632185598835,-0.3861217893887311,0.9112684569776056,-0.0888359025120735,0.2855745553970337,-0.3172807991504669
0.985494140625,0.2402767097797244,-0.3348382499404251,1.1110714828759432,-0.0298118684440851,0.3150786757469177,-0.2882425189018249
0.995521240234375,0.2542509659280069,-0.3243409674540162,1.4000596896588802,0.0206198785454034,0.3017365038394928,-0.2673417627811432
1.005549072265625,0.2959402361442335,-0.3208209766343236,1.7931822246551512,0.0451252646744251,0.2373836040496826,-0.2598902285099029
1.0155771484375,0.3528294683787971,-0.2999887626163661,2.078241859817505,0.0462264828383922,0.129010796546936,-0.262044221162796
1.02560498046875,0.409371147551015,-0.284953398308903,2.1619851419091223,0.0397761017084121,-0.0014420789666473,-0.2672285139560699
1.035633056640625,0.4349403634956106,-0.2864128764022141,2.023874894335866,0.0302193481475114,-0.1161489486694336,-0.266135573387146
1.045659912109375,0.4334660166267305,-0.3297317936468869,1.7139426837235687,0.0296198781579732,-0.2007472962141037,-0.2632309198379516
1.05568798828125,0.4216046792455017,-0.3767954503778368,1.3131757714539765,0.0436233095824718,-0.2417610436677932,-0.2571503818035126
1.065716064453125,0.458322627322562,-0.3694110392149538,0.92549045907557,0.0750928819179534,-0.2494959533214569,-0.2486662119626999
1.075744140625,0.4883269396377727,-0.3310924875408411,0.5824801547259092,0.1093041151762008,-0.2301619350910186,-0.2335421293973922
1.085772216796875,0.5510225383298472,-0.299610284692794,0.2971422871440649,0.1450942009687423,-0.184157446026802,-0.2044842541217804
1.095799072265625,0.610561755350232,-0.2894790590398013,0.1119236669152975,0.1833720803260803,-0.1283061653375625,-0.1689472943544387
1.105826904296875,0.6210392371576279,-0.247162596835941,0.0486573556631803,0.2142121642827987,-0.0731030255556106,-0.1371348053216934
1.115855224609375,0.5995067293832078,-0.2365111467011272,0.0381353771269321,0.23643758893013,-0.0315020494163036,-0.1214290857315063
1.125883056640625,0.5772517525531351,-0.2347811811033636,0.1313549280941486,0.2425519376993179,-0.0086708823218941,-0.1195734739303588
1.1359111328125,0.5689753244539723,-0.2330769344687461,0.2706213599652052,0.2278017550706863,-0.0059856167063117,-0.1313366591930389
1.14593798828125,0.5483624157425016,-0.2313816748581826,0.4039607398748397,0.1980049759149551,-0.0198382027447223,-0.1485525816679
1.155966064453125,0.514166022032313,-0.2001945094339549,0.4854600424319505,0.1565451472997665,-0.0361945405602455,-0.1732760369777679
1.165994140625,0.4737517767205834,-0.1730296583283692,0.4832242462038993,0.1192821562290191,-0.0518827885389328,-0.1941529065370559
1.176022216796875,0.4839570539904758,-0.098100162615627,0.4036556194484234,0.0929008871316909,-0.0520324558019638,-0.2061110287904739
1.18605029296875,0.5045742735508829,0.0228044639389961,0.3200818487048149,0.0790858566761016,-0.0334075577557086,-0.203500211238861
1.196076904296875,0.5311345098268241,0.1382948834251612,0.2250298216134309,0.0802944004535675,-0.0128913652151823,-0.1873982101678848
1.206105224609375,0.5707823008107021,0.2620329798400402,0.1328255851686,0.0974002331495285,0.0196003038436174,-0.154612585902214
1.216133056640625,0.5138655047157779,0.3590688011597842,0.0684627108514309,0.1278819739818573,0.0506386458873748,-0.1176300719380378
1.2261611328125,0.473660152914375,0.4427290811430662,0.119343587782979,0.1549032628536224,0.089941456913948,-0.0790124684572219
1.23618896484375,0.486206367287226,0.550494678530842,0.2132774244993925,0.1711842268705368,0.1223393455147743,-0.0302987191826105
1.24621630859375,0.4895752957310527,0.593973097186163,0.2790782226651906,0.1793205440044403,0.1449813097715377,0.018563337624073
1.256244140625,0.5162026058938354,0.6476251923967152,0.3845850082755088,0.1783809661865234,0.1563796401023864,0.0664365887641906
1.266272216796875,0.4852662734255194,0.658845017004013,0.4611602984338998,0.1742132753133773,0.15825916826725,0.1038355678319931
1.276300048828125,0.440073561665602,0.6623088206570595,0.5141454541683197,0.1688081324100494,0.1466744095087051,0.1307761073112487
1.286328125,0.4608498077126219,0.6828088070459664,0.531530304211378,0.1656663566827774,0.1246908828616142,0.1557318866252899
1.296355224609375,0.4998165210971608,0.6881481222473085,0.5251438180446625,0.1628133058547973,0.1085667759180069,0.1732248663902282
1.306383056640625,0.4510368176959455,0.6529219105653464,0.5026549228608608,0.1572286635637283,0.1053994819521904,0.1840495467185974
1.316411376953125,0.4391343811193481,0.6472469336688518,0.4558411492377519,0.1477944105863571,0.1037192940711975,0.1865981966257095
1.32643896484375,0.4638520948011428,0.6364578286290168,0.4435059837996959,0.1346864998340606,0.1037609055638313,0.1842455118894577
1.33646630859375,0.4523885976310819,0.657768546878919,0.4120815024882555,0.1201389729976654,0.1063399091362953,0.1818902194499969
1.346494140625,0.4288477091763168,0.694317312401533,0.3756131817907094,0.1027713268995285,0.0953990295529365,0.1744829416275024
1.35652197265625,0.3901661694087088,0.7183376549363136,0.3333095790684223,0.0823699161410331,0.0730990469455719,0.1723540127277374
1.366550048828125,0.3758120653636753,0.7211692251004278,0.3239005302101373,0.0586070269346237,0.0486133582890033,0.1708882302045822
1.376577880859375,0.3759427060060203,0.7228413960963487,0.2870680523753166,0.0298680551350116,0.0221268907189369,0.1706306934356689
1.386605224609375,0.3631223143342882,0.7072368535988033,0.222068049198389,0.0037974396254867,-0.0025788974016904,0.1710361391305923
1.396633056640625,0.3570627220343798,0.6880992416042834,0.1030430258452892,-0.0174934677779674,-0.0163112208247184,0.1747214347124099
1.4066611328125,0.3697907592475414,0.674270549672842,-0.0579705429315567,-0.0231687594205141,-0.0295949503779411,0.1828347891569137
1.41668896484375,0.3496064877443015,0.6948445511460304,-0.1588707115292549,-0.0228499788790941,-0.0427389852702617,0.1896546185016632
1.426717041015625,0.328381255820766,0.705296679316461,-0.1921709235846996,-0.0205749664455652,-0.0576676204800605,0.1961740553379058
1.436744140625,0.3066455536244437,0.6844527017954737,-0.2298720009475946,-0.0278826802968978,-0.0701823458075523,0.1976744830608368
1.446772216796875,0.2536069141371175,0.6426159859325736,-0.2887456301987171,-0.0446574799716472,-0.076774775981903,0.205829381942749
1.456800048828125,0.2977112278721295,0.6342791694156825,-0.3782540516883134,-0.0640788525342941,-0.0790267437696456,0.2169350236654281
1.466827880859375,0.2830331160371191,0.605707995176129,-0.4878939915806055,-0.0831358507275581,-0.0736231952905654,0.2234208732843399
1.476856201171875,0.2553332812719978,0.5576163836369291,-0.5809966381698847,-0.0972245037555694,-0.0663783326745033,0.2260041385889053
1.486883056640625,0.2212153596254996,0.4901106081841513,-0.6614274347126483,-0.113848827779293,-0.0486702173948287,0.2204610556364059
1.4969111328125,0.1687859563440084,0.4149312658961862,-0.6738245594710112,-0.1353312283754348,-0.0331277400255203,0.2058392465114593
1.50693896484375,0.171784005648829,0.3704084527544677,-0.6697042646706104,-0.1541962176561355,-0.0316261537373065,0.1983875334262848
1.51696728515625,0.1609300552118569,0.3906139131762087,-0.6844277865499258,-0.1698587983846664,-0.0513852089643478,0.1878557950258255
1.5269951171875,0.1320533586870879,0.4504283669413998,-0.7297364163070916,-0.1854008138179779,-0.0886043608188629,0.1793980747461319
1.53702197265625,0.0905697671107947,0.414428321342729,-0.7470218976289034,-0.2039196342229843,-0.1353031545877456,0.1721465438604354
1.547050048828125,0.1759681959982961,0.4057350195383652,-0.778296741336584,-0.2233800292015075,-0.2063232958316803,0.1989908218383789
1.557078125,0.3037288989927619,0.367143167348206,-0.8613321674197911,-0.2324339747428894,-0.2837198078632355,0.2411156296730041
1.567106201171875,0.344208464625664,0.3363882558614015,-1.055084222716093,-0.2258815467357635,-0.3631745874881744,0.284097284078598
1.577134033203125,0.3636416985658928,0.3396720998376608,-1.3204004620105028,-0.2055363357067108,-0.4037614464759826,0.316333532333374
1.5871611328125,0.3578394420279189,0.2947108952786773,-1.6447218479812145,-0.1701337397098541,-0.3803209960460663,0.3567123115062713
1.59718896484375,0.2837448627693578,0.1192424654960632,-1.8769319364875556,-0.1347664296627044,-0.2800433933734894,0.3936743140220642
1.60721728515625,0.1444467205857858,-0.1106183564703911,-1.85370479015708,-0.1133214384317398,-0.1287227869033813,0.4226939678192138
1.6172451171875,-0.0265410201188176,-0.3614807576723396,-1.5968600266098976,-0.1004921942949295,0.0434788130223751,0.4313995540142059
1.6272724609375,-0.196373928232491,-0.5547196027494967,-1.2642816844254732,-0.0898706093430519,0.1931198984384536,0.4213480353355407
1.63730029296875,-0.3776532362509519,-0.7164433656223118,-0.7782868044644594,-0.0865712165832519,0.2977818548679352,0.3884201645851135
1.64732861328125,-0.50400626440458,-0.8014253226634115,-0.2194435459136962,-0.0916025340557098,0.3500831127166748,0.3463838100433349
1.6573564453125,-0.6163691264547407,-0.881171936334297,0.3682008597075939,-0.1054472476243972,0.3564491271972656,0.2773637473583221
1.667384521484375,-0.6928416868910193,-0.8934444117996841,0.8757493998289108,-0.1259210854768753,0.3180923163890838,0.1990983933210373
1.677411376953125,-0.7780259615711868,-0.8772137002278119,1.250848202356696,-0.1462969332933426,0.2545522153377533,0.110272116959095
1.687439453125,-0.8655341491542756,-0.8548616562314331,1.5229472336590288,-0.1690211594104766,0.1785280257463455,0.0179658886045217
1.697467529296875,-0.9024780514743178,-0.7399529821559786,1.6948808403789997,-0.1914236694574356,0.085771195590496,-0.0613031014800071
1.70749560546875,-0.8608851543046534,-0.5757962199825793,1.7367326076805591,-0.2098594754934311,-0.0029950411990284,-0.1187914907932281
1.717523681640625,-0.8427586921140551,-0.4116670764684677,1.6641741519480944,-0.2155445218086242,-0.0703929886221885,-0.1554525643587112
1.72755029296875,-0.8372850099433213,-0.2368757422298192,1.5127145934581756,-0.2044233232736587,-0.1142168119549751,-0.1673329621553421
1.73757861328125,-0.7445183173101395,-0.0753065853968262,1.3082874148905277,-0.1686197817325592,-0.1582915931940078,-0.1441141963005066
1.7476064453125,-0.6525999851346016,0.0936623993638902,1.1240928770124912,-0.1150504276156425,-0.2181579917669296,-0.0983731299638748
1.757634521484375,-0.5802513362279161,0.2358264523725956,1.008843280544877,-0.0563535504043102,-0.2659058272838592,-0.0417889431118965
1.767662353515625,-0.4963903460407629,0.3355751859128475,0.91640815795362,-0.0128912040963768,-0.310707539319992,0.017810808494687
1.777689453125,-0.3671612509941682,0.3741642250914126,0.7792173633128404,0.017680287361145,-0.3197636306285858,0.0796829685568809
1.787717529296875,-0.2959593975024298,0.3141726246610283,0.5699176102727651,0.0370879881083965,-0.2950294613838196,0.1332272589206695
1.797745361328125,-0.257669231672585,0.2139018400080501,0.3718582131713628,0.0610910579562187,-0.2385219633579254,0.1758543401956558
1.807773681640625,-0.2930479670351371,0.0577762624684721,0.171181327047944,0.0912875086069107,-0.1560895144939422,0.1979455649852752
1.81780126953125,-0.414193343543075,-0.1151918018657714,0.0403226580381393,0.1253557354211807,-0.0781257301568985,0.1912818104028701
1.82782861328125,-0.45519309712518,-0.2436529082145541,0.0661222852051258,0.1464402079582214,-0.0231427401304245,0.1650234907865524
1.8378564453125,-0.5207580772411078,-0.3363089800801128,0.2411088497549295,0.1405644714832306,0.0151114389300346,0.1153952181339263
1.847884765625,-0.5680313216021284,-0.4300855073429644,0.4891887075662612,0.1026815995573997,0.0311727970838546,0.0533145032823085
1.857912353515625,-0.5767885920207947,-0.4810138766780495,0.6977122155368327,0.0467719957232475,0.0393516309559345,-0.0038585041183978
1.8679404296875,-0.5273668643889948,-0.4490969356745481,0.8501210375756025,-0.0024089757353067,0.0348068624734878,-0.0609244145452976
1.877967529296875,-0.4718194569511338,-0.3438055463805795,0.8919868334025144,-0.0359685346484184,0.024854626506567,-0.1045555099844932
1.887995361328125,-0.3829850987982005,-0.2081074014503508,0.8594242879718541,-0.0379819944500923,0.0174954291433095,-0.1310616582632064
1.8980234375,-0.3589559884350746,-0.0957777110174298,0.7875947310358286,-0.0171488840132951,0.0241852905601263,-0.1447391211986541
1.90805126953125,-0.4029454984176904,-0.0052370969358831,0.7878694563239812,0.0133928637951612,0.0363065898418426,-0.1552565693855285
1.91807861328125,-0.4047241985280067,0.0662629357848316,0.8717828342854976,0.0401690863072872,0.0405575335025787,-0.1548874676227569
1.9281064453125,-0.3520540635595098,0.1758298104409128,0.9467606261193752,0.0585165843367576,0.0340572521090507,-0.1486215591430664
1.938134765625,-0.3504620085950941,0.2633125713218003,0.9540630580872296,0.0745959505438804,0.032321136444807,-0.1410536468029022
1.948162353515625,-0.4060577486867084,0.3109176414530724,0.93334234161973,0.0882104784250259,0.02742525562644,-0.1332797855138778
1.9581904296875,-0.3738019311176613,0.355084553829208,0.9490238948762416,0.0998191982507705,0.0101903425529599,-0.1277015209197998
1.968217529296875,-0.3875478766690939,0.4082363713674247,0.9266793765991924,0.1094889491796493,-0.0113418102264404,-0.1329469084739685
1.97824560546875,-0.4370822343625128,0.4351148798123002,0.7959516404926776,0.1179087981581687,-0.0343754924833774,-0.1405883133411407
1.9882734375,-0.4201357392041012,0.4926983231224119,0.6928314577579497,0.1216220930218696,-0.052203394472599,-0.1458857953548431
1.99830126953125,-0.3832374295914545,0.5556443163789808,0.5456798255950213,0.1215113028883934,-0.0488467440009117,-0.145219475030899
2.00832958984375,-0.3927602410225197,0.6245366508193314,0.4033423157155513,0.115811564028263,-0.026589848101139,-0.1389457583427429
2.0183564453125,-0.3734914769290015,0.7041991664033382,0.321053324085474,0.104771964251995,0.0023632384836673,-0.1338370144367218
2.028384521484375,-0.3847407833591103,0.7558772581271826,0.2479699676960706,0.0918252021074295,0.0406431034207344,-0.1329100281000137
2.038412353515625,-0.3821080237027257,0.7867578418202698,0.2269119820982217,0.0836570188403129,0.0730135589838028,-0.1365801393985748
2.048440673828125,-0.4072423553613946,0.7975791686292737,0.2361567803055048,0.0813460797071456,0.0903939083218574,-0.1478984504938125
2.058468505859375,-0.4791995937976986,0.8392349019020795,0.26954934681952,0.0742591395974159,0.1114733591675758,-0.1744530946016311
2.06849560546875,-0.5488795349517837,0.8750594448033719,0.3410556631505489,0.0545249655842781,0.1191696003079414,-0.2061363160610199
2.0785234375,-0.5752565601479261,0.9223426625691352,0.4397475080490112,0.0182774811983108,0.1157905831933021,-0.2362113893032074
2.08855126953125,-0.5741776788700371,0.9684047410421072,0.522235237121582,-0.021929170936346,0.0989110097289085,-0.2634089589118957
2.09857958984375,-0.6312441856339573,1.0541096055302768,0.4688040911853313,-0.0591694824397563,0.088103637099266,-0.2890743911266327
2.108607421875,-0.6755177732549608,1.1159509254805744,0.37604105181396,-0.085943691432476,0.0827241837978363,-0.3092620074748993
2.11863427734375,-0.6929726197943091,1.1893779807411131,0.2919207531034946,-0.1029905825853347,0.0764268711209297,-0.3198773860931396
2.128662353515625,-0.6741489691197872,1.3265700905561446,0.193464470526576,-0.1105265170335769,0.0754513591527938,-0.3179474771022796
2.1386904296875,-0.6454276092872023,1.4324816575750707,0.0350707288593053,-0.1078476458787918,0.053719162940979,-0.3094589114189148
2.148718505859375,-0.7469140533402562,1.3879359750144182,-0.1976157449871301,-0.0996765121817588,0.0970591232180595,-0.2967867851257324
2.15874658203125,-0.7668705074369907,1.414001121249795,-0.2989420300424099,-0.1160853132605552,0.1262135356664657,-0.2590282261371612
2.1687734375,-0.6357819751940668,1.4643512523055076,-0.2579372349590063,-0.1506600081920623,0.1472578197717666,-0.2089228332042694
2.178801513671875,-0.6392902025107294,1.4007235603950916,-0.3088946842581033,-0.1906340569257736,0.1755736172199249,-0.1753281205892563
2.18882958984375,-0.7047935520999133,1.2638561524897811,-0.3791027774721384,-0.2237384170293808,0.1981204599142074,-0.1536470651626587
2.198857421875,-0.6747312259871512,1.1126267494939266,-0.4121282642394304,-0.2404681295156479,0.2072021067142486,-0.1404050290584564
2.20888427734375,-0.6469457587651908,0.9879879779122768,-0.4033025682270527,-0.2542625963687897,0.2065554559230804,-0.1494134217500686
2.218912353515625,-0.6599076777994632,0.8663070332229137,-0.343386736446619,-0.2745431065559387,0.2097887992858886,-0.1753107905387878
2.2289404296875,-0.6304346228167415,0.7747606030996889,-0.2805138084262609,-0.3053860664367676,0.2213264852762222,-0.2068768739700317
2.238968505859375,-0.5704645035658031,0.788362865864113,-0.2842822210490703,-0.3272042870521545,0.2213629782199859,-0.2375487685203552
2.24899658203125,-0.5285718927972018,0.7599052715342491,-0.3559837676912546,-0.3297711908817291,0.1979073733091354,-0.2660020589828491
2.2590244140625,-0.4092227520562708,0.7096664188332855,-0.4544669382750987,-0.3120523989200592,0.1439725160598755,-0.2833059430122375
2.269051513671875,-0.1661348390470259,0.7290106593158096,-0.5838374145537615,-0.29046630859375,0.0812150463461875,-0.2857120931148529
2.27907958984375,0.0227844988632015,0.7004908864699304,-0.7478893281131982,-0.2608951032161712,0.0378811508417129,-0.2611491978168487
2.289107666015625,0.1623988856554031,0.5684720145743339,-0.9648188453793524,-0.2095965594053268,-0.0171594992280006,-0.2114814966917038
2.299135498046875,0.3428408660668879,0.4712609097529202,-1.2933581413060429,-0.1330381333827972,-0.099642127752304,-0.1405127942562103
2.30916259765625,0.4310344786308706,0.3406466439582407,-1.6448936974167825,-0.0527425706386566,-0.1792811751365661,-0.0725553780794143
2.3191904296875,0.3859670006858184,0.0931729353465139,-1.9025532844781876,-0.0066871959716081,-0.2193244695663452,-0.029671560972929
2.329218505859375,0.2292414662254042,-0.3249319190844893,-2.089744666084647,0.0068887798115611,-0.1735404729843139,-0.0245456639677286
2.33924658203125,0.0421347489614039,-0.7923959938377142,-2.197845559841394,-0.0110348267480731,-0.0395214110612869,-0.0599438697099685
2.3492744140625,-0.1769082533273845,-1.1801041756350543,-2.08086110240519,-0.0523509718477726,0.1536413580179214,-0.1348854601383209
2.359301513671875,-0.329493747107312,-1.4623589094445109,-1.847003246691823,-0.0944190546870231,0.3789959251880646,-0.232791781425476
2.36932958984375,-0.4607277522355318,-1.6175582389846443,-1.408765558683872,-0.1107186302542686,0.5558543801307678,-0.3432303369045257
2.379357666015625,-0.536306359506771,-1.5787763806477189,-0.6868693344831466,-0.1149692982435226,0.6504349708557129,-0.4498622417449951
2.38938525390625,-0.5394311404637993,-1.404737033820152,0.1762508853971958,-0.1229894086718559,0.6694707274436951,-0.5489280819892883
2.399413330078125,-0.5046549375716597,-1.2146190972425044,0.9379910442084074,-0.1332276612520218,0.6265032887458801,-0.6220709681510925
2.4094404296875,-0.4483197772895917,-1.0290770172130317,1.533266383099556,-0.1450727730989456,0.5405166745185852,-0.666564404964447
2.419468505859375,-0.362893839340657,-0.8107755540065467,1.9912620800226928,-0.1431502401828766,0.4128095805644989,-0.6757776141166687
2.429496337890625,-0.2340501634150743,-0.6174133017454296,2.2521359529554843,-0.1301764100790023,0.2477697134017944,-0.6617230176925659
2.4395244140625,-0.1714564359285868,-0.467256204156205,2.33219031740129,-0.1058228611946106,0.06343874335289,-0.6385298371315002
2.449552490234375,-0.1126366922891698,-0.3512321892499923,2.2592203582584856,-0.0823703035712242,-0.1133016124367713,-0.6021091341972351
2.459579345703125,0.0434807932754978,-0.2483421620093286,2.0915058305382725,-0.0658856034278869,-0.2614130675792694,-0.545328676700592
2.469607666015625,0.2219567343110218,-0.1476562206842005,1.7018828280955551,-0.0403521656990051,-0.3595194220542907,-0.4605457186698913
2.47963525390625,0.3704091468742117,-0.0884958834461867,1.1192641416817903,0.0148804634809494,-0.4109988510608673,-0.3569673895835876
2.48966357421875,0.4616664943903684,-0.0967831617329269,0.5493932931602001,0.0907301008701324,-0.4195153415203094,-0.2521204948425293
2.49969140625,0.5353684210695326,-0.1159313681866973,0.1208463935613632,0.1777771264314651,-0.4151315093040466,-0.1450803279876709
2.50971875,0.5990452858839184,-0.1797472761455923,-0.157171506395936,0.2468137443065643,-0.4228267669677734,-0.0460896678268909
2.519746337890625,0.6348692442633211,-0.3251644126661122,-0.3413900096714496,0.2880376279354095,-0.4240550398826599,0.0394649170339107
2.5297744140625,0.6083496322587132,-0.5007810187477618,-0.5276841501772404,0.2871321439743042,-0.3993892073631286,0.0971225351095199
2.539802490234375,0.5447284796869382,-0.7149658404156565,-0.6637427259176969,0.249358668923378,-0.3385367691516876,0.1278490275144577
2.54983056640625,0.4818616526138037,-0.8824087846528739,-0.7830015580266714,0.1951337605714798,-0.2294095307588577,0.1253605782985687
2.559857421875,0.3713315589487552,-1.004136198832467,-0.889938084179163,0.1451446264982223,-0.0893560200929641,0.0968828648328781
2.56988525390625,0.2878541977843269,-1.095356173480302,-0.8698106574296951,0.1077167689800262,0.0555002503097057,0.046559777110815
2.57991357421875,0.2777921649100259,-1.0837174658738076,-0.6334376040250063,0.0885057896375656,0.1760753989219665,-0.0142276706174016
2.58994140625,0.2418617504814639,-0.9907773163698612,-0.2421937223821878,0.0761680528521537,0.2526571750640869,-0.0805523246526718
2.59996875,0.3100469960983842,-0.777080935806036,0.2701817995041609,0.0511580444872379,0.2769643664360046,-0.1233972609043121
2.609996337890625,0.4075910226685926,-0.5396271744925528,0.7547013462156057,0.0254944916814565,0.2822523415088653,-0.1436820328235626
2.620024658203125,0.3730889970753341,-0.3830233849819749,0.9807856453180313,0.0089828930795192,0.2639508247375488,-0.1410233974456787
2.630052978515625,0.4150447362080216,-0.2510050976082682,1.2376362540841102,0.0102472947910428,0.2284622490406036,-0.1239735335111618
2.640080810546875,0.4082166437536478,-0.105622155618295,1.4053595496326683,0.021281836554408,0.1764962524175644,-0.1002141460776329
2.650107666015625,0.3584930470984429,0.0087350220542401,1.4483289227873086,0.0416457988321781,0.129520371556282,-0.0773179307579994
2.6601357421875,0.3417952294714749,0.0618707652404904,1.4851321745276451,0.0672635436058044,0.0840823277831077,-0.0443237647414207
2.670163818359375,0.3479604010377079,0.0800952809780836,1.4760194782674312,0.0922527015209198,0.0357151813805103,-0.0080483769997954
2.68019189453125,0.2980281118015758,0.0937369989700615,1.4918693738281723,0.1087416633963584,-0.0042197187431156,0.0195893757045269
2.690219970703125,0.2695126863372512,0.0982687241155654,1.4553899472147225,0.1153745800256729,-0.0486696437001228,0.0319901965558528
2.700246826171875,0.2527266789701767,0.0576859538365155,1.4065718480318783,0.1179362758994102,-0.0879347547888755,0.0414798371493816
2.71027490234375,0.2879595943875611,0.0736702894318848,1.288544019022584,0.1199670135974884,-0.1301146745681762,0.0482237376272678
2.720302978515625,0.286044061356131,0.1185193388532847,1.1396236236214636,0.1242075636982917,-0.1713694334030151,0.0505939498543739
2.730330810546875,0.3558216359321027,0.1938657448038458,1.0012503411978482,0.1296316385269165,-0.2026003152132034,0.0602559000253677
2.740359130859375,0.4532518633969128,0.2793481987129896,0.8152011153638362,0.131197303533554,-0.2266553193330764,0.0798064321279525
2.7503857421875,0.4895194738905876,0.3266081086684018,0.591063274154067,0.1329486668109893,-0.2282530814409256,0.105064183473587
2.760413818359375,0.4874234514594078,0.3460436076309531,0.3400157987087965,0.1437208801507949,-0.2122626602649688,0.1324249655008316
2.77044189453125,0.4874241455791517,0.3708073158789426,0.1270902563869953,0.1630271673202514,-0.1973594278097152,0.1598826050758361
2.780469970703125,0.4758758196698501,0.4064189466819167,-0.0340671047747135,0.1787060052156448,-0.1889238655567169,0.1805258393287658
2.790497802734375,0.4437398656208068,0.4235778790146112,-0.0983674352496862,0.1799049228429794,-0.1855562478303909,0.1969213187694549
2.80052490234375,0.4096402102833613,0.4041569200340658,-0.1631950044691562,0.1670908629894256,-0.1631263047456741,0.20700004696846
2.810552734375,0.312940087191388,0.3310888342790305,-0.2568511932879686,0.1449516713619232,-0.1305753886699676,0.210092008113861
2.820580810546875,0.262307412867248,0.3259730256352573,-0.3058475716471672,0.1252088695764541,-0.0956541448831558,0.2040165364742279
2.83060888671875,0.2444742710674181,0.3692730189837515,-0.2763444137871265,0.1066500544548034,-0.07685536891222,0.1975861638784408
2.84063671875,0.1945186557546258,0.3475027934633195,-0.237611070767045,0.0950959324836731,-0.0385777540504932,0.1758563667535781
2.850663818359375,0.0622484394464641,0.3145430654086172,-0.222312379348278,0.0869222059845924,-0.0063776425085961,0.148006185889244
2.86069189453125,0.1086202414557337,0.4075079109624028,-0.1203787760496139,0.0782376378774643,-0.0014207013882696,0.1318226754665374
2.870719970703125,0.1780664469191804,0.5691610928170383,-0.0490191747128963,0.0686269327998161,0.0029448375571519,0.1291030198335647
2.880747802734375,0.1918997419605031,0.6912626740712672,0.0209913501024246,0.0509312897920608,-0.0202728658914566,0.1380765438079834
2.89077587890625,0.1955865041818469,0.7586970647882669,0.0968634604275226,0.0220429562032222,-0.0397563502192497,0.1546484977006912
2.900802734375,0.1699934324376285,0.7542119552634656,0.0539344192832708,-0.0042879846878349,-0.0596190020442009,0.1787860542535781
2.9108310546875,0.1807787015525624,0.7104472670126706,-0.0483586649775505,-0.0219959039241075,-0.0819202065467834,0.2043949514627456
2.920858642578125,0.1561985697105526,0.6115074387025088,-0.2012818662792444,-0.0357327535748481,-0.0883618593215942,0.2253540307283401
2.93088671875,0.0869233734324574,0.445736884656921,-0.3755219963759184,-0.0377687066793441,-0.0832679793238639,0.2353264838457107
2.940913818359375,0.0661017173411324,0.3196170807372778,-0.5066279181450605,-0.0386193208396434,-0.0719556733965873,0.2398296147584915
2.95094189453125,0.0823637738993391,0.2729001916173845,-0.5398807839274407,-0.0578431971371173,-0.0454847365617752,0.240134060382843
2.960969970703125,0.0393129695389419,0.157565912541002,-0.5498638332813978,-0.083747498691082,-0.0229940749704837,0.2311346977949142
2.970997802734375,-0.0386079630747437,-0.0039396775364875,-0.6700760205924511,-0.0985589772462844,-0.0042928112670779,0.2034905552864074
2.98102587890625,-0.091740235662274,0.0062708969630301,-0.7943406981647014,-0.0980463251471519,0.0055531617254018,0.1716990768909454
2.991052734375,-0.1268088456297293,0.0075939622603356,-0.9283826733857392,-0.0809208154678344,0.0018593831919133,0.1574808210134506
3.0010810546875,0.0231737356428056,0.0909402809236198,-0.9984715241342782,-0.0526529550552368,-0.0440982542932033,0.1741439551115036
3.011108642578125,0.1811011749725788,0.2773242916699499,-1.1372329290926455,-0.0135417887941002,-0.1286875307559967,0.2244580537080764
3.021136962890625,0.4046372508969157,0.5210840212598443,-1.3305425013184546,0.0307817347347736,-0.2295369207859039,0.3046948313713074
3.031164794921875,0.5332662246258929,0.6351624550562351,-1.609718923661113,0.0728583857417106,-0.3317281603813171,0.403843343257904
3.041192138671875,0.5924490294240414,0.5691740984290838,-1.8507763354897495,0.0975538790225982,-0.3789063394069671,0.5021933913230896
3.0512197265625,0.4832200449528172,0.3501848721541464,-2.065958132305741,0.1049078479409217,-0.3442175090312958,0.5853964686393738
3.061247802734375,0.3417304571395739,0.0534341416109353,-2.1671505618482825,0.0976011976599693,-0.2447580397129058,0.647682785987854
3.07127587890625,0.2679806727306917,-0.1708417928952723,-2.2038450925171373,0.0970639958977699,-0.0906801521778106,0.694340169429779
3.0813037109375,0.1462167989982292,-0.3581386076375842,-2.2510224387556312,0.1229834780097007,0.080602116882801,0.7033587098121643
3.0913310546875,-0.0250240762172266,-0.5233064465496688,-2.0736650534212586,0.1478882580995559,0.2421678006649017,0.6841264367103577
3.101358642578125,-0.1322313090698793,-0.649685120601207,-1.528711788535118,0.1489641815423965,0.3749487400054931,0.6324107646942139
3.111386962890625,-0.2948791279850527,-0.7898353495694697,-0.7897387573271989,0.1139067783951759,0.4582071304321289,0.5556550621986389
3.121414794921875,-0.428754185673967,-0.8618787684518844,-0.0495849919021129,0.0537102855741977,0.5014150142669678,0.4549793004989624
3.13144287109375,-0.5577998504450544,-0.8778039212059229,0.6073053839027881,-0.0177689939737319,0.5180084705352783,0.3397529423236847
3.1414697265625,-0.6669434947203844,-0.8795122594937682,1.0516636006176472,-0.0767257884144783,0.4874412417411804,0.2336646020412445
3.151497802734375,-0.7055915706098079,-0.778551446750015,1.4208949724167586,-0.1140208318829536,0.4251320660114288,0.1394349932670593
3.16152587890625,-0.6615673546399921,-0.5951558041647076,1.7366554507911205,-0.1390273869037628,0.3161997199058532,0.0671301782131195
3.1715537109375,-0.7053130459293723,-0.4222616818495094,1.940844144427776,-0.1591442972421646,0.2078117728233337,0.0047163111157715
3.18158203125,-0.7176716653082519,-0.275533243534714,2.018136058422923,-0.1794903129339218,0.0922843739390373,-0.0337080433964729
3.191608642578125,-0.654155909339711,-0.1493324833333492,2.026815039440989,-0.1848542094230651,-0.0325692370533943,-0.0471672043204307
3.201636962890625,-0.6541708877131343,-0.0158077369194477,1.832523470440507,-0.1742127537727356,-0.1349233090877533,-0.0430310517549514
3.211664794921875,-0.6157686763435601,0.1243418344616889,1.5351158103585243,-0.1387389302253723,-0.2145763784646988,-0.0179665368050336
3.221693115234375,-0.4936961019881069,0.2652021113954484,1.2267121244877577,-0.0796077027916908,-0.2661338448524475,0.0255420580506324
3.2317197265625,-0.3908964199120178,0.3745332775995135,0.9228846604913472,-0.0148427300155162,-0.2999279201030731,0.0826251208782196
3.241747802734375,-0.3019817995971068,0.4365104258239269,0.7216974867582321,0.0472624488174915,-0.3161521553993225,0.1476890742778778
3.25177587890625,-0.2166130351955071,0.4226499505147337,0.5461702394604683,0.0952710956335067,-0.314369261264801,0.2110558450222015
3.2618037109375,-0.1657466251807287,0.3226321907747537,0.3885843070447444,0.1231274977326393,-0.2883089184761047,0.2609213888645172
3.27183203125,-0.2030351031547412,0.1238790392555296,0.2436404140591621,0.1340217590332031,-0.230320394039154,0.2831678390502929
3.28185888671875,-0.293691854429245,-0.0999271588470786,0.1605605643123388,0.128307968378067,-0.1542155146598816,0.2719748318195343
3.291886962890625,-0.4087347493436187,-0.2935870788805186,0.1775602144300937,0.105856105685234,-0.081011489033699,0.229460597038269
3.301914794921875,-0.4724539554623886,-0.4267435765039175,0.3067792995393276,0.0713015869259834,-0.0264073610305786,0.1678957790136337
3.311943115234375,-0.4994537887319922,-0.4794906856987625,0.4489063815385103,0.0341081768274307,0.018883204087615,0.0909133553504943
3.321970703125,-0.5006571001071483,-0.4785510667610913,0.612993950933218,-0.0114105716347694,0.0506027825176715,0.0090299425646662
3.331997802734375,-0.4766288299942389,-0.4082358599107712,0.8316898933500051,-0.0647106617689132,0.0754698067903518,-0.0686564669013023
3.34202587890625,-0.4183641264216974,-0.2625580996926874,1.0277280137568712,-0.1110483333468437,0.088176816701889,-0.1234070658683776
3.352053955078125,-0.3196766289047896,-0.0823402834258973,1.1407137569457293,-0.1339418888092041,0.0852168053388595,-0.1510484665632248
3.36208203125,-0.2366462808554991,0.1003788481373339,1.212598843461275,-0.1297298371791839,0.0810223221778869,-0.1630699783563614
3.372109619140625,-0.2383268543535843,0.2808231666363776,1.2806535580337046,-0.1126948073506355,0.0791711434721946,-0.16537906229496
3.382136962890625,-0.1913418158167973,0.4191779635552317,1.335560621741414,-0.0832615494728088,0.0748472362756729,-0.1471321582794189
3.392164794921875,-0.1358943616220727,0.5370659457024186,1.3449644099026918,-0.0460974089801311,0.0805489048361778,-0.1122846007347107
3.402193115234375,-0.1273435370283201,0.6058791504919528,1.3680670530706642,-0.001378140412271,0.0834320411086082,-0.0736993923783302
3.412220703125,-0.1549062648776918,0.6700786509409546,1.3595096526056527,0.0378025509417057,0.072843313217163,-0.0435731820762157
3.422248779296875,-0.1589230627709999,0.730440765184164,1.3962690652042626,0.0695732608437538,0.0564142726361751,-0.0221166275441646
3.43227587890625,-0.1933478218769654,0.7004652405720204,1.3778092794060706,0.0882751569151878,0.0363764651119709,-0.0117058372125029
3.442303955078125,-0.2672721591351553,0.663672729421407,1.293862583696842,0.1007834896445274,0.0079131340608,-0.01090928632766
3.452331787109375,-0.29560112211667,0.6176846660327165,1.1971709727048874,0.1071434617042541,-0.0197785347700119,-0.0260226614773273
3.462359619140625,-0.2963097818426787,0.6397607426319271,1.0920464644104242,0.1083128601312637,-0.0378313064575195,-0.0451406948268413
3.472387939453125,-0.257805790599063,0.6782494632411747,0.9189122497290372,0.1027156114578247,-0.0460451729595661,-0.051564835011959
3.4824150390625,-0.1884498207023367,0.7360297442976385,0.7386994749635457,0.1068517714738845,-0.0567707866430282,-0.0428184829652309
3.49244287109375,-0.1501744505828246,0.757123970252648,0.5101917481064796,0.1201971396803855,-0.0610151775181293,-0.0315787009894847
3.502470703125,-0.1877018518792465,0.7673105793546885,0.3307183935314416,0.1365550905466079,-0.0527431331574916,-0.0275445412844419
3.512498779296875,-0.2625024605153128,0.7556042133394628,0.1969663411676883,0.1361149400472641,-0.0433639772236347,-0.0382733754813671
3.52252685546875,-0.3348583794130012,0.7308994687370955,0.0929717136859893,0.1256998479366302,-0.028983436524868,-0.0596420466899871
3.532553955078125,-0.3980612700400874,0.6814196907751262,0.0111754740089178,0.0920602828264236,0.0076539595611393,-0.0955165699124336
3.542581787109375,-0.4927353671971708,0.6615580753549933,-0.0326613296300172,0.0368825085461139,0.0557290762662887,-0.14727084338665
3.55260986328125,-0.5288425994973629,0.6975804789159447,0.0075929393470287,-0.0250725820660591,0.1007734313607215,-0.1955139636993408
3.562637939453125,-0.5198493283657357,0.7946013218622654,0.0493295558363199,-0.0786324813961982,0.1357047855854034,-0.2326815724372863
3.5726650390625,-0.4870077467979863,0.9711621499914675,0.0711637865036726,-0.1179550886154174,0.149875521659851,-0.2567552328109741
3.582692626953125,-0.4405237165858969,1.1723256505880504,0.078259297722578,-0.1359908133745193,0.1543405801057815,-0.2677311897277832
3.592720703125,-0.4158457503926008,1.320236942011863,0.1126192479640245,-0.1453093141317367,0.1574910432100296,-0.261463850736618
3.602748779296875,-0.3464437859296798,1.4421785834640264,0.1563274567872285,-0.147027850151062,0.1515170484781265,-0.2345097064971923
3.61277685546875,-0.2882970279146917,1.5042076080061495,0.1929249568223953,-0.1454357802867889,0.1347205340862274,-0.1971879303455352
3.622803955078125,-0.2971661977426149,1.5048369919508695,0.1416273157835006,-0.1395419389009475,0.1125185638666153,-0.1571891158819198
3.632831298828125,-0.2414580650513991,1.5123413762316107,0.0147246909230947,-0.1310329586267471,0.081073097884655,-0.1125440299510955
3.642859375,-0.2118908107128925,1.4596940741494298,-0.1519897198438644,-0.1174889281392097,0.0525927208364009,-0.069056212902069
3.652887451171875,-0.2570005203644745,1.301083328730613,-0.3900549641191959,-0.1085406094789505,0.0363223291933536,-0.0393764562904834
3.66291552734375,-0.3657986574040726,1.1006520879313348,-0.547778259178996,-0.1153556406497955,0.0299443267285823,-0.0313685983419418
3.672942138671875,-0.414896194582805,0.9146806035086512,-0.6117360598266124,-0.1467650085687637,0.0204909164458513,-0.0403602197766304
3.682970458984375,-0.4397038881029933,0.7290975338816642,-0.6859814457327127,-0.2020154744386673,0.0335571840405464,-0.0676139444112777
3.692998291015625,-0.5084736921422183,0.511035067062825,-0.8308990352332591,-0.2574374675750732,0.0904121398925781,-0.1047996580600738
3.7030263671875,-0.4928786481253802,0.3970101900845766,-0.9940998849213124,-0.2908590734004974,0.1777505129575729,-0.1420804411172866
3.713054443359375,-0.4189430588208139,0.3828313695412129,-1.075841764062643,-0.2940318584442138,0.2685889899730682,-0.1849788725376129
3.72308154296875,-0.3694181996081024,0.4163040155541151,-1.1146323902279138,-0.2613194286823272,0.3216460943222046,-0.2291678935289383
3.733109375,-0.3638036841945722,0.3847231015719473,-1.0645166524499654,-0.2120046019554138,0.3300821781158447,-0.2772315442562103
3.743137451171875,-0.3442927819082513,0.3004625906731933,-0.9932897375822066,-0.1756892204284668,0.3065100014209747,-0.31947061419487
3.75316552734375,-0.32608693433851,0.2534919459879398,-0.8694552681207657,-0.1670033037662506,0.253020703792572,-0.342520534992218
3.763193359375,-0.28453270694511,0.1940236387792974,-0.8366969078570604,-0.1641183197498321,0.154639795422554,-0.3411394357681274
3.773220458984375,-0.1936271137423813,0.148286481411755,-0.9881161343365908,-0.1372185349464416,0.0199496280401945,-0.3187337219715118
3.783248291015625,-0.1014751920066773,0.1054927570849657,-1.1989894203037024,-0.0982929617166519,-0.1397822499275207,-0.2824358940124511
3.793276611328125,-0.087383483491186,0.0316434578243643,-1.493418356835842,-0.0507633052766323,-0.2033943384885788,-0.2329033315181732
3.80330419921875,-0.1198708995927125,-0.1411070182364434,-1.732066369435191,-0.0157440677285194,-0.2003775089979171,-0.1477029472589492
3.813332275390625,-0.0076352989177219,-0.2849297251723706,-1.7208692681163549,-0.0051768440753221,-0.1159997954964637,-0.0464898943901062
3.823359375,-0.0390296042866073,-0.5756451941393316,-1.7122411405026912,0.0100183542817831,0.038636390119791,0.0260564796626567
3.833387451171875,-0.2271575543571263,-0.9284818229112772,-1.652231200698018,0.0461643934249877,0.2266075611114502,0.0454344451427459
3.84341552734375,-0.5085785042235628,-1.2428335304662586,-1.422835585090518,0.1096086055040359,0.4111593067646026,0.0055472170934081
3.853443115234375,-0.6838767285384237,-1.4277593052282929,-0.8373369593262672,0.1749032288789749,0.5131975412368774,-0.0686468705534935
3.863470458984375,-0.8626602742183953,-1.5174766932934525,-0.0531114124625921,0.2061191946268081,0.5417155027389526,-0.1731335967779159
3.873498291015625,-0.879221752114594,-1.4940718523085117,0.7704454433143139,0.1956345289945602,0.4927108883857727,-0.2775864899158478
3.883526611328125,-0.717182347421348,-1.3459464066773652,1.4627210207551715,0.155899092555046,0.3966267108917236,-0.3610853850841522
3.89355419921875,-0.6177298934139311,-1.127317684277892,1.9036159452736376,0.0972584560513496,0.253871351480484,-0.4255081117153168
3.90358251953125,-0.5161099591743201,-0.8627201146468519,2.1098025347292424,0.0595944374799728,0.073265366256237,-0.4590525031089782
3.913609375,-0.3860475185761228,-0.6361766736000776,2.1198019506961105,0.0500232577323913,-0.1307515203952789,-0.469578206539154
3.923637451171875,-0.2851460165378637,-0.4408217862170189,1.885834204867482,0.0611563362181186,-0.3372761905193329,-0.4609633982181549
3.93366552734375,-0.2203632363081909,-0.2916595448840409,1.4394517888486384,0.0825465396046638,-0.4932939708232879,-0.4342893660068512
3.943693115234375,-0.2166631762138567,-0.28453926455006,0.8725181628227233,0.1107491478323936,-0.5826270580291748,-0.3876416981220245
3.953721435546875,-0.2163237151264213,-0.3637992637477815,0.3308236074715852,0.1449197232723236,-0.6265479326248169,-0.320695161819458
3.96374853515625,-0.1640407711109146,-0.4264904785256833,-0.1169710134327411,0.1788553297519683,-0.6303250789642334,-0.2476734071969986
3.973776611328125,-0.1644564209734089,-0.4719279222942888,-0.5122375747203827,0.2000566124916076,-0.6041192412376404,-0.1764927506446838
3.98380419921875,-0.0789207573059946,-0.5200291784446687,-0.8010118464916944,0.203450545668602,-0.5346991419792175,-0.1067767888307571
4.0019794921875,-0.0021420169973745,-0.5732056189674883,-0.93968323507905,0.1797253340482711,-0.3067884445190429,-0.00364227918908
4.012006591796875,-0.0081023136412724,-0.718149585018307,-1.1245961503595112,0.1747330427169799,-0.1541040390729904,0.0333324931561946
4.022034423828125,-0.030764117706567,-0.781797808260098,-1.159990704345703,0.1780891716480255,-0.002533430699259,0.0476464517414569
4.032062255859375,-0.1090951654911041,-0.8487370358712971,-1.0161083031117917,0.170483112335205,0.1241292953491211,0.0356786735355854
4.04209033203125,-0.2052562863355502,-0.8805665177870541,-0.621224019140005,0.1481479704380035,0.2054142951965332,0.0033843852579593
4.052118408203125,-0.2390998845526948,-0.8627753519654273,-0.0678518854767084,0.1071301847696304,0.2423088401556015,-0.0388763323426246
4.0621455078125,-0.2704999255426228,-0.8021143278408795,0.5226975939363241,0.0650945901870727,0.2282513380050659,-0.0788820758461952
4.07217333984375,-0.2384515767117962,-0.7174907557833939,1.0213789369910955,0.0332618094980716,0.2000188529491424,-0.1024103909730911
4.082201416015625,-0.1746805673405528,-0.5600652015611529,1.3178671441406011,0.0153573779389262,0.1580586284399032,-0.1237612217664718
4.0922294921875,-0.1775287233132869,-0.4339916479360312,1.5090928958296774,0.0079197539016604,0.1205011159181594,-0.1368477344512939
4.10225732421875,-0.1484796476299874,-0.2742866775397211,1.660803798732161,0.0094657186418771,0.0709122568368911,-0.1410629898309707
4.1122841796875,-0.1120566273788921,-0.1440183025732636,1.805126344949007,0.0234830379486084,0.0103287417441606,-0.1340091824531555
4.122312255859375,-0.0611958068546839,-0.0108018914561718,1.8860013781279323,0.0468629300594329,-0.0577110275626182,-0.1200456842780113
4.13234033203125,-0.0585890584223903,0.1077787491302937,1.9015069902956483,0.0672441720962524,-0.1215492412447929,-0.1041284427046775
4.142368408203125,-0.0589202448718249,0.1842495560009032,1.871317019215226,0.0734418779611587,-0.1764713525772094,-0.0864298716187477
4.152396484375,-0.0595913308001123,0.2487826723184436,1.8734119456678628,0.0672000497579574,-0.2296397238969802,-0.0653283447027206
4.16242333984375,-0.0054773902314715,0.2949433157950639,1.829914164724946,0.0598316118121147,-0.2671860456466675,-0.0444520898163318
4.172451416015625,0.0376576400799676,0.3650621963556856,1.6651783605545758,0.0566390231251716,-0.2823430895805359,-0.0164219569414854
4.182479248046875,0.0815131118867546,0.4293559509593993,1.4388713586121795,0.0697878524661064,-0.2815825045108795,0.0128163555637001
4.192507568359375,0.1497536313548684,0.4499322174549102,1.1672855375289917,0.0898963436484336,-0.270531952381134,0.0467985421419143
4.202535400390625,0.1833352541675791,0.4323845050003379,0.94865389252007,0.1106074824929237,-0.2602710723876953,0.0738826245069503
4.2125625,0.2192376846106722,0.4541050461601466,0.7815957828819752,0.1228796392679214,-0.2448496520519256,0.0860754549503326
4.22259033203125,0.1983763175634667,0.4280763594776391,0.6365747330069541,0.119456946849823,-0.2283356636762619,0.0865428373217582
4.232618408203125,0.1311603188375011,0.4245861062090844,0.5211328288376331,0.1057004928588867,-0.2062954008579254,0.0870712548494339
4.242646484375,0.169470979466103,0.4382416335307061,0.4075520423650741,0.0838287472724914,-0.1887126863002777,0.0908018052577972
4.25267431640625,0.1926898328922688,0.4641239705450832,0.3379699720948934,0.0589236728847026,-0.1828684955835342,0.0937881916761398
4.262701416015625,0.2338593900833278,0.4946112440716474,0.277816824427247,0.0406333468854427,-0.171792671084404,0.1081583425402641
4.272729248046875,0.2815838122779503,0.5865406821630895,0.1108171669781208,0.0382658243179321,-0.1428759098052978,0.1255304664373397
4.282757568359375,0.2942887608764693,0.6479092700351029,-0.1402636262148618,0.0432496629655361,-0.1164339184761047,0.1433190554380417
4.292785400390625,0.272434912193194,0.6536933333292603,-0.2849772175759077,0.048430435359478,-0.1031246334314346,0.1563691347837448
4.3028125,0.3219106350345537,0.6751266550455242,-0.3116775929749011,0.0508254133164882,-0.0895004272460937,0.1613151580095291
4.31284033203125,0.3026322628624737,0.6948612100198864,-0.3317570889294147,0.0480076298117637,-0.0863265469670295,0.1503555029630661
4.32286865234375,0.1970141623647883,0.6416723484069109,-0.321935367617011,0.0347661264240741,-0.0710077807307243,0.1452265083789825
4.332896484375,0.227667586238496,0.6622171237856149,-0.3613309739381075,0.0193913634866476,-0.0573707856237888,0.1388531625270843
4.34292431640625,0.2508590767337009,0.7040199373789131,-0.3647439972519874,0.0038273171521723,-0.0580267272889614,0.1349785327911377
4.362353515625,0.345687633800134,0.8510185709372162,-0.3414385249882936,-0.0086523508653044,-0.0872856304049491,0.1366376131772995
4.37238134765625,0.3401967082336545,0.8890675849549472,-0.4087099802285432,-0.0072056478820741,-0.114229217171669,0.1451065242290496
4.382409423828125,0.3548180849127471,0.9234498931586742,-0.4577870226085185,-0.0041499370709061,-0.1527118980884552,0.1584721356630325
4.392437255859375,0.3122673755615949,0.901722556931898,-0.5262602548539638,-0.0041904905810952,-0.186944842338562,0.1701063513755798
4.40246435546875,0.2228346496567129,0.8218738711260258,-0.6624421647131442,-0.0133347203955054,-0.2028907835483551,0.1799651086330413
4.412492431640625,0.143922440983355,0.7345783033803105,-0.8146767992287873,-0.0307733081281185,-0.2065173238515854,0.1960899233818054
4.422520263671875,0.1060885310210287,0.6450122334193438,-0.944916459557414,-0.0454459935426712,-0.2020514756441116,0.2184900343418121
4.432548583984375,0.0986384342107921,0.5646364549994468,-1.1238193207681175,-0.0488249585032463,-0.1843529790639877,0.2395759373903274
4.442576171875,-0.0168785079561173,0.4527779622748494,-1.345536656832695,-0.0326854027807712,-0.1731687635183334,0.2666991949081421
4.452603515625,-0.1180069323517382,0.3339203313779085,-1.55929455832541,0.0084862075746059,-0.1846020668745041,0.3147056102752685
4.46263134765625,-0.0604622136168181,0.2367191634286194,-1.809630086109042,0.0707373321056366,-0.1863435059785843,0.3873273432254791
4.47265966796875,0.0547053305905312,0.2095745513934642,-2.051905641555786,0.1319092661142349,-0.150439441204071,0.465211421251297
4.482687255859375,-0.0113448392264544,0.1641900799211114,-2.2402292420625685,0.1857125759124755,-0.109276570379734,0.5585019588470459
4.49271435546875,0.1219333120152354,0.152887910792604,-2.228556924447417,0.2182935327291488,-0.0402848981320858,0.6536518335342407
4.502742431640625,0.1420344352796673,0.0623073300268501,-2.13326991955638,0.2478104084730148,0.0601711347699165,0.7449343800544739
4.5127705078125,0.0516206624481827,-0.1742002364777028,-2.0112211644679308,0.2783554196357727,0.1811636239290237,0.8140677213668823
4.522798583984375,-0.1011313470050692,-0.5380705196350812,-1.7946295008540152,0.3033931255340576,0.3003480732440948,0.8436831831932068
4.532826171875,-0.273331495706737,-0.8950405218847095,-1.397322373649478,0.30974081158638,0.3825828433036804,0.8239108920097351
4.542853515625,-0.4469295285075902,-1.1655962692677977,-0.8396230244368315,0.2867273688316345,0.413429707288742,0.7605684399604797
4.55288134765625,-0.561499326017499,-1.2822947493694723,-0.26177228307724,0.2301132529973983,0.4288070797920227,0.6416019201278687
4.56290966796875,-0.8067587926458567,-1.4302476149126886,0.3562327740162611,0.1404547393321991,0.4425953328609466,0.4775839745998382
4.572937255859375,-1.0672196277983486,-1.5888235812790692,0.8727215764403343,0.0434782356023788,0.4421070218086242,0.3068912625312805
4.58296533203125,-1.176668063706532,-1.603016649543494,1.317609369987249,-0.0479163900017738,0.4013257622718811,0.1606725603342056
4.592992431640625,-1.1185288862098008,-1.4373516016989945,1.743665037292242,-0.1200979873538017,0.3199772238731384,0.0457712039351463
4.6030205078125,-1.012834980529547,-1.143153551313281,2.046276695758104,-0.1641272157430648,0.1937718838453292,-0.0383359491825103
4.61304833984375,-0.9181781633008272,-0.8227939816456288,2.252911613503098,-0.1814558804035186,0.0510650724172592,-0.0851625800132751
4.623076171875,-0.8097145737115293,-0.4915486050980165,2.2785604340225456,-0.1735886335372924,-0.0998980849981308,-0.095854103565216
4.633103759765625,-0.6590627514079213,-0.2003799855360761,2.199528398361802,-0.1407599747180938,-0.2387535274028778,-0.0694916993379592
4.643131103515625,-0.5331950225532055,0.0791165356064215,1.900799718809128,-0.0843062773346901,-0.343715637922287,-0.016137134283781
4.65315869140625,-0.4647712554726749,0.3014620500393211,1.4413918170005082,-0.007606656756252,-0.4167796969413757,0.0644855350255966
4.663186767578125,-0.3859136995960027,0.4279394717575982,0.975793243858218,0.0578634291887283,-0.4777290821075439,0.155107319355011
4.67321484375,-0.302777589617297,0.4864600497873499,0.6826292126953601,0.1103173121809959,-0.5024096965789795,0.2451660931110382
4.683242919921875,-0.2013612151257693,0.5062512303197756,0.3254436679989099,0.1552565693855285,-0.4865651726722717,0.3179859817028045
4.693269775390625,-0.1824118922449648,0.4206368571266531,-0.1196136368960142,0.1923225671052932,-0.4167941212654114,0.3733161091804504
4.703297607421875,-0.1834413814231753,0.3041288215631619,-0.5193102895855903,0.2139104157686233,-0.3063664138317108,0.4092011451721191
4.713325927734375,-0.1616340387627482,0.1894499741882085,-0.7779606412500143,0.2192977964878082,-0.1674664467573166,0.4200659394264221
4.723353759765625,-0.1577387118246406,0.0275126781625673,-0.876107127225399,0.2052378952503204,-0.0146452113986015,0.3990149796009063
4.733381103515625,-0.2813509168375283,-0.1655586648605763,-0.8133809141993522,0.1773139387369156,0.1144580543041229,0.3401964902877807
4.74340869140625,-0.4621518667545169,-0.3732418860821053,-0.5877314993828535,0.1260675191879272,0.2064311206340789,0.2506351768970489
4.75343701171875,-0.5759064023587852,-0.5183673827122897,-0.1269680913120508,0.060860238969326,0.2626706957817077,0.1377823799848556
4.76346484375,-0.6579809475205838,-0.579384855591692,0.3447416581869125,-0.0214540753513574,0.2975551784038543,0.0143059929832816
4.773492919921875,-0.7087969425223767,-0.5888571789445355,0.8465402564793825,-0.0933679044246673,0.2677224576473236,-0.0840924903750419
4.783519775390625,-0.5620888894084841,-0.455761800391227,1.27456342446506,-0.1434563547372818,0.2331873774528503,-0.1706971526145935
4.793547607421875,-0.5110471228267998,-0.2547670804902911,1.5828607273519038,-0.1800731718540191,0.2107105106115341,-0.247984692454338
4.803575927734375,-0.5500212888654321,-0.048520358345285,1.78154731644094,-0.1940481215715408,0.1714605689048767,-0.2898213565349579
4.813603759765625,-0.4875424747291952,0.1191864975251257,1.9281722943812607,-0.1734249889850616,0.1272884458303451,-0.3012519478797912
4.823632080078125,-0.3955077130997553,0.2670212165813893,1.9968167915403845,-0.1395381242036819,0.0672876834869384,-0.3064669668674469
4.83365869140625,-0.4133539335768669,0.4625286641776561,2.0292337910205123,-0.1046073883771896,0.0034219052176922,-0.3089701235294342
4.84368701171875,-0.4926692431584,0.6112765890887006,1.9851865595012903,-0.0758564323186874,-0.0485001467168331,-0.2938865125179291
4.85371484375,-0.5060116859428584,0.7397143510945141,1.8833944104999305,-0.055414892733097,-0.0933454185724258,-0.2464103102684021
4.863742919921875,-0.3625927740348503,0.8446491089705377,1.727025452658534,-0.0337111949920654,-0.1242239624261856,-0.1752522438764572
4.87377099609375,-0.3212307630116119,0.9414901383705436,1.5095985072642564,-0.0091495011001825,-0.1368464827537536,-0.1071560531854629
4.8837978515625,-0.393171707900241,0.9845876679494976,1.2080512631595135,0.027153380215168,-0.1377567648887634,-0.0448042675852775
4.893825927734375,-0.4721204491917043,0.941960532361269,0.8998539135158061,0.0721433162689209,-0.1333583891391754,0.0079547697678208
4.903853759765625,-0.5374741611771285,0.8568761378590017,0.6176841545760631,0.1096981465816497,-0.1162909939885139,0.0445335544645786
4.913882080078125,-0.5717384690243751,0.8032029267951846,0.4131511775463819,0.1266348212957382,-0.0902749076485633,0.065638743340969
4.92390966796875,-0.6071005820456892,0.7229921296786517,0.3092155867755413,0.1194368377327919,-0.0565587505698204,0.0745611265301704
4.933936767578125,-0.6234158300958573,0.5984613850487396,0.2230897934615612,0.0946374386548996,-0.0100676231086254,0.0698282569646835
4.94396484375,-0.6129485043562949,0.516885546656698,0.1142208379417657,0.0611492581665515,0.0398757010698318,0.0538719296455383
4.953992919921875,-0.5878714923754335,0.4971974977051839,0.0723275695860385,0.0289829242974519,0.0739879980683326,0.0318593569099903
4.964020751953125,-0.5610792009092868,0.5103010902324691,0.046155017453432,0.0060009090229868,0.0922708660364151,-0.0033625455107539
4.974048583984375,-0.5282096353560686,0.5476706706186756,0.0202484227806329,-0.01312633510679,0.1000745519995689,-0.0414290130138397
4.984075927734375,-0.4992068647662177,0.613804244402796,0.0400701445817947,-0.0314195901155471,0.1083575114607811,-0.0740364864468574
4.994103759765625,-0.4104716561388224,0.7049988654136657,0.0290226808667182,-0.0479175746440887,0.1196166053414344,-0.0977024212479591
5.004132080078125,-0.3968752020606771,0.7373164961725472,0.011318681871891,-0.0639775022864341,0.1172498539090156,-0.1253910362720489
5.01415966796875,-0.4002290060006082,0.7366524062406271,0.077847209790349,-0.0778435468673706,0.0977422595024108,-0.1516390442848205
5.024186767578125,-0.3819454170195385,0.8375595160357654,0.0800847595840692,-0.0913561657071113,0.0667864754796028,-0.1757204085588455
5.03421484375,-0.3804620100613683,0.8906739972382783,0.0783434688746929,-0.1024277880787849,0.0411734208464622,-0.1957265883684158
5.044242919921875,-0.3836169304283335,0.920660993092507,-0.0127782330304384,-0.1104484274983406,0.0209528412669897,-0.2129998505115509
5.054270751953125,-0.3655908598722889,0.9240034353882074,-0.1531353827476501,-0.1200018376111984,0.0084945987910032,-0.2181188464164734
5.064298828125,-0.351219256703183,0.9568574380461126,-0.2499205172419548,-0.132546916604042,0.0083782188594341,-0.2146625965833664
5.074325927734375,-0.3698036552617326,0.93991616705209,-0.3634948739737272,-0.1408713161945343,0.0219123288989067,-0.2091082632541656
5.08435400390625,-0.3833001926293596,0.9180763103615492,-0.4819710312724113,-0.1396971344947815,0.0354987122118473,-0.2017968147993087
5.0943818359375,-0.3846251576228067,0.910151874037832,-0.5967699613630771,-0.1350480616092682,0.0541350319981575,-0.1942338794469833
5.10440966796875,-0.3966474211867898,0.9280212927274404,-0.694362320587039,-0.1306850016117096,0.0841810777783393,-0.1858228296041488
5.11443798828125,-0.3859175720535218,0.8644284529346972,-0.7525929757595062,-0.1339725404977798,0.113348364830017,-0.1769844740629196
5.12446484375,-0.3496897455809638,0.8138327496200799,-0.785251382780075,-0.148996502161026,0.1678118705749511,-0.1802433878183365
5.134492919921875,-0.3994405955692753,0.7422660814039409,-0.7776508446484803,-0.1714585721492767,0.2319186180830001,-0.1965939551591873
5.144520751953125,-0.358357912944071,0.7373382696129381,-0.7132423776239156,-0.1769888997077942,0.2740988433361053,-0.2201376408338546
5.154548828125,-0.2683192205026745,0.7360302557542919,-0.720726011377573,-0.1550971418619156,0.2802228331565857,-0.2395531684160232
5.164576904296875,-0.174199615423195,0.7316101742897182,-0.7589104883432388,-0.1249799877405166,0.287443459033966,-0.2456699162721634
5.17460400390625,-0.0066231079341843,0.7849389558300376,-0.7930904058426618,-0.0893899202346801,0.2521677315235138,-0.2275677323341369
5.1846318359375,0.1441319190155714,0.7445144448526203,-0.787071583944559,-0.031264029443264,0.1288995891809463,-0.1751993298530578
5.194659912109375,0.363677792792581,0.6653048606678843,-0.9135229579061268,0.0429490283131599,-0.0788402631878852,-0.1042271852493286
5.204687744140625,0.5228763845693319,0.5844402027525007,-1.2577812164902686,0.0902544930577278,-0.2812138795852661,-0.0442176461219787
5.214715087890625,0.5431757338196039,0.4370788002964109,-1.7131676076978444,0.0911384597420692,-0.3789473474025726,-0.0054386737756431
5.22474267578125,0.3795387577366084,0.012383023167774,-2.229958023416996,0.0481883324682712,-0.3750359714031219,0.0021002027206122
5.234770751953125,0.1909717038627713,-0.5560279819343239,-2.5275778649449347,-0.0251276399940252,-0.2340535819530487,-0.018278582021594
5.244798828125,0.0332577976858243,-0.9902674671515822,-2.730544323310256,-0.1110207065939903,0.0182969197630882,-0.076904073357582
5.254826904296875,-0.1653780475966632,-1.3562126568868755,-2.7855981020122766,-0.1702655255794525,0.3336617946624756,-0.1618005633354187
5.26485400390625,-0.3114239470073953,-1.616646969358623,-2.63042332239151,-0.1730115115642547,0.6165984272956848,-0.2540676295757293
5.274881591796875,-0.3533209051575511,-1.670889577808231,-2.162125427162647,-0.1430063545703888,0.7886130809783936,-0.3461533784866333
5.284909912109375,-0.2575064057936891,-1.4548700149938465,-1.2393033105134963,-0.1244217380881309,0.8377385139465332,-0.4277635514736175
5.294937744140625,-0.140919057916291,-1.1010996125031265,-0.0637520489424467,-0.124416671693325,0.7716697454452515,-0.4910050928592682
5.3049658203125,-0.0216464164776727,-0.8751233768850565,0.9702589906066656,-0.1407045722007751,0.6360599994659424,-0.5309669375419617
5.31499267578125,0.1043652052266057,-0.6905712577410041,1.715214018833637,-0.1663347035646438,0.4544972777366638,-0.5582310557365417
5.325020751953125,0.162246361974813,-0.5165908014938235,2.206151031371951,-0.188814178109169,0.2520134150981903,-0.6101555228233337
5.335048828125,0.2421128208993934,-0.3489054268028587,2.408480945399404,-0.1902643293142318,0.0380396097898483,-0.5190726518630981
5.345076904296875,0.4226844738388434,-0.2143756680648773,2.3170897789031266,-0.1664122641086578,-0.1224704310297966,-0.5583310723304749
5.35510498046875,0.562234106565453,-0.1084893085524439,2.1036960345476863,-0.1212433651089668,-0.2585262358188629,-0.4493535161018371
5.365131591796875,0.6818100052669644,-0.0285598125953227,1.6878256611704825,-0.0554350614547729,-0.3186119496822357,-0.4564361870288849
5.375159912109375,0.7529474882856011,-0.0332173560775816,1.1968512392312287,0.0182452350854873,-0.3435638844966888,-0.333889752626419
5.385187744140625,0.7708556315504014,-0.111396720431745,0.7918003660321236,0.080318197607994,-0.3254751563072204,-0.3258531391620636
5.395216064453125,0.7792506079953163,-0.2109765271458774,0.4880225863963365,0.1287546902894973,-0.3103805482387543,-0.2079603970050811
5.405243896484375,0.8214691627826541,-0.3256590643152594,0.2761182038158178,0.1604412347078323,-0.2716320753097534,-0.195642739534378
5.41527099609375,0.8181322003796696,-0.4328960347190499,0.0840261906862258,0.1740093827247619,-0.2434353530406952,-0.1035950630903244
5.425298828125,0.7572091643180697,-0.5841049063835293,-0.0159779058545827,0.1715195924043655,-0.1973765194416046,-0.11991598457098
5.435326904296875,0.702000414250046,-0.7256336571633816,-0.065543608534336,0.1579622477293014,-0.1657522022724151,-0.0774384662508964
5.44535498046875,0.6252526901341975,-0.9037655340015888,-0.1254722997963428,0.1367022395133972,-0.1075339168310165,-0.1310409903526306
5.4553818359375,0.4895978363564238,-1.042958754505962,-0.1224351240575313,0.1099489405751228,-0.0661732703447341,-0.1447604447603225
5.465409912109375,0.364721675822325,-1.1359032879240811,-0.0799263541519641,0.0771036446094513,0.0124592203646898,-0.2253434360027313
5.475437744140625,0.2750487479534,-1.107595696524158,0.0413122535973787,0.0436849072575569,0.070113256573677,-0.2568617463111877
5.485466064453125,0.2567103235125541,-1.0071479478690772,0.2334609653502702,0.0163699313998222,0.1317710280418396,-0.3115212619304657
5.49549365234375,0.3296289908595383,-0.8343675881266593,0.4634685753762722,0.0090821869671344,0.1433175504207611,-0.307193785905838
5.50552099609375,0.4113209299119189,-0.61738224902004,0.7290642161339521,0.0104585085064172,0.1442296802997589,-0.3156820833683014
5.515548828125,0.4490572977839037,-0.3836317992039024,0.9711018711715936,0.0164777040481567,0.0902739912271499,-0.2923024594783783
5.5255771484375,0.4705186765508726,-0.1873489833209663,1.2048767247766257,0.0171762518584728,0.0373165011405944,-0.2719676196575165
5.53560498046875,0.5076114492896944,-0.0438338079642504,1.3899620740145444,0.0120936203747987,-0.0225071031600236,-0.2397033274173736
5.545632568359375,0.5090828004838899,0.0632418343979865,1.4841513467967509,0.0022971821017563,-0.0447679348289966,-0.203330397605896
5.555659912109375,0.4910210010273382,0.1128160857103764,1.478280408936739,0.0030412862543016,-0.0676926895976066,-0.1715475469827652
5.565687744140625,0.5005194452021271,0.154302965222299,1.4155121103346346,0.0107082603499293,-0.0682583451271057,-0.1247885599732399
5.575716064453125,0.5132007571967319,0.2053670167010277,1.3453624693095685,0.0272500477731227,-0.0720519348978996,-0.1083184406161308
5.58574365234375,0.4932926722863688,0.2384878536015748,1.2525813097596168,0.044982973486185,-0.0689823701977729,-0.067051962018013
5.59577197265625,0.5139037908995524,0.2643414029128849,1.202690028387308,0.0601255446672439,-0.0918795019388198,-0.0635682344436645
5.605798828125,0.5853543219227344,0.3173768275298178,1.184935175988078,0.0660755783319473,-0.1112116575241088,-0.0147727336734533
5.615826904296875,0.6392140685345977,0.4167923105277121,1.1314864943951368,0.0659589618444442,-0.1423660665750503,-0.0137157402932643
5.625854736328125,0.6891527692452073,0.4571037165194749,1.0482312880814075,0.0588469915091991,-0.1624862402677536,0.0463175028562545
5.6358828125,0.7203764672875403,0.5172589830789714,0.9486422020822765,0.0473741739988327,-0.1883353888988495,0.0436346121132373
5.6459111328125,0.7226403936315328,0.5355652588158846,0.8157581647247075,0.0395647212862968,-0.2017209678888321,0.1158749833703041
5.65593798828125,0.7330917180843651,0.5444317252300679,0.5892413194239139,0.0325169749557971,-0.2045315653085708,0.101773627102375
5.66596630859375,0.71669850942716,0.5437092561744153,0.3475415180385112,0.0202690977603197,-0.1843325495719909,0.1719308644533157
5.675993896484375,0.6706603963516652,0.5522353116530925,0.1661544387966394,0.0094467047601938,-0.1626743376255035,0.1419500261545181
5.686022216796875,0.6070302567558362,0.4782857668884098,-0.0226677588820457,-0.0030645602382719,-0.1136569902300834,0.2096603661775589
5.696049072265625,0.5724963016543537,0.4334412475116551,-0.1532230610311031,-0.0137111647054553,-0.0624134317040443,0.1645899266004562
5.7060771484375,0.5312519987266511,0.3968015888351947,-0.2571253340542316,-0.0264312215149402,-0.0099632740020751,0.2032289355993271
5.71610498046875,0.4981721879562363,0.3896612155612557,-0.28047815259099,-0.0322248488664627,0.0276134312152862,0.2040382474660873
5.726133056640625,0.4971634493051096,0.3868724616255611,-0.2332224804192781,-0.0313776955008506,0.0438355468213558,0.2131643742322921
5.7361611328125,0.4822930663010105,0.412210974086821,-0.1577051748812198,-0.0337135605514049,0.0266449488699436,0.2196487188339233
5.746188232421875,0.4979861638648435,0.4639449607163667,-0.0672328767955303,-0.0446602180600166,0.0053769452497363,0.2288254350423813
5.75621630859375,0.4703440871689468,0.5076606221936643,-0.0476660065382719,-0.0567669570446014,0.0117989992722868,0.2382643073797226
5.766243896484375,0.3905005524622276,0.4853751406274735,-0.1916366705775261,-0.0716833248734474,-0.0096162781119346,0.2577565312385559
5.776272216796875,0.4392947958454489,0.428687330982834,-0.1621288365423679,-0.0903246775269508,-0.027338970452547,0.2605791389942169
5.786300048828125,0.3507768466979265,0.3462458522047847,-0.1428530581861734,-0.1073670387268066,-0.0375615172088146,0.2487011551856994
5.7963271484375,0.2185554014349356,0.2289502099275588,-0.2138525940388441,-0.1213387548923492,-0.050542939454317,0.2430132627487182
5.80635498046875,0.2364503198919817,0.1300181265324354,-0.3176233496367931,-0.1337757259607315,-0.0477836355566978,0.24248968064785
5.816383056640625,0.2402063479572534,0.05982932254076,-0.4066705833554268,-0.1513347625732422,-0.0334144420921802,0.2289788573980331
5.8264111328125,0.1485453150110319,-0.0065074091326445,-0.4557283365130424,-0.1762459725141525,-0.0181148461997509,0.1979852467775344
5.83643896484375,0.1188419218711555,-0.0172566205535084,-0.488506570520997,-0.195282906293869,-0.0216544810682535,0.1724240034818649
5.846466064453125,0.1845136502971872,-0.0121662386119365,-0.5424561873733997,-0.2017410844564438,-0.0379961691796779,0.1628744453191757
5.856494140625,0.191602329916507,-0.0272461727134883,-0.7043424473315477,-0.1803531050682068,-0.0477306880056858,0.1759306341409683
5.866522216796875,0.2185852851165458,-0.0634695787392556,-0.9569061725586652,-0.1268640458583831,-0.0364844240248203,0.2141342163085937
5.876550048828125,0.3006507336564362,-0.0436300290204584,-1.231682314115763,-0.0442419536411762,-0.0179632399231195,0.260623961687088
5.886576904296875,0.2728117461489513,0.0010031126279383,-1.5296587139964102,0.0568710826337337,-0.0810833573341369,0.3563747406005859
5.89660498046875,0.6782121269054711,0.139982982642576,-1.6287252374261616,0.1560987830162048,-0.1659090667963028,0.4655667543411255
5.906633056640625,0.7393916950114071,0.1648684175740927,-1.8476047197163104,0.227247267961502,-0.2220700681209564,0.5593962669372559
5.9166611328125,0.5580089631510898,0.0114438426215201,-2.1292636065244674,0.251300573348999,-0.2046824097633361,0.6266884207725525
5.926689208984375,0.3629426834510639,-0.3319524653710424,-2.307046523794532,0.2279371917247772,-0.0834060385823249,0.6569808125495911
5.936716064453125,0.0997018256586045,-0.7556454951979219,-2.402403671312332,0.1731385886669159,0.1179517656564712,0.6353374719619751
5.946744140625,-0.2200354473922401,-1.124059193938598,-2.3340789076268678,0.1104552298784256,0.3458272516727447,0.5662423372268677
5.95677197265625,-0.498098282469809,-1.423182498832047,-2.056778800550103,0.0536026731133461,0.5440182685852051,0.4593683779239654
5.966800048828125,-0.7235776014164089,-1.6270073275923729,-1.473347044187784,0.0068985493853688,0.6776378154754639,0.3322551846504211
5.976828125,-0.8757757033139467,-1.66600531289801,-0.716208826214075,-0.0326153077185153,0.7685660123825073,0.2093767374753952
5.98685498046875,-0.9018872459743172,-1.426738291617483,-0.0498895278066396,-0.0603566579520702,0.8202611207962036,0.0933153852820396
5.996883056640625,-1.0077022207509725,-1.2004335546974092,0.5912766246438026,-0.0788316950201988,0.8225615620613098,0.0099828215315938
6.0069111328125,-1.0803228549994528,-0.974405515826866,1.258667936196923,-0.0931190177798271,0.7482260465621948,-0.0496418923139572
6.016939208984375,-1.115531384894252,-0.6905097368121147,1.924057844799757,-0.1079487204551696,0.6066403985023499,-0.0951968133449554
6.02696728515625,-1.1716262701470403,-0.4040777173180133,2.4228058233499525,-0.1127200424671173,0.4125718474388122,-0.1225983500480651
6.036994140625,-1.2174835467629137,-0.1828254414819181,2.7315724973142146,-0.1122897341847419,0.1848183125257492,-0.1355026811361313
6.04702197265625,-1.2019221127547324,-0.0340528570536524,2.8461498936086893,-0.0965419337153434,-0.0298295430839061,-0.1301779597997665
6.05705029296875,-1.168738805077225,0.0776444537598639,2.6697978859245777,-0.0563246868550777,-0.1868038773536682,-0.0993952006101608
6.067078125,-1.108327006473392,0.1591723248243332,2.148831645825505,0.0118495719507336,-0.2816576659679413,-0.0388492979109287
6.07710595703125,-1.021697574486211,0.2297519547645002,1.5180641377925872,0.1029027998447418,-0.324872225522995,0.0413151383399963
6.087133056640625,-0.9281587284367532,0.3040825347360223,0.9900696064919232,0.1983198672533035,-0.3354865312576294,0.1266145855188369
6.0971611328125,-0.8658661575876175,0.3736402012173086,0.5566489633768796,0.2685915231704712,-0.3173310756683349,0.2091197967529297
6.107189208984375,-0.7931717274505644,0.3886204012714326,0.3385112393647432,0.2858562469482422,-0.2515621781349182,0.2809228897094726
6.117217041015625,-0.7984663267273455,0.2991780307553708,0.2220949372053146,0.2712621688842773,-0.1767554432153701,0.3285361230373382
6.127244140625,-0.8158822294957936,0.1437003226652741,0.1125496898591518,0.2454369664192199,-0.1021776124835014,0.3575400710105896
6.13727197265625,-0.8336127511713654,-0.0020182810198515,0.0505944612056016,0.2212787419557571,-0.0383353233337402,0.3515413403511047
6.14730029296875,-0.874306726739928,-0.1183566956374794,0.024739304459095,0.2019681632518768,0.0092140883207321,0.3200822174549103
6.157327880859375,-0.9180278681099414,-0.2420909195948392,0.095866850605607,0.1757660806179046,0.0351650044322013,0.2642788887023926
6.16735595703125,-0.9674412297721952,-0.3592927461087703,0.2330523845493793,0.1373435854911804,0.0456290952861309,0.1844804584980011
6.177383056640625,-1.000385541062057,-0.4197297522190958,0.4124222787499427,0.0884479954838752,0.047784648835659,0.1001258864998817
6.187411376953125,-0.9938646148607134,-0.4125895981408655,0.5995066928505897,0.0358753353357315,0.0465587973594665,0.0267065316438674
6.197439208984375,-0.8952295416507869,-0.3409712728027254,0.7702578117877245,-0.0044031953439116,0.0423312596976757,-0.0245403852313756
6.207467041015625,-0.7679066455516964,-0.211602988481149,0.890967427226901,-0.0214881710708141,0.0334983542561531,-0.0482483804225921
6.2174951171875,-0.6383874815173447,0.0180550774548202,0.9330717079848052,-0.0141272693872451,0.0247143022716045,-0.0512615405023098
6.22752197265625,-0.5138928676467388,0.2733249198354781,0.9487912551641464,0.0070728240534663,0.0251446701586246,-0.0419109165668487
6.23755029296875,-0.4495028861269354,0.4408507200505584,0.9595727614194154,0.0300787519663572,0.0205038525164127,-0.0166114084422588
6.247577880859375,-0.3921975656384602,0.5040541951995343,1.0058119500249625,0.0551675967872142,0.0086325462907552,0.0081487987190485
6.257606201171875,-0.3689398049740121,0.5558522600412369,1.040945807248354,0.070573553442955,-0.0132360216230154,0.0288814883679151
6.267634033203125,-0.4076564160550013,0.584930324357003,1.070873328000307,0.0757360905408859,-0.0336424931883811,0.0356544405221939
6.2776611328125,-0.4928036101277917,0.5424124212969095,1.0237187781155108,0.0722316429018974,-0.0384557358920574,0.0281676761806011
6.287689208984375,-0.5694913842173293,0.4643843750469386,0.9296879107654096,0.0648328512907028,-0.0348343662917614,0.0099244909361004
6.297716796875,-0.6417531585581601,0.4081597259346395,0.8326216212421655,0.0596276074647903,-0.0291507318615913,-0.011522814631462
6.3077451171875,-0.71834678809084,0.4107145249839872,0.7177151391237974,0.0532317608594894,-0.0288793556392192,-0.0355527848005294
6.317772216796875,-0.7798775807872415,0.4307816729135811,0.6367161873042583,0.0399646237492561,-0.0232720579952001,-0.052377987653017
6.32780029296875,-0.804090961676091,0.4963981274884194,0.5890121868431568,0.028797723352909,-0.0151289105415344,-0.0559780485928058
6.337827880859375,-0.7985029324106871,0.5473135642766952,0.5101292042642831,0.0174470506608486,-0.0025260830298066,-0.0498435497283935
6.347856201171875,-0.8002906195450573,0.63687620017156,0.4561830945432186,0.0062636379152536,0.0099585494026541,-0.0373131074011325
6.357884033203125,-0.8228903546921909,0.7139816516838967,0.3989069636166095,-0.002483736956492,0.0248856656253337,-0.0224928073585033
6.3679111328125,-0.8467352675948292,0.7508757965780795,0.3368137877970933,-0.0091767935082316,0.0447395294904708,-0.0083458283916115
6.37793896484375,-0.8864909393999725,0.7331664638210088,0.274129660347104,-0.0126980692148208,0.0696692839264869,0.0008918003877624
6.387967041015625,-0.9386988271515816,0.7182444236949086,0.2454156070381402,-0.0164006631821393,0.0889066308736801,0.0009546509827487
6.3979951171875,-0.945661578836292,0.7281346801988781,0.2711538594067096,-0.02323286421597,0.1004816591739654,-0.0046598776243627
6.40802294921875,-0.9674722094323486,0.7185114771332591,0.3512964866578579,-0.0350586324930191,0.1012097671627998,-0.0125769227743148
6.41805029296875,-0.975055723363906,0.7378012109495699,0.4103782057017087,-0.0536972880363464,0.0907285213470459,-0.0221691839396953
6.428077880859375,-0.9213656342305242,0.782500988093391,0.4911491939842701,-0.0762968733906745,0.0654583126306533,-0.0284332055598497
6.438106201171875,-0.8779784009899944,0.8301740088943391,0.5210270303755998,-0.0909542888402938,0.0348783433437347,-0.0325331650674343
6.448134033203125,-0.84624412307702,0.870637536707893,0.4672960247099399,-0.0980321764945983,-0.0030735679902136,-0.0353899374604225
6.4581611328125,-0.7736551991410553,0.8972910772904753,0.3910527429848909,-0.0974279344081878,-0.0370499566197395,-0.0314559042453765
6.46818896484375,-0.7109576276876032,0.9315611572913824,0.2510457218796014,-0.0939168259501457,-0.0620344057679176,-0.022741774097085
6.478217041015625,-0.6770082310084253,0.935701471966505,0.069905895397067,-0.0836070328950882,-0.0740547776222229,-0.0052035725675523
6.4882451171875,-0.6085102661805227,0.8990520956136285,-0.1249561669677495,-0.0759254097938537,-0.0627951994538307,0.0115442480891942
6.498273193359375,-0.5691618234694004,0.8581924811545759,-0.3454915997713804,-0.0699794143438339,-0.0381591878831386,0.028894929215312
6.508300048828125,-0.5540307802351191,0.781548948065564,-0.5439765288084745,-0.067118115723133,-0.0132921887561678,0.0421902313828468
6.518328125,-0.5226600018722937,0.6647234805833548,-0.6771738698989153,-0.0659067332744598,0.0180452987551689,0.0378943942487239
6.528356201171875,-0.5501045467020943,0.5371195025205612,-0.7726596122324466,-0.0758112892508506,0.056792963296175,0.0137536386027932
6.538384033203125,-0.6168471192300319,0.4089017764735966,-0.8442582830220461,-0.0919801443815231,0.0964508950710296,-0.030381865799427
6.548412109375,-0.6680528442017734,0.2626814338114112,-0.8534329386025666,-0.1180476918816566,0.1428985595703125,-0.0888726040720939
6.55843896484375,-0.6764490627557039,0.1987027365062385,-0.7902543056339025,-0.1531190872192382,0.1859278678894043,-0.1566686183214187
6.568467041015625,-0.648205257306993,0.2555000709399581,-0.6727180595338345,-0.1743037402629852,0.1617032289505005,-0.2090868204832077
6.5784951171875,-0.4920127885436638,0.3738067168906331,-0.5920043543964624,-0.1735641062259674,0.1022637486457824,-0.2308131009340286
6.588523193359375,-0.2930249697520397,0.4956114340901374,-0.6282891352206468,-0.1503394693136215,0.0318524353206157,-0.2338102161884308
6.59855126953125,-0.2433461803529411,0.521967014639452,-0.7496797186613082,-0.1136597171425819,-0.0832961648702621,-0.2268499732017517
6.608578125,-0.1352288286517374,0.4928706840146332,-0.8698387144804001,-0.0821598470211029,-0.2210550904273986,-0.2011374086141586
6.61860595703125,0.0495673557807225,0.5124109585259109,-1.0174608867645265,-0.0564562603831291,-0.3663568794727325,-0.1641192287206649
6.628634033203125,0.0780808998152148,0.3507442596025765,-1.3061480647742747,-0.0481639802455902,-0.4532773792743683,-0.1239968389272689
6.6386630859375,0.0114369562230072,0.0857688696350902,-1.694137913057208,-0.0552580431103706,-0.430206835269928,-0.0901728644967079
6.648689697265625,-0.0756514898443594,-0.2043166308652609,-2.133725846630335,-0.0671639740467071,-0.3067280650138855,-0.0583190582692623
6.658718017578125,-0.1386826771663502,-0.5052927970837802,-2.4516069704204795,-0.0738401040434837,-0.0959348380565643,-0.0427572838962078
6.668745849609375,-0.243194003732223,-0.755183869035542,-2.5950281838834286,-0.0586196072399616,0.1531988084316253,-0.0474721416831016
6.67877392578125,-0.3525478018932044,-0.9481653052855282,-2.4810651200950145,-0.0276404898613691,0.3860872685909271,-0.0712014883756637
6.688802001953125,-0.4517646205138415,-1.1006657511305062,-2.098836319556832,-0.0013929062988609,0.5560060143470764,-0.1231376603245735
6.6988291015625,-0.6088062534524128,-1.190741962570697,-1.366696933761239,-0.0018475381657481,0.626295268535614,-0.1992872804403305
6.70885693359375,-0.6310856340713799,-1.1346733808029443,-0.3257756764322519,-0.0430599525570869,0.5812265872955322,-0.2718861103057861
6.718885009765625,-0.5313429284131154,-1.0059797078073025,0.6673392891049384,-0.1044014543294906,0.4444023668766022,-0.3323763012886047
6.7289130859375,-0.442445514961332,-0.8987126345261931,1.4072574922084808,-0.1673322319984436,0.2620511949062347,-0.3725442290306091
6.738941162109375,-0.3723238944543525,-0.7652866723116487,1.7966402561545372,-0.2124595940113067,0.0713543593883514,-0.3885467052459717
6.748968017578125,-0.2634941932327114,-0.6333670960720628,1.875558310046792,-0.2266957908868789,-0.0958801656961441,-0.3874563872814178
6.758995849609375,-0.192318369231373,-0.551953718232736,1.7199913162380456,-0.2100018858909607,-0.2058853209018707,-0.3645020127296448
6.769024169921875,-0.0871666167369578,-0.4578102573536336,1.4010902017503977,-0.1655183136463165,-0.2507409453392029,-0.3185270726680755
6.779052001953125,0.0006100125239696,-0.3947086351439356,1.0154559766829012,-0.096117578446865,-0.2483817189931869,-0.249848261475563
6.789079833984375,0.0946223395703826,-0.3868853941723704,0.6888385887295008,-0.0210446622222661,-0.2201207876205444,-0.1700272113084793
6.79910693359375,0.2037469229522161,-0.4103544594999402,0.5074199453055859,0.0423210114240646,-0.180180549621582,-0.1010959148406982
6.809135009765625,0.2570900252788327,-0.5153220236670225,0.3988625399529933,0.0969267338514328,-0.1317349970340728,-0.0426890663802623
6.8191630859375,0.2821783806376159,-0.6060978347439319,0.336452553269267,0.1414352655410766,-0.1047669053077697,0.0056440467014908
6.829190673828125,0.29179299853798,-0.7338894443333148,0.342778833681345,0.1709819734096527,-0.1073821261525154,0.037813700735569
6.839218017578125,0.3061500982576981,-0.8440501201640814,0.3432657404154539,0.1837122738361358,-0.1311176866292953,0.0496240779757499
6.849245849609375,0.2745145680114627,-0.9745470431894064,0.405778602951765,0.1773939281702041,-0.1688493490219116,0.0519040077924728
6.859274169921875,0.2986194652908481,-1.0856213267337531,0.4246557373791932,0.159669816493988,-0.2181333899497985,0.0473207756876945
6.869302001953125,0.345947198051773,-1.1578257083315402,0.3712468032747507,0.1427520960569381,-0.2517920136451721,0.0404357053339481
6.879330078125,0.3845019331019371,-1.21713575623855,0.2294774486720562,0.1369598060846328,-0.2549808025360107,0.029393246397376
6.88935693359375,0.3525507610352709,-1.247767187476158,-0.0007663081973791,0.1411463022232055,-0.2256412804126739,0.0137724764645099
6.899385009765625,0.3063298570050858,-1.2721195384442805,-0.1282820965200662,0.1454262733459472,-0.1585896611213684,-0.0057532177306711
6.9094130859375,0.3058424022817053,-1.2441577648073434,-0.1786462561011314,0.158420905470848,-0.0664368271827697,-0.0303190145641565
6.919440673828125,0.2369836413173936,-1.217215178150311,-0.1840636049747467,0.1760956943035125,0.0265814922749996,-0.0611741058528423
6.929468994140625,0.1415875317623838,-1.1645417187135665,-0.0607744944363832,0.1860849410295486,0.0990197360515594,-0.0922233685851097
6.93949609375,0.0615415698187425,-1.008777741027996,0.2490776366770267,0.18292036652565,0.1213797852396965,-0.1152574121952056
6.949524169921875,0.0480158246229402,-0.7791206249400973,0.6228671101719141,0.1667358130216598,0.1106278076767921,-0.1236458346247673
6.9595517578125,0.0583951250191777,-0.5470442458160222,0.9747019414901732,0.1429967731237411,0.0720818266272544,-0.1189973279833793
6.969580078125,0.0864233149558305,-0.3261397605042904,1.2246101837724446,0.1230307817459106,0.0108520295470952,-0.0953218266367912
6.97960791015625,0.1248399567095562,-0.1426268482148647,1.3582956006407736,0.1108716577291488,-0.0387131422758102,-0.0665241181850433
6.989635009765625,0.1088735586296767,0.0065879270229488,1.3448784851849078,0.1119510307908058,-0.0755134969949722,-0.0357542224228382
6.9996630859375,0.0437551349711604,0.1073546784993261,1.2435761655271051,0.1216158494353294,-0.0945700034499168,-0.0047818068414926
7.00969091796875,-0.0085793565684929,0.1805953443422913,1.1110486865222453,0.1370938718318939,-0.0917941927909851,0.0264799762517213
7.019718994140625,-0.0274885118356905,0.2700275587905198,0.9824977099329232,0.150376871228218,-0.0815003663301467,0.0628706663846969
7.02974609375,0.0378882156991399,0.3690322690304368,0.9291168328791856,0.1520245671272277,-0.076036088168621,0.0996595695614814
7.039774169921875,0.1100610148485749,0.4545324047267436,0.9150678492605686,0.1522222012281417,-0.0804727673530578,0.1380345672369003
7.0498017578125,0.1599855957022868,0.5311823675565421,0.8906412640124559,0.1511460095643997,-0.0904622822999954,0.1728133261203766
7.059830078125,0.2051986013315618,0.5605959109043702,0.8472937051951884,0.1527357399463653,-0.1071931347250938,0.1993967890739441
7.06985791015625,0.2060197449887171,0.5753447498880326,0.777082689371705,0.1580114662647247,-0.1314734369516372,0.2228347361087799
7.079885009765625,0.2461239745032042,0.579179688408412,0.6424415792137385,0.1614845395088195,-0.1567168980836868,0.2421397864818573
7.089912841796875,0.2549249014005065,0.5871617732034996,0.5130863005042076,0.1621564626693725,-0.1814582049846649,0.2530637979507446
7.09994091796875,0.2173044880583882,0.54074909119457,0.4211065204650163,0.1479524970054626,-0.2061498612165451,0.2658558785915375
7.109968994140625,0.2339458627903833,0.5432558133184909,0.3121341045707464,0.1240945532917976,-0.2164496481418609,0.2729276120662689
7.119996826171875,0.1969925350548699,0.5057219092160463,0.1795990267813205,0.0888567790389061,-0.2071743011474609,0.2776757180690765
7.130024169921875,0.1308022626474499,0.4935934453312307,0.0323778365135192,0.0484888553619384,-0.179204985499382,0.2799474000930786
7.140052001953125,0.128039081544429,0.5070149812338873,-0.1331488257735967,0.0200719498097896,-0.1285898089408874,0.2844507098197937
7.150079833984375,0.1432455281024798,0.5006474920285865,-0.2435164954185485,0.002302540000528,-0.0755002349615097,0.2876164019107818
7.16010791015625,0.1258887716427445,0.4652983480866998,-0.2983884878128767,-0.0045683411881327,-0.0391450077295303,0.2821095585823059
7.170135986328125,0.1144849322380498,0.4723910828266292,-0.2331622746646404,-0.006658389698714,-0.0244142636656761,0.2723693251609802
7.180162841796875,0.1060829049978405,0.4685442346727475,-0.1368161161094903,-0.0120159517973661,-0.0335161834955215,0.2548505663871765
7.19019091796875,0.0669976432675495,0.4602090621236711,0.0262584768503904,-0.0331542640924453,-0.0630019083619117,0.2382177710533142
7.200218994140625,0.0091937621397897,0.453013159270212,0.170025142750144,-0.0701699554920196,-0.097696416079998,0.2156463861465454
7.2102470703125,-0.0329751448195427,0.4655274076022207,0.2526841367363929,-0.1070949509739875,-0.1220124065876007,0.2035348713397979
7.220275146484375,-0.055506198644638,0.4992522382779046,0.2385293546557426,-0.1359165459871292,-0.1354803740978241,0.1991643756628036
7.230302001953125,-0.0401981548756361,0.5786642862321809,0.1746826131671667,-0.141368567943573,-0.1351349651813507,0.2114961445331573
7.240329833984375,-0.0298789323698729,0.6665044457159937,0.0493283867925405,-0.126468688249588,-0.1363788694143295,0.2345300763845443
7.25035791015625,0.0355227469431236,0.7404783212043344,-0.0177723880559206,-0.1036565750837326,-0.1482469886541366,0.2657338082790375
7.260385986328125,0.1246512292044237,0.7862005001984537,-0.0397919121623039,-0.0809700936079025,-0.1603706330060959,0.296159416437149
7.2704130859375,0.1248329059142619,0.8051078836336731,-0.1207078618735074,-0.0649322718381881,-0.1600923240184784,0.3167211413383484
7.28044091796875,0.0988915687216445,0.7342384039014578,-0.157456753078103,-0.065139964222908,-0.16028493642807,0.3276898264884949
7.290468994140625,0.0834185801818966,0.6223682938043028,-0.2056418150544166,-0.0728559419512748,-0.1644676923751831,0.3247092068195343
7.3004970703125,0.0276261484744027,0.4950704590812325,-0.234080558553338,-0.0873282775282859,-0.1776857078075409,0.3037996292114258
7.310525146484375,-0.0515370027527213,0.3627802228983491,-0.2615413969308138,-0.114752173423767,-0.1836317479610443,0.2687998414039612
7.320552001953125,-0.1501746332459151,0.2920288165878504,-0.2754962725251912,-0.1516343355178833,-0.1788871735334396,0.2297255843877792
7.330579833984375,-0.1246012160502374,0.2601891055390238,-0.2820645449995994,-0.1872650235891342,-0.159898042678833,0.2029046267271042
7.340608154296875,-0.0305892725963145,0.3041663405619561,-0.3344043885678052,-0.2041567414999008,-0.1446743160486221,0.1927929818630218
7.350635986328125,0.089930080967769,0.4259093176368623,-0.4267278674781322,-0.1931885182857513,-0.1445997506380081,0.2082164138555526
7.360663818359375,0.2381365559458732,0.5361484655313193,-0.5527852736860513,-0.147977814078331,-0.1628421545028686,0.247338131070137
7.37069091796875,0.3387525007747113,0.5845118066839874,-0.7591758612811565,-0.0824941471219062,-0.1608373373746872,0.3062134385108948
7.380718994140625,0.4622316539924591,0.5659138545241207,-0.9689093295633792,0.0031247693113982,-0.1673901230096817,0.385645717382431
7.3907470703125,0.6219345054969191,0.5216259461168199,-1.2094108610749243,0.1078530475497245,-0.2201955467462539,0.4762728214263916
7.400775146484375,0.7208966917693614,0.4490929170865565,-1.4908546438276766,0.2098381966352462,-0.2777663171291351,0.5581788420677185
7.410802978515625,0.7604801488127559,0.3282742152497172,-1.7930343406170606,0.2760201394557953,-0.3114446401596069,0.6216097474098206
7.420829833984375,0.745325322844088,0.0630300913434475,-2.0328671790868045,0.2970207631587982,-0.2980618774890899,0.6500231623649597
7.430858154296875,0.552341913832724,-0.356982058013603,-2.2122809124290943,0.2498316466808319,-0.2277227491140365,0.6339472532272339
7.440885986328125,0.2660658155526966,-0.810765982460603,-2.0867501604437826,0.1534281224012375,-0.150468423962593,0.5813521146774292
7.450913818359375,0.1305894236143678,-1.201733166053891,-1.7844038749158382,0.0494215600192546,-0.023747231811285,0.4897990524768829
7.46094091796875,-0.0949621568508446,-1.4954653524935244,-1.6285709236472845,-0.0288281943649053,0.1405403465032577,0.3512135446071625
7.470968994140625,-0.4983433432720601,-1.7510639153718948,-1.500540756061673,-0.0735104456543922,0.3072025775909424,0.1995518654584884
7.4809970703125,-0.7070826859503984,-1.8717448892384767,-1.227270927414298,-0.0905487835407257,0.4262251257896423,0.0644227862358093
7.491024658203125,-0.7922817198082804,-1.81426855956465,-0.6618026977658271,-0.1020528450608253,0.483936607837677,-0.0453702919185161
7.501052978515625,-0.8911979480471461,-1.620863418009877,0.0746703333199024,-0.1203119829297065,0.4711384773254394,-0.1208826154470443
7.511079833984375,-0.914026523514092,-1.3390320972442626,0.8302659980267286,-0.154709905385971,0.4200651943683624,-0.1665164232254028
7.521108154296875,-0.9524638061970472,-1.096852987909317,1.4552648595303297,-0.192905992269516,0.3445418775081634,-0.1915552914142608
7.531135986328125,-1.0269310181602835,-0.93029530207403,1.8705144706606864,-0.2189551740884781,0.2606187462806701,-0.195315420627594
7.5411640625,-1.0847609835773706,-0.7634815225858241,2.099200476694107,-0.2166705280542373,0.1600594520568847,-0.1752936542034149
7.55119189453125,-1.082681327759102,-0.5941445082303136,2.1509762566387653,-0.1856436282396316,0.052224863320589,-0.1370453387498855
7.561218994140625,-1.0745143148511649,-0.4010270245105028,2.101652546021342,-0.1253765672445297,-0.0555112957954406,-0.0762494504451751
7.5712470703125,-1.03110114345178,-0.2556905520107597,1.9125848491489883,-0.0441956892609596,-0.1576022505760193,0.0189151484519243
7.58127490234375,-0.8207131567835807,-0.0653639411184936,1.6654805583715435,0.0419959388673305,-0.2395757436752319,0.1419369578361511
7.591302978515625,-0.5389630845606327,0.1837361265860498,1.4032260447353124,0.1250974833965301,-0.2923305332660675,0.2709710896015167
7.601330810546875,-0.3863579727647825,0.30275092080608,1.0663701713621616,0.2078069448471069,-0.3160654902458191,0.3907895386219024
7.611358154296875,-0.3335079511847347,0.2410956980124115,0.6704132897228002,0.2904134094715118,-0.318802148103714,0.4867810606956482
7.6213857421875,-0.2981771100845187,0.0527921173803508,0.2646048761546611,0.3550650179386139,-0.3034526407718658,0.5401549935340881
7.6314130859375,-0.3346981108173728,-0.1501238529067486,-0.0430231491684913,0.3811863660812378,-0.2727972567081451,0.5523073077201843
7.64144091796875,-0.3971959219150245,-0.3748910049960017,-0.24938860232234,0.3669900000095367,-0.2304425835609436,0.5297414660453796
7.65146826171875,-0.4191607201594859,-0.6244646815616637,-0.4114683390259742,0.3099373579025268,-0.1603859961032867,0.4751088619232178
7.661495849609375,-0.5244117774430662,-0.9022272915836425,-0.4672931021004915,0.2274372428655624,-0.0707373023033142,0.3911753296852112
7.671524169921875,-0.6139467946786433,-1.1318922987170517,-0.4469973330467939,0.1417878568172454,0.0297546833753585,0.2775947153568268
7.681552001953125,-0.6590656009521335,-1.2053673578377813,-0.35450025113523,0.0719613134860992,0.1260145008563995,0.1504528373479843
7.691580322265625,-0.7349124307055026,-1.2199310860455037,-0.1799006400763988,0.0294287670403718,0.1975613832473755,0.0275625996291637
7.70160693359375,-0.7251968731813132,-1.116840421666205,0.0958458078175783,0.006556695792824,0.231035366654396,-0.065617486834526
7.711635009765625,-0.5951981089364737,-0.8517461545594036,0.4973778592407703,-0.0128321824595332,0.2309120595455169,-0.1226642653346061
7.7216630859375,-0.4439086463164537,-0.4854210986610501,0.943713513508439,-0.0303670316934585,0.212861955165863,-0.1469950675964355
7.731691162109375,-0.3495112837415188,-0.1477994285471737,1.2857634483933449,-0.0426255650818347,0.185870811343193,-0.1479804366827011
7.74171923828125,-0.2939290241859853,0.0835777893316,1.5249264247775076,-0.036359529942274,0.1509623974561691,-0.1365377604961395
7.75174609375,-0.287252578629367,0.2910671319488436,1.6564818438798188,-0.0169807709753513,0.1152177155017852,-0.1161398142576217
7.761774169921875,-0.3142237337937578,0.491389688209258,1.7117817062973977,0.0052807163447141,0.0750254169106483,-0.0852361693978309
7.771802001953125,-0.2568899909283966,0.6399661290109158,1.732827416935563,0.0280566029250621,0.0299676656723022,-0.0441814102232456
7.781830322265625,-0.2042904004454612,0.7552583225112408,1.692728046259284,0.0445834919810295,0.0002873544581234,-0.0051038218662142
7.791858154296875,-0.2205315603461116,0.8112573461741208,1.5614286477446555,0.060214914381504,-0.0271701030433177,0.0341381207108497
7.801885009765625,-0.24391002478078,0.8696220760550349,1.3944745830029248,0.0764737874269485,-0.0440320149064064,0.0736393705010414
7.8119130859375,-0.2747125017363578,0.894511821835488,1.187007306087017,0.0968397781252861,-0.0464275330305099,0.1110482662916183
7.821941162109375,-0.2791199429150671,0.9937364584363996,0.979810662806034,0.1072672978043556,-0.0339896939694881,0.1491869688034057
7.83196923828125,-0.2708618541901931,1.0783164105478673,0.7921691993445158,0.1081871539354324,-0.0219114609062671,0.1905905902385711
7.841996826171875,-0.2425463717447593,1.1094441739350556,0.6075222415238618,0.0898982062935829,-0.0123689919710159,0.2362071722745895
7.852024169921875,-0.2171732628941536,1.0768454612124712,0.4425806856483221,0.0703500658273696,0.0019841147586703,0.2784395813941955
7.86205224609375,-0.2200290541840717,0.938859789866954,0.2576052265256643,0.0532540939748287,0.0274239238351583,0.295958399772644
7.872080078125,-0.3027627208417281,0.8322459928628057,0.0147831431120634,0.0289093386381864,0.0642106980085372,0.289380669593811
7.88210791015625,-0.460555610539019,0.7848132836237549,-0.2110088950455188,-0.0203929133713245,0.0801688805222511,0.2772470116615295
7.892135009765625,-0.5273420587413012,0.676818188329041,-0.1116267297953367,-0.087439052760601,0.1474376618862152,0.2624837756156921
7.9021630859375,-0.5600440491752698,0.5665931785577908,-0.1325900228470563,-0.1494656950235366,0.1966604590415954,0.2365846335887909
7.912191162109375,-0.6845199948780238,0.3824222042184322,-0.1226718554228544,-0.130254715681076,0.3064705729484558,0.1737782508134842
7.92221923828125,-0.828103193969652,0.259382319200784,-0.2933136687666177,-0.0725745931267738,0.385565310716629,0.0688970014452934
7.9322470703125,-1.180431142567098,0.2677465717138722,-0.4456470874816179,-0.0391897372901439,0.3926591873168945,0.0086408546194434
7.94227392578125,-0.82034140086174,0.4433571133809164,-0.099193949201703,-0.0344218350946903,0.4356117248535156,-0.0122828101739287
7.95230224609375,-0.6788597771592437,0.4554033788749947,0.1683709458023309,-0.0644998401403427,0.4126885533332824,-0.0147291896864771
7.962330078125,-0.8034713684730231,0.4936965403795242,0.4121902235597371,-0.1211242005228996,0.3825500309467315,-0.0097896615043282
7.97235791015625,-0.7638375694818794,0.5841034450788051,0.6590642127126455,-0.1885506510734558,0.3261480033397674,0.0025588842108845
7.982385986328125,-0.6736332746826111,0.6970509020838886,0.8457575816690921,-0.2562164962291717,0.2382549941539764,0.0251174345612525
7.9924130859375,-0.674556819268316,0.7949673786956817,0.8903963493406772,-0.3249963819980621,0.1602930873632431,0.0544199272990226
8.002441162109376,-0.6533375786941498,0.8253415472365915,0.8216092288404703,-0.377260148525238,0.0785812512040138,0.101862221956253
8.01246923828125,-0.6096931192895397,0.7516542336046695,0.5791951417058706,-0.4168030321598053,0.0199091471731662,0.1480654031038284
8.0224970703125,-0.620470205098018,0.6750904146883636,0.2779793215125799,-0.4220515787601471,-0.0048338086344301,0.185166597366333
8.032525146484375,-0.6700405839528888,0.6069474373105913,-0.0967553238779306,-0.3751591444015503,-0.0229635424911975,0.2124014198780059
8.04255224609375,-0.7382960817944259,0.5112589389465749,-0.4277162939935922,-0.2615155875682831,-0.0135426837950944,0.2119316756725311
8.052580078125,-0.7307686088990419,0.3806508106317371,-0.7856874361097812,-0.1085505187511444,-0.0116236098110675,0.1888154298067093
8.062608154296875,-0.8215925699666142,0.416059977665171,-0.945921837207675,0.0467675477266311,0.0073918690904974,0.1520242691040039
