seconds_elapsed,ax,ay,az,gx,gy,gz
0.06779931640625,0.0823325750434771,0.1988463096953928,0.2930155626028776,0.0058999871835112,-0.0284485593438148,0.3327779471874237
0.077827392578125,0.0969816799797117,0.194574185334146,0.4127887739747762,0.0122509710490703,-0.0291514340788126,0.3093850612640381
0.08785546875,0.1282234251353889,0.1684539479106664,0.4978945765912532,0.0141713768243789,-0.0344665721058845,0.2817323803901672
0.097882080078125,0.1579644468719139,0.1736167375013232,0.5504354956895112,0.0264844391494989,-0.0416204892098903,0.2539073526859283
0.107910400390625,0.2475279960822314,0.2285017355076968,0.3925742534637451,0.0532417520880699,-0.0131121464073657,0.2276011705398559
0.117938232421875,0.1624886645643971,0.2096894830100238,0.3271539790481328,0.0821340754628181,-0.0207311194390058,0.2061897367238998
0.12796533203125,0.3005041465262882,0.2660192729972302,0.5075380187273025,0.0981492549180984,-0.0546451434493064,0.1912616640329361
0.1379931640625,0.3937950274303555,0.3540580603256821,0.5434779316365719,0.1098865792155265,-0.0897353515028953,0.1687946021556854
0.148021484375,0.4070994032267481,0.3544498361222445,0.43053661211133,0.1163239777088165,-0.0957610234618187,0.157203733921051
0.15804833984375,0.4644918540094047,0.3563064237743616,0.1205436112225055,0.1351124495267868,-0.0895918756723404,0.1481682211160659
0.168076171875,0.4288790176300331,0.3177962219856679,0.0619616583943367,0.1459376662969589,-0.0959190130233764,0.1462994664907455
0.178104248046875,0.5106651377718895,0.4223930531442165,0.1015577557235956,0.1460493206977844,-0.108861044049263,0.1383798271417617
0.18813232421875,0.4702583816468715,0.3981977924339473,0.0380026906579732,0.1470996737480163,-0.1129370108246803,0.1166886463761329
0.198159423828125,0.395959548520483,0.2884436515774577,-0.0526531473010778,0.1487331241369247,-0.109538547694683,0.0846165865659713
0.2081875,0.3510258164903149,0.2263587321296334,-0.092590020892024,0.1452864706516266,-0.096193715929985,0.0467818602919578
0.21821533203125,0.3003830956961959,0.2281824404254555,-0.061686933106184,0.1319067925214767,-0.0786276385188102,0.005878712516278
0.228242431640625,0.3002339147501625,0.2324151095591485,-0.0260170693099498,0.1142870560288429,-0.0614688917994499,-0.0325706750154495
0.238270263671875,0.3145418232996017,0.2508612321581691,0.0041962826460599,0.0891833305358886,-0.0477534160017967,-0.0636922121047973
0.24829833984375,0.3214829476743936,0.2993614975634962,0.0575432574301958,0.0737204849720001,-0.0319827049970626,-0.0912503376603126
0.2583251953125,0.2923664875769987,0.3331774040561169,0.0620358926743268,0.0717289373278617,-0.0215626899152994,-0.1161054298281669
0.268353271484375,0.2373746681952848,0.3929468131031841,0.0861807383716106,0.0774736404418945,-0.0197671856731176,-0.1390104740858078
0.27838134765625,0.2372209754709154,0.435440239309147,0.1664659889638423,0.079518012702465,-0.0233161151409149,-0.1546433717012405
0.288408203125,0.2257886406240984,0.4924140262883156,0.232799286571145,0.0756785348057746,-0.0302552469074726,-0.1689586490392685
0.298436279296875,0.2841556355273351,0.6041144789069891,0.1189706628173589,0.0744176283478736,0.0001202318817377,-0.1644098162651062
0.308464111328125,0.2263509506819769,0.6481991928923875,0.0759562814772129,0.0659884586930275,0.0209453515708446,-0.1618976593017578
0.318491455078125,0.1921990902332589,0.6315745135668664,0.2722492534279823,0.0527719222009182,0.0124812312424182,-0.1617311984300613
0.328519287109375,0.2331193123057484,0.6673612086758017,0.3734855221122503,0.0449097380042076,-0.0157117899507284,-0.172492504119873
0.33854736328125,0.1803173311185091,0.7137257041614502,0.4092752128958702,0.0323307514190673,-0.042130023241043,-0.1939867436885833
0.348574462890625,0.1815885931633412,0.7639500899456441,0.4259463617116212,0.0116640888154506,-0.0725377276539802,-0.2140928208827972
0.358602294921875,0.3202377333862707,0.8494096744358539,0.3465449082165956,-0.0087219085544347,-0.0673122033476829,-0.2187236100435257
0.36863037109375,0.3218701203610747,0.9140102299664168,0.1909697311013936,-0.01683309674263,-0.0784396827220916,-0.2204765081405639
0.3786572265625,0.37005437861979,0.9811395002570004,0.1648275741070508,-0.0267344638705253,-0.088149644434452,-0.2221357375383377
0.388685302734375,0.4257383084515109,1.035706445290148,0.0845306330770254,-0.0335870459675788,-0.0996813997626304,-0.2235916852951049
0.39871337890625,0.3913980127586051,0.9803406780295072,-0.0189531222730875,-0.0487163364887237,-0.0926024541258812,-0.2230405509471893
0.408739990234375,0.3355011342959478,0.9047982380501924,-0.1298690734505653,-0.0532181449234485,-0.0877022370696067,-0.2135503739118576
0.418768310546875,0.2561276647863909,0.8186042748708278,-0.1855821928441524,-0.0601225011050701,-0.0656477287411689,-0.2062323242425918
0.428796142578125,0.1329556778216734,0.7825170624453573,-0.1694447125136852,-0.0652730613946914,-0.0418683588504791,-0.2054325640201568
0.438823486328125,0.0877259585196152,0.6994224535208196,-0.1199555822014808,-0.0756302773952484,-0.0302473232150077,-0.2016882002353668
0.448851318359375,0.120628695690073,0.616662775639072,-0.0109252986401319,-0.095298521220684,-0.0340348705649375,-0.199155792593956
0.45887939453125,0.1093150187868624,0.5289738246615976,0.0444493825793266,-0.109496533870697,-0.0361887663602829,-0.1989246606826782
0.4689072265625,0.0444555931244045,0.4171498187284916,-0.0073988780796527,-0.1089439317584037,-0.0298733506351709,-0.2061439603567123
0.478934326171875,-0.0232553495116531,0.3003187982883304,0.002193126130104,-0.0996030420064926,-0.026855194941163,-0.2140177190303802
0.48896240234375,-0.0731392147624865,0.2256988069161772,0.0892260974168777,-0.0959134995937347,-0.0312611311674118,-0.2183631956577301
0.498990234375,-0.0367381140822544,0.1734349511936307,0.2668716520428657,-0.100349485874176,-0.0430928170680999,-0.2208160758018493
0.509017333984375,-0.0083806921912357,0.1119302427865564,0.3326204277604818,-0.1003537476062774,-0.0632007494568824,-0.2197830379009246
0.51904541015625,-0.017001769009605,0.0516010809648782,0.3605757716566324,-0.0996454358100891,-0.0758745297789573,-0.2176058739423751
0.529073486328125,-0.0465584471551701,0.0083610741753131,0.3496656705856323,-0.0826084017753601,-0.0803606286644935,-0.2154433876276016
0.539100341796875,-0.068773639964126,-0.0451088694013655,0.2825783397406339,-0.0628475695848465,-0.0556863099336624,-0.2043694704771042
0.549128173828125,-0.1727077328976243,-0.104715854428336,0.2653086405098438,-0.0338729098439216,-0.0415100380778312,-0.2027284353971481
0.559156494140625,-0.2987801174789667,-0.1985731918424367,0.4491039499372243,-0.0139942448586225,-0.0641263946890831,-0.200864776968956
0.569183349609375,-0.3291379559395834,-0.2021674169421196,0.5889630870044231,0.0014467620057985,-0.0981911569833755,-0.1939490735530853
0.57921142578125,-0.3866808480435982,-0.1849237289354205,0.4386345783710479,0.0175668448209762,-0.08905591070652,-0.1777750849723816
0.5892392578125,-0.5482468630714342,-0.2884622101474553,0.330738267275691,0.0426413044333457,-0.1027853116393089,-0.1502928584814071
0.599266357421875,-0.4776818827111274,-0.3333921427853405,0.3206879979044199,0.0700529068708419,-0.0939217135310173,-0.1096350625157356
0.60929443359375,-0.5093515709552914,-0.2771181015733629,0.2050841811716556,0.1010118871927261,-0.09477099776268,-0.0797227025032043
0.619322021484375,-0.6623590164743364,-0.3619131577402353,0.279752760925889,0.1294375509023666,-0.1179906353354454,-0.0525336451828479
0.629349365234375,-0.554118093192391,-0.3325994580376893,0.2461427522689104,0.1516280770301818,-0.119770161807537,-0.0244042724370956
0.63937744140625,-0.6082191742794588,-0.3287986775152385,0.1977449243247508,0.1699870079755783,-0.1273471862077713,0.0004313324170652
0.649405517578125,-0.5339811679622158,-0.2623512520089745,0.1338403151690959,0.1877287328243255,-0.1130180433392524,0.0376178473234176
0.659432373046875,-0.5647742560349405,-0.2294535563398152,0.1855266632646322,0.1962158977985382,-0.1280322819948196,0.0620405562222003
0.669460205078125,-0.4249282707102596,-0.1312543172638863,0.1928133131414652,0.2048722356557846,-0.1181676611304283,0.0844742283225059
0.67948828125,-0.4837612756900489,-0.0878067321382462,0.2191162136554718,0.2105548530817031,-0.1369364857673645,0.0969062373042106
0.689515380859375,-0.4356999131586402,-0.0532411032568663,0.2763268781304359,0.2113796323537826,-0.1271296590566635,0.107617475092411
0.699543212890625,-0.5574322227090597,-0.0913832023855298,0.3584060264021158,0.1962639391422271,-0.1378261744976043,0.0990612059831619
0.7095712890625,-0.5774558968231082,-0.1096897703833878,0.5382230798482894,0.1685431003570556,-0.1144873052835464,0.0870687216520309
0.719598388671875,-0.73879175635688,-0.0681615359477698,0.5604185450434684,0.1370166391134262,-0.1049972623586654,0.0563646927475929
0.72962646484375,-0.8214666054993868,-0.0708421533338725,0.6935726315140723,0.1066326275467872,-0.0722784698009491,0.042686428874731
0.739654052734375,-0.7790420067459345,0.0324829043231904,0.716803869497776,0.0897175148129463,-0.0655786171555519,0.0300701614469289
0.749681396484375,-0.8021591168306768,0.1604744203988462,0.822532773426175,0.0806417241692543,-0.0520281866192817,0.0201379023492336
0.759709228515625,-0.7824184243764728,0.3618689532723277,0.7418728443026542,0.0902879983186721,-0.0572166927158832,0.0239170119166374
0.769737548828125,-0.7134742136184126,0.5064956700675189,0.7484826178312302,0.1175382658839225,-0.0898603945970535,0.0494415424764156
0.779764404296875,-0.6268588832218199,0.6852193753190339,0.6702519616812467,0.1529317051172256,-0.1350631564855575,0.0810488164424896
0.789792236328125,-0.621192454957962,0.8046702228687703,0.5703922420471906,0.176024779677391,-0.176155999302864,0.1055917143821716
0.7998203125,-0.6070875764336436,0.8226753237020223,0.4009475295335054,0.1923975199460983,-0.2083664089441299,0.1404262632131576
0.809847412109375,-0.5683320946469903,0.7752425413977354,0.1680804384231567,0.2008535861968994,-0.2184259593486786,0.174619123339653
0.819875244140625,-0.5577735104274004,0.7323020290113985,-0.0719809481054544,0.2113305628299713,-0.2101873904466629,0.2021905034780502
0.8299033203125,-0.6141500621657818,0.6806016523905098,-0.375472312015295,0.2256847321987152,-0.1844391524791717,0.2116652280092239
0.83993017578125,-0.6517802662495523,0.6319456849668175,-0.618728695192933,0.2391398102045059,-0.1331482827663421,0.2069711536169052
0.84995849609375,-0.6259647839263082,0.6222670253869146,-0.7087585102081299,0.2406194657087326,-0.0791143402457237,0.1955677717924118
0.859986083984375,-0.594987169599533,0.6306437355227769,-0.612447422966361,0.2172544747591018,-0.0150503329932689,0.1721283197402954
0.870013427734375,-0.5887175878107548,0.6160024120341986,-0.449865581959486,0.1744367033243179,0.0581719502806663,0.1369988173246383
0.880041259765625,-0.5754769979655743,0.5950478868108242,-0.2475613868951797,0.1348192691802978,0.118839144706726,0.092922531068325
0.890069580078125,-0.5760857044484466,0.6175483263019472,0.035813656181097,0.1077706068754196,0.1555521488189697,0.0364826917648315
0.90009619140625,-0.6039043432876467,0.6560082592081278,0.2885679355442523,0.0996585637331008,0.1680151671171188,-0.0183366034179925
0.910124267578125,-0.5754371043466031,0.7739858193349093,0.6012064825057983,0.1047942042350769,0.1417705118656158,-0.0672213211655616
0.92015234375,-0.5124606428865343,0.9186743493199347,0.9060726419001816,0.1058974862098693,0.0946110412478447,-0.1109785437583923
0.930179443359375,-0.4867560005266219,1.0840102382753043,1.1149065309941768,0.0986065566539764,0.0491982847452163,-0.1456342488527298
0.940207275390625,-0.4454301567953079,1.2188380301117896,1.1874778462082147,0.0874408781528472,0.014215275645256,-0.1676131933927536
0.9502353515625,-0.4489592807695269,1.3178811726659536,1.2139479199826717,0.0720435455441474,-0.0056961141526699,-0.1757909655570984
0.96026220703125,-0.4004140802439302,1.4427645666584372,1.1972329320251942,0.065133236348629,-0.0274911858141422,-0.1722746342420578
0.97029052734375,-0.3749932232614606,1.5591533962890505,1.1010475169897078,0.0710720866918563,-0.0402123071253299,-0.1557398587465286
0.980318115234375,-0.4172589051261544,1.6413941648632286,0.9711766899734736,0.0827999487519264,-0.0463451519608497,-0.1323980093002319
0.990345458984375,-0.4172350858591496,1.7074568288356065,0.8174351580262184,0.1032128110527992,-0.0462546050548553,-0.1034531742334365
1.000373291015625,-0.4107608483437448,1.741182572826743,0.6837029794067144,0.1175145208835601,-0.0461020022630691,-0.0705471560359001
1.010401611328125,-0.415813236362487,1.7495649089857934,0.5744149216920137,0.1186285242438316,-0.0443198159337043,-0.0399216040968894
1.02042822265625,-0.4655342757344246,1.698442624513805,0.4751654429107904,0.1151858195662498,-0.0345001406967639,-0.0141453025862574
1.030456298828125,-0.5422332653377204,1.5904842079676689,0.3532441135942936,0.1022995859384536,-0.0114962877705693,0.0008014228078536
1.040484375,-0.6264979409549385,1.4853561925418677,0.2477238839805126,0.0829958394169807,0.0182034857571125,0.0048558488488197
1.050511474609375,-0.6870267900671809,1.387900173048675,0.1664502068728208,0.0620743073523044,0.0579543597996234,0.0018150515388697
1.060539306640625,-0.7213534956261515,1.3113856731668114,0.0900198781430721,0.0397510193288326,0.0987353473901748,0.0028221309185028
1.0705673828125,-0.703589071680978,1.3049284598514437,0.0975391677320003,0.0226455349475145,0.1275813728570938,-0.0022876760922372
1.08059423828125,-0.7205206249985844,1.287684917975217,0.1567249316722154,0.0052643017843365,0.1412563621997833,-0.0060264482162892
1.09062255859375,-0.7579021880835294,1.2233107916116714,0.2282721645355224,-0.0154883814975619,0.1463461965322494,-0.0076381932012736
1.100650146484375,-0.7738582474324852,1.1702611923389137,0.3052390843600034,-0.0376166477799415,0.150995671749115,-0.0105536244809627
1.110677490234375,-0.7738024255920201,1.1598263075642288,0.3068395052939653,-0.0521095693111419,0.1551174521446228,-0.0097094029188156
1.120705322265625,-0.7925926854535937,1.1163896091587842,0.2872884171277284,-0.0575252883136272,0.1588279902935028,-0.0042172926478087
1.1307333984375,-0.8247543219331651,1.0521901087097822,0.2881985177099704,-0.0571921281516552,0.15408755838871,-0.0027099435683339
1.14076025390625,-0.8610263163410127,1.0107882771328092,0.3122404875546694,-0.0595305599272251,0.1519026905298233,-0.0028112537693232
1.150788330078125,-0.8742731897965073,0.9561888911347836,0.3899281228691339,-0.0647152066230773,0.1471074074506759,-0.0053985146805644
1.16081640625,-0.8725278074339031,0.9227028011184184,0.3638508478045463,-0.0665520280599594,0.146204724907875,-0.0098042609170079
1.170843505859375,-0.8865250608652829,0.9096766577415168,0.3706201958090067,-0.0689496770501136,0.1371984481811523,-0.0154166063293814
1.180871337890625,-0.827029865649715,0.9169573162689804,0.3454401618450879,-0.0688721239566803,0.1284352540969848,-0.0156380217522382
1.190899169921875,-0.7882515875093639,0.9326507060937584,0.3055249155640602,-0.0649535506963729,0.1202739998698234,-0.0161000806838274
1.20092626953125,-0.8359476969249546,0.9060141897112132,0.2468798343718052,-0.0562827214598655,0.1143258959054946,-0.0167049244046211
1.210954345703125,-0.8221433357171714,0.8630145675487816,0.1803074673116207,-0.0470870919525623,0.1029360890388488,-0.0182905700057744
1.220982177734375,-0.7916356769897043,0.8612772954273968,0.1386906778097152,-0.044008195400238,0.093713492155075,-0.0259001087397336
1.231009521484375,-0.8489442488811909,0.8573758310094475,0.0847784703582525,-0.0453914441168308,0.100533053278923,-0.0394614599645137
1.241037353515625,-0.8781542690135538,0.7981012197420001,0.0014279869765043,-0.0538405776023864,0.1197708547115325,-0.0576541349291801
1.2510654296875,-0.8791150768697261,0.7322874159641564,-0.0335427886396646,-0.0650242492556572,0.1500957459211349,-0.0758147612214088
1.26109228515625,-0.8559583654269576,0.7524498409617691,-0.0540635986208915,-0.0738188624382019,0.1803724765777588,-0.1018731519579887
1.2711201171875,-0.8403344606418162,0.8110221491787583,-0.0395043273925781,-0.0790639519691467,0.2046485245227813,-0.1343125849962234
1.2811484375,-0.8153199925031512,0.8744441624492406,0.0160790281414985,-0.0714395567774772,0.2001612931489944,-0.1602521389722824
1.291175537109375,-0.7767417669795453,0.9211514800231904,0.0249251824200153,-0.0534227415919303,0.1677903085947036,-0.1711548566818237
1.301203369140625,-0.6692538905546068,1.0035002390164882,0.0580716652184724,-0.035224076360464,0.1210248097777366,-0.1646917015314102
1.311231201171875,-0.6006708412591367,1.0194655045852064,0.0448702383399009,-0.0206869430840015,0.0792685747146606,-0.1415842473506927
1.32125830078125,-0.5459330331711099,0.976004986912757,-0.0577747280985116,-0.0028891316615045,0.02552405372262,-0.1040746644139289
1.331286376953125,-0.3938865051060914,0.9125211604524404,-0.3103185795813798,0.0239515379071235,-0.0358695350587368,-0.0443801805377006
1.341314208984375,-0.2738754298577085,0.7821400458265095,-0.6362462317049503,0.049242366105318,-0.0775998309254646,0.0092132473364472
1.35134130859375,-0.3332826545288786,0.4671486521285027,-0.9705500825077296,0.0566419586539268,-0.0928349792957305,0.0281262192875146
1.361369384765625,-0.4305988271599635,0.0624840017680078,-1.0878928518623112,0.045943696051836,-0.0607752911746501,0.0126978326588869
1.3713974609375,-0.4451879455372691,-0.2295489064730703,-1.3443623523563146,0.029144212603569,0.0177187193185091,-0.0269563682377338
1.38142431640625,-0.5636982608338817,-0.476072620883584,-1.443139537450671,0.0062389764934778,0.1173064336180687,-0.0773600935935974
1.3914521484375,-0.4440621563777327,-0.5327171028431504,-1.415000653681159,-0.0136529728770256,0.2186650186777115,-0.1211850717663765
1.40148046875,-0.3799672488143667,-0.5371390840038657,-1.2480419127643108,-0.0305231027305126,0.3026670217514038,-0.1602290272712707
1.411507080078125,-0.3018844036372378,-0.4596034974459558,-0.9293962343424558,-0.0444583594799041,0.3521046340465545,-0.1883778423070907
1.421535400390625,-0.1994084005575627,-0.3095980102218687,-0.5704273133605718,-0.0530406311154365,0.3592356741428375,-0.2041619569063186
1.431562255859375,-0.0859511673994362,-0.204036644880101,-0.2421720950722694,-0.0543293356895446,0.331291139125824,-0.206263467669487
1.44159033203125,-0.0277427971240133,-0.0946227688286453,0.0225666365951299,-0.052043542265892,0.291320264339447,-0.1926400661468505
1.451618408203125,0.0239292667178437,-0.0469384229160845,0.2154506768852472,-0.0439299568533897,0.2471315264701843,-0.1681512296199798
1.461645263671875,0.0748664586802013,-0.0668290452349931,0.3610615093469619,-0.0421792268753051,0.2005001753568649,-0.1426196694374084
1.47167333984375,0.1357327230532653,-0.1077264344211667,0.4880027126520871,-0.0338073149323463,0.1791320294141769,-0.1086137741804122
1.481701416015625,0.2224688485516235,-0.1436320797346532,0.4111579579025506,-0.0169772412627935,0.1709882318973541,-0.07591263204813
1.49172802734375,0.2448306284907273,-0.2951953908599913,0.3493991286039352,0.0099766114726662,0.1713589429855346,-0.0489989891648292
1.50175634765625,0.272784602413699,-0.4672456827621907,0.3156441585183143,0.0394875295460224,0.168930783867836,-0.0366981625556945
1.5117841796875,0.3002757628642022,-0.5842378120481968,0.3335223450362682,0.0590614974498748,0.1729950457811355,-0.0447869822382926
1.5218115234375,0.2729917788909748,-0.6901177418198436,0.3987351141810417,0.0634089633822441,0.1751699298620224,-0.0744409784674644
1.531839111328125,0.2941014946760609,-0.7589283162608742,0.4693056109666824,0.0592658817768096,0.1694169789552688,-0.1036518588662147
1.541867431640625,0.418976047774963,-0.7506300051234662,0.5402408494114875,0.0535996705293655,0.1570184081792831,-0.1236387640237808
1.551894287109375,0.5044307368943467,-0.7173599690105765,0.5675859524548054,0.0589172057807445,0.1432658433914184,-0.1337784826755523
1.56192236328125,0.5952560496687889,-0.6184594497974961,0.553500143957138,0.0700774565339088,0.1214293465018272,-0.13849937915802
1.571950439453125,0.6749941877722739,-0.5268767793171107,0.5665601165384054,0.0899683386087417,0.0964624732732772,-0.1454715430736541
1.581977294921875,0.6803912975754588,-0.4741645953051746,0.4918856915652752,0.1128598600625991,0.0673477873206138,-0.1568754762411117
1.59200537109375,0.6474485206555575,-0.4741565581291914,0.4126671934217214,0.1311054527759552,0.0336369574069976,-0.1762012392282486
1.602033447265625,0.6082042324386536,-0.444566525703296,0.3646019584327936,0.1348837614059448,0.0014853659085929,-0.20128034055233
1.61206005859375,0.6065918653385713,-0.3896755363475531,0.2720212898910045,0.1232244446873664,-0.0324124097824096,-0.2264227122068405
1.62208837890625,0.564795225757733,-0.343400947635062,0.1023959601134061,0.1060483157634735,-0.0503548756241798,-0.2459603548049926
1.6321162109375,0.4982249045241624,-0.2778970135239884,-0.1023801780223846,0.0854559540748596,-0.059741985052824,-0.2622823119163513
1.6421435546875,0.4514122999448329,-0.2182192282831296,-0.2555389416456222,0.0572051890194416,-0.0496890395879745,-0.2803428173065185
1.6521708984375,0.3658928750261664,-0.1782984655767679,-0.4001742070734501,0.0283205434679985,-0.0107427053153514,-0.2889038324356079
1.66219921875,0.3040087023148313,-0.1154040563769638,-0.5266518845200538,0.0050030965358018,0.0586588978767395,-0.2818008661270141
1.67222607421875,0.2549140877455473,-0.0385786273824051,-0.4897849198937415,-0.0221462324261665,0.1432408988475799,-0.2700645923614502
1.68225439453125,0.1622004770064726,0.0395132778840139,-0.2285831301808357,-0.0579166039824485,0.2090192139148712,-0.2661724090576172
1.6922822265625,0.0483778537352103,0.0977149626903235,0.2122615254551172,-0.0940786078572273,0.2387635260820388,-0.2677545845508575
1.70230908203125,-0.0377808874337235,0.1498460954112932,0.5566939715623855,-0.1056496202945709,0.2375928908586502,-0.2689717411994934
1.712337158203125,-0.1126339432096574,0.2216470473073422,0.8073580006480217,-0.1058376356959343,0.2093109190464019,-0.2721228003501892
1.722365234375,-0.1592988738134503,0.3075009648773819,1.0931406893879174,-0.1035242453217506,0.157921627163887,-0.2749423384666443
1.73239208984375,-0.1759915403412655,0.4024658251419663,1.3236626786768435,-0.1091794669628143,0.0968084707856178,-0.2731255292892456
1.742420166015625,-0.1462285807675682,0.5049069395713508,1.4771879375249146,-0.1227471753954887,0.0350179187953472,-0.2569302022457123
1.7524482421875,-0.1066730620438698,0.6096718938384205,1.4941694674640893,-0.1282535344362259,-0.0172652583569288,-0.2246010452508926
1.762475341796875,-0.0565046396640362,0.6927824309844524,1.414325530898571,-0.1194249838590622,-0.0634079650044441,-0.1832545548677444
1.7725029296875,0.0338929332346073,0.7305187257912009,1.2636357877373694,-0.1011269316077232,-0.0957717671990394,-0.1327122747898101
1.7825302734375,0.0607678546330425,0.7428172124806791,1.1148767203778027,-0.0748567804694175,-0.1115191727876663,-0.0903113633394241
1.79255810546875,0.1050369944077916,0.719236430406943,0.9822995570123196,-0.0451494827866554,-0.1294598132371902,-0.0464938394725322
1.80258642578125,0.19909973646719,0.743143302629888,0.8554203130275011,-0.0240975841879844,-0.1419654786586761,-0.0037611424922943
1.812613037109375,0.3033706053406931,0.7628525770325213,0.7851958532005548,-0.0110009582713246,-0.1593426018953323,0.0387237332761287
1.82264111328125,0.3563151916027069,0.7502600758325308,0.7142448326647282,-0.007052787579596,-0.17862369120121,0.0752459391951561
1.832669189453125,0.4052417195960879,0.7055188706997781,0.6299345643401145,-0.008147613145411,-0.1992099285125732,0.1028722375631332
1.8426962890625,0.4428342220179736,0.6386524891290813,0.4906465051591396,-0.0084331259131431,-0.2166909426450729,0.1210062429308891
1.85272412109375,0.4748318270422518,0.5836378003284335,0.3189963915556669,-0.0034146644175052,-0.219707503914833,0.1299328953027725
1.862752197265625,0.4722678948383778,0.5371625379446894,0.1657441044300794,0.0012096699792891,-0.215642437338829,0.132770225405693
1.872779052734375,0.5499362043978646,0.4898861152458936,0.0403092140346765,-0.0001429496333003,-0.2089075595140457,0.136529803276062
1.882807373046875,0.5730115577001125,0.4256992550827562,-0.0526952328771352,-0.002644395455718,-0.204454630613327,0.136959969997406
1.8928349609375,0.6005249299824238,0.3942438671763986,-0.1356003105789422,-0.0090301232412457,-0.2015669643878936,0.1370308101177215
1.9028623046875,0.5946939222740009,0.3561977757681161,-0.222763630247116,-0.0193341206759214,-0.1827926337718963,0.1329141855239868
1.91289013671875,0.5680518894661217,0.2903431285232305,-0.2540495798707008,-0.0378942228853702,-0.1580255031585693,0.1264331191778183
1.922918212890625,0.5536341456003486,0.2263889811374247,-0.2570095987200737,-0.0554891712963581,-0.1416758149862289,0.1210769489407539
1.932945068359375,0.5378769698243588,0.1571009984429925,-0.2352490178108215,-0.0721954479813575,-0.1420276165008545,0.1115348413586616
1.94297314453125,0.4775590600490569,0.0706765144433826,-0.1494616626709699,-0.0848200768232345,-0.1675168424844741,0.0950992032885551
1.953001220703125,0.4098241520155221,-0.0397269571673125,-0.1587391941040754,-0.0933890640735626,-0.1920964866876602,0.0736780613660812
1.9630283203125,0.2912322959152981,-0.1249004181925207,-0.2192173359423875,-0.106238842010498,-0.2097993493080139,0.0406767204403877
1.97305615234375,0.1724493376897647,-0.2121244550719857,-0.262370833492279,-0.1146150156855583,-0.2226427048444748,0.0164965484291315
1.983083984375,0.100217373965308,-0.3091325846672058,-0.2807061161279678,-0.1218424662947654,-0.238390251994133,0.0004498212365433
1.993111083984375,0.0544282306822016,-0.3373543974798172,-0.2904004116684198,-0.1333265602588653,-0.2461813390254974,-0.0085905455052852
2.00313916015625,0.0189756628984585,-0.2989033054672181,-0.3228805395126342,-0.1468753367662429,-0.2420452237129211,-0.0092473914846777
2.013166015625,0.0056058571830391,-0.2596423583764582,-0.3681663729161024,-0.1506508886814117,-0.2177673131227493,-0.0016480614431202
2.0231943359375,0.0173034919025376,-0.1134557718534022,-0.4657178156077861,-0.1370703727006912,-0.1849849671125412,0.0118450243026018
2.03322216796875,0.0333338951293379,0.0757271488964557,-0.5519622668653726,-0.1028886958956718,-0.1688219755887985,0.0325420461595058
2.043249267578125,0.056109571365267,0.1965916626363992,-0.8266191659569739,-0.0206006895750761,-0.1288413256406784,0.0715095773339271
2.053277099609375,0.0774167094185948,0.1517841142691672,-1.1524176387429237,0.0994697958230972,-0.1421824246644973,0.1412369906902313
2.063304931640625,0.3020513942345976,0.3974779537267983,-1.156450839781761,0.1821544915437698,-0.1495128124952316,0.2331560105085373
2.073332275390625,0.4261371715759858,0.5994182108495384,-1.1809732866197824,0.2416196763515472,-0.1735851317644119,0.3382166624069214
2.0833603515625,0.5023639040250331,0.5764003964208066,-1.4469471130400895,0.3080959618091583,-0.2293551415205001,0.4514989852905273
2.09338818359375,0.5128736076015978,0.5101089651938527,-1.7184563617557287,0.35930135846138,-0.299094557762146,0.5388022065162659
2.103415283203125,0.3294548033364117,0.4126850213393568,-1.8430115467071533,0.3640334606170654,-0.3380990028381347,0.5778162479400635
2.113443115234375,0.0470458288133144,0.1443128285404294,-1.8925544530332088,0.3055890500545501,-0.2987537086009979,0.5660279989242554
2.12347119140625,-0.2291072271201759,-0.219512446431443,-1.858674395263195,0.2111386805772781,-0.1875562816858291,0.5020749568939209
2.133498046875,-0.5115826179429889,-0.5299094250112771,-1.7428361852526664,0.1028271168470382,0.0125778699293732,0.4004010558128357
2.143526123046875,-0.7802602964945137,-0.7920939421512186,-1.4429542440116403,0.0104743810370564,0.2011046260595321,0.2894160747528076
2.15355419921875,-0.8671826470136642,-0.8556256994064897,-0.8711842838704585,-0.0507468990981578,0.3265964984893799,0.1651133000850677
2.163581298828125,-0.9428727518353612,-0.7865138039313256,-0.1486579450726509,-0.0789008066058158,0.4072799682617187,0.0418292880058288
2.173609130859375,-0.931874314893782,-0.5853896854970604,0.5516916332304478,-0.0950360968708992,0.4251718819141388,-0.0530948266386985
2.183636962890625,-1.012056981894374,-0.4019394631803035,1.2037620415329933,-0.1066382601857185,0.4123373925685882,-0.1201245188713073
2.193664306640625,-1.0021320924684405,-0.2421112317305058,1.759627745577693,-0.1132753938436508,0.3425822854042053,-0.153769314289093
2.203692138671875,-0.8550403737992047,-0.0180889066591858,2.0871376984566448,-0.1233301982283592,0.2994374632835388,-0.1716108620166778
2.21372021484375,-1.005941933080181,0.1377490861106663,2.180443174141645,-0.1224313899874687,0.2470344305038452,-0.1736558973789215
2.2237470703125,-1.0148520194403827,0.1726213697884231,2.2332167329519987,-0.105098471045494,0.1542547792196273,-0.1434321403503418
2.233775146484375,-0.9297796807020902,0.275343712311983,2.2653794654101134,-0.0745477527379989,0.0330665707588195,-0.086259126663208
2.24380224609375,-0.9405339336242526,0.3463240320075303,2.244760455751419,-0.0440863333642482,-0.0983276218175888,-0.0184365473687648
2.253830078125,-0.917302987901494,0.4301282505061477,2.042963041165471,-0.0246734861284494,-0.2037145048379898,0.0594004616141319
2.263858154296875,-0.8285963112488388,0.4502261589001864,1.70717041310966,0.0005628275685012,-0.2697979807853699,0.1638453900814056
2.27388525390625,-0.6850270676173269,0.4564267671059817,1.2269757438600062,0.0382100716233253,-0.2957376837730407,0.2837353050708771
2.283912841796875,-0.6680651191614568,0.397229385793209,0.767634477546811,0.08664271235466,-0.2888433933258056,0.3937635719776153
2.293941162109375,-0.6564059532888233,0.2940656561776995,0.3911246391773224,0.1339966505765915,-0.2531735599040985,0.4870599806308746
2.30396826171875,-0.6422736022356897,0.1656378675766289,0.0120014034390449,0.1837939620018005,-0.1909690648317337,0.5608793497085571
2.313996337890625,-0.6862665462844073,-0.0045045448776334,-0.2173690777271986,0.2084143608808517,-0.1153014674782753,0.6073001027107239
2.324024169921875,-0.7482992971535771,-0.1837453328058123,-0.2710883929550647,0.2036839574575424,-0.0393285527825355,0.6246140599250793
2.334051025390625,-0.8634630419686437,-0.3845983061484992,-0.2131213571548461,0.1738941073417663,0.0252033025026321,0.6035966873168945
2.3440791015625,-1.0251188541717826,-0.592599982202053,-0.0915261910527944,0.1227674782276153,0.090171068906784,0.544902503490448
2.354107177734375,-1.164926553312689,-0.7232100832782685,0.0398790059238672,0.0668149963021278,0.1490381211042404,0.4602477848529815
2.364134033203125,-1.2342322908595205,-0.7521092838957906,0.2320598663806915,0.0145172588527202,0.1972720175981521,0.3595272600650787
2.374162109375,-1.2168629306465386,-0.6509241608768701,0.4583464100569486,-0.0274709369987249,0.2319868505001068,0.2619927227497101
2.384190185546875,-1.0812265258409082,-0.4049420059971511,0.6997177101403474,-0.0509141981601715,0.2342056483030319,0.1930377185344696
2.39421728515625,-0.8909086097117513,-0.0580775835026055,0.9196393949598072,-0.0585529431700706,0.2148915976285934,0.1564677357673645
2.404244873046875,-0.7405426186121999,0.305950447499752,1.118749762418866,-0.0626517161726951,0.2041821926832199,0.1478429585695266
2.414272216796875,-0.6940772200353443,0.5544482384622097,1.2122989837318658,-0.0538374483585357,0.2010564506053924,0.1514294296503067
2.424300048828125,-0.6613033699415624,0.6758336342711001,1.238157063087821,-0.0273654386401176,0.2083444893360138,0.1598941385746002
2.434328369140625,-0.6606314620293676,0.7935437025681138,1.3258259941905737,0.0082727158442139,0.1928869634866714,0.1625264137983322
2.44435498046875,-0.6517747132916003,0.923297332945466,1.4206763612300155,0.042648259550333,0.1767520308494568,0.1562435775995254
2.454383056640625,-0.6906527985446155,1.0319923932030797,1.4225807335466143,0.0695603042840957,0.1520328372716903,0.1369987726211547
2.4644111328125,-0.7137004235897213,1.077663718792796,1.4855471850693225,0.0834224745631218,0.104490727186203,0.1213161647319793
2.474438232421875,-0.6542549127347767,1.1561511261828243,1.497665492886305,0.0747104808688163,0.0643547549843788,0.1031366288661956
2.484466064453125,-0.6445601788029074,1.253932870499045,1.3876514589846134,0.0554548688232898,0.0451647043228149,0.0803924798965454
2.494494140625,-0.6452773140963166,1.3090946396201848,1.156734917420149,0.040395226329565,0.051066268235445,0.0614840351045131
2.50452099609375,-0.6503451188798993,1.324292501012981,0.9334270972937344,0.0400043278932571,0.0731747150421142,0.04352543130517
2.51454931640625,-0.6518259320221841,1.325916595083475,0.7709381952673197,0.0480691753327846,0.0845243036746978,0.0207865629345178
2.524576904296875,-0.6698372434005141,1.3433844472348688,0.6683680476307868,0.059827696532011,0.0840930491685867,-0.0095246834680438
2.534604248046875,-0.7220172202318906,1.3671551989227533,0.6304851839601994,0.0605294406414032,0.0862033441662788,-0.0454643070697784
2.544632080078125,-0.7681107898216694,1.367982005135715,0.6062889003366232,0.0378611050546169,0.0865915194153785,-0.0809752494096756
2.554660400390625,-0.755209880259633,1.378753866779804,0.5521411305636167,0.0075322287157177,0.0929990783333778,-0.1044464856386184
2.56468701171875,-0.7425257552534341,1.399068778925389,0.4337579122453928,-0.0214839093387126,0.1008980646729469,-0.1225456073880195
2.574715087890625,-0.7845645695596933,1.4232976496443153,0.2640484113156795,-0.0448195897042751,0.1069524958729744,-0.1530800908803939
2.5847421875,-0.8500970721781254,1.3822175973676143,0.1348965462237596,-0.0656864643096923,0.1081513166427612,-0.1882665008306503
2.594770263671875,-0.9022232729956507,1.302158410616219,0.0247381354153156,-0.0878415703773498,0.0915054902434349,-0.2301963716745376
2.604798095703125,-0.989186759242788,1.208874489175901,-0.084579732915759,-0.118695355951786,0.0790160670876503,-0.273863673210144
2.6148251953125,-1.1302494268808514,1.0985261087533087,-0.2110591639280319,-0.1561236828565597,0.0727517828345298,-0.3247870504856109
2.62485302734375,-1.240894671358168,0.95959928410016,-0.3000117051005363,-0.2022822946310043,0.0585769973695278,-0.3717438578605652
2.63488134765625,-1.2960194694697855,0.8994070465311408,-0.3959399305045604,-0.2497835010290146,0.0381854400038719,-0.4040799438953399
2.644907958984375,-1.326348410629481,0.8814621514525264,-0.5304343256682157,-0.2930508852005005,0.0211950428783893,-0.4218063950538635
2.65493603515625,-1.2974525710128246,0.8836573964744806,-0.7329132927775383,-0.3193970024585724,0.0169803239405155,-0.4158102869987488
2.6649638671875,-1.2337537135623395,0.8933873478502035,-0.9517857608050108,-0.3319011330604553,0.038023330271244,-0.3933895230293274
2.674990966796875,-1.150192802300304,0.8602113466963172,-1.1221475881636145,-0.3367126882076263,0.0874936804175376,-0.3526817560195923
2.685018798828125,-1.0374686326570808,0.8196108215648681,-1.179911210346222,-0.340977281332016,0.1421415209770202,-0.3030078709125519
2.695046875,-0.9517978165689857,0.7359886085696518,-1.137058741569519,-0.3424763679504394,0.1841749846935272,-0.2666056454181671
2.705073974609375,-0.9037242521431296,0.6442726670984178,-1.095779221197963,-0.3309166133403778,0.1888396292924881,-0.2489208430051803
2.71510205078125,-0.766980470617488,0.5843200835041702,-1.1376374182403086,-0.296602338552475,0.1330410689115524,-0.2364101111888885
2.7251298828125,-0.5309815112221986,0.5469827979523688,-1.2982190253406762,-0.2517007291316986,0.092792123556137,-0.2226247638463974
2.735156982421875,-0.4027153063910081,0.3981751422107219,-1.4662538710564377,-0.2061579972505569,0.0212763976305723,-0.1935465037822723
2.745184814453125,-0.1603413320710882,0.2458724839601665,-1.735513295018673,-0.1540613621473312,-0.115073874592781,-0.1429646015167236
2.7552119140625,0.1223189685982651,0.2015233468849211,-2.0743109501093624,-0.111953318119049,-0.2338149100542068,-0.0826354771852493
2.76523974609375,0.1940885207090526,0.0875975463669747,-2.546156893208623,-0.0971862077713012,-0.2985662817955017,-0.0371276065707206
2.77526806640625,0.1118743296145461,-0.2994979103595018,-2.952090394461155,-0.0966929867863655,-0.3010209202766418,-0.0101335393264889
2.785294921875,0.0802214281084015,-0.7541239116538315,-3.2184213637560606,-0.1033829376101493,-0.1931491196155548,-0.0138699263334274
2.795322998046875,-0.1258534263347275,-1.1809238214548676,-3.2938498219668864,-0.144961804151535,0.0065293787047266,-0.0585460513830184
2.805350830078125,-0.2796378841082565,-1.4622170167557895,-3.156867701640725,-0.1890493184328079,0.2492253184318542,-0.133130133152008
2.8153779296875,-0.3687731797028333,-1.662016973914206,-2.749900765687227,-0.218103602528572,0.4317317605018616,-0.2291397452354431
2.825406005859375,-0.3669162267245352,-1.711897295501083,-1.9699860677599903,-0.2374619245529174,0.5184809565544128,-0.3342776000499725
2.83543408203125,-0.3004318119424395,-1.5232538153901696,-0.9877174904078244,-0.2698238790035248,0.5033238530158997,-0.4420842230319977
2.845460693359375,-0.1982684002095833,-1.3124397122643887,-0.0506114123404026,-0.3091597557067871,0.4368269741535187,-0.536625325679779
2.855489013671875,-0.0540400533485226,-1.1148432564996182,0.6598731910079717,-0.3369818031787872,0.311795562505722,-0.5923343896865845
2.865515869140625,0.1758832941938191,-0.9335238356664776,1.0738888764292,-0.3348965644836426,0.1873233169317245,-0.6129279136657715
2.8755439453125,0.3296300868380815,-0.7158915769584476,1.2971890977710483,-0.3095994591712951,0.0827271342277526,-0.6105574369430542
2.88557177734375,0.4520722616909071,-0.5825936981029808,1.3821908554911613,-0.2610687911510467,0.0015741409733891,-0.5867071747779846
2.895598876953125,0.5722490123623982,-0.5462300068236887,1.4088859701931475,-0.2041083127260208,-0.0305339954793453,-0.5503411889076233
2.905626953125,0.6251387083657085,-0.5890126252345741,1.3935557145923376,-0.1403811424970626,-0.027391817420721,-0.506536602973938
2.915655029296875,0.5999326997103169,-0.64898953955248,1.388215522608161,-0.0741131678223609,-0.0061384621076285,-0.4682446122169494
2.925681884765625,0.57877421288006,-0.7014100471414625,1.44245155518651,-0.0032610229682177,-0.0197744201868772,-0.4366916120052337
2.9357099609375,0.5655550311490893,-0.7513665027044713,1.5727309630036352,0.060675349086523,-0.0159181635826826,-0.421500951051712
2.945738037109375,0.4714065653013065,-0.7434912392847239,1.666906791782379,0.1006663218140602,-0.0746887922286987,-0.3937845230102539
2.955764892578125,0.6419400594323873,-0.684445906728506,1.8010656713813542,0.1173094809055328,-0.1606620252132415,-0.361423134803772
2.965792724609375,0.6461181488346308,-0.6654280486561358,1.767809298467636,0.1173574551939964,-0.2253740429878235,-0.3411600887775421
2.975821044921875,0.6168909583717584,-0.6930868938237428,1.4920482375264168,0.12066350877285,-0.2583543956279754,-0.3101566433906555
2.985847900390625,0.6342610492371022,-0.736350866010785,1.090043892416358,0.1398955881595611,-0.2519775927066803,-0.2721056044101715
2.9958759765625,0.6174698542382567,-0.7945590170904994,0.7408604523897171,0.1746583580970764,-0.2125129997730255,-0.2333344966173172
3.00590380859375,0.5478029186962172,-0.822619721057266,0.5031634569048882,0.2099113166332245,-0.1545479446649551,-0.2055480182170868
3.015930908203125,0.4519378581888973,-0.8233293306313455,0.4190799830734729,0.2288237512111663,-0.0859979093074798,-0.1941156089305877
3.025958984375,0.3963193948088213,-0.822665459895134,0.4719599248677492,0.2299524545669555,-0.0247149020433425,-0.1877949684858322
3.03598583984375,0.3249779501833021,-0.7846974752243607,0.5966174011498689,0.2125630676746368,0.031386449933052,-0.1942352950572967
3.046013916015625,0.252455771340616,-0.7229211102690547,0.773725780159235,0.1881875246763229,0.0626270920038223,-0.2058218419551849
3.0560419921875,0.2940632815575227,-0.5884330717809498,0.8963976355820894,0.1684825420379638,0.0613636933267116,-0.2035520225763321
3.06606884765625,0.3820733177155256,-0.3780577984638512,1.032590651357174,0.1582979410886764,0.0397494696080684,-0.1886597573757171
3.076096923828125,0.4160165769148617,-0.1866289254181087,1.0811118134200572,0.1579493284225464,0.0097423028200864,-0.1648878455162048
3.086124755859375,0.4330470605622977,-0.0587776215307414,1.0890671563386916,0.1647523045539856,-0.013965206220746,-0.1331110000610351
3.096152099609375,0.424047396222502,0.0263252584762871,1.0799608898192643,0.1705779731273651,-0.0301617532968521,-0.0991849973797798
3.106179931640625,0.4215102058950811,0.0651246524699032,1.026413424026966,0.174664631485939,-0.0348277613520622,-0.0664128512144088
3.1162080078125,0.3633905368164181,0.0415956005834043,0.9665671503514052,0.1724121272563934,-0.02457139454782,-0.0435096621513366
3.12623486328125,0.2700783025970682,0.003490326333791,0.9386977311730385,0.1649235188961029,-0.0160141605883836,-0.0355563685297966
3.136262939453125,0.2242365158112719,-0.0270125100880861,0.9364186803251504,0.1501648128032684,-0.0144756510853767,-0.0372259058058261
3.1462900390625,0.1909187863654456,-0.0085552815731614,0.937549730181694,0.1305838823318481,-0.002885868307203,-0.0373950153589248
3.15631787109375,0.1877483944347128,0.010866773385927,0.9203741389751434,0.1113558709621429,-0.0019457726739346,-0.0418637990951538
3.166345947265625,0.1501628697428852,0.0099197748593986,0.9614607671231032,0.085423931479454,0.0005010035820305,-0.049777578562498
3.176373046875,0.1033282725274562,0.044192704404518,1.030221584138274,0.0544660203158855,-0.0141554363071918,-0.0652516037225723
3.18640087890625,0.0992914182268083,0.0893881561107933,1.0975947461873292,0.0243522096425294,-0.030408252030611,-0.0814704895019531
3.196428955078125,0.0935824842617847,0.1673992512259632,1.1251029308378695,-0.0079396842047572,-0.0657417476177215,-0.0870612636208534
3.206455810546875,0.1422319671457633,0.302931465004757,1.1331138033360242,-0.0325213447213172,-0.0843984335660934,-0.0871364027261734
3.216484130859375,0.1427769607426598,0.4092627918057143,1.0383604669302702,-0.0506438873708248,-0.1029164642095565,-0.0743444412946701
3.226511962890625,0.2187977588234469,0.5325443035595119,0.9229384365051984,-0.052951693534851,-0.11610659211874,-0.0450732186436653
3.236538818359375,0.2570247414902784,0.6407502651259303,0.7455208454161882,-0.0501029081642627,-0.1427501738071441,-0.0077847014181315
3.24656689453125,0.2396134235654026,0.710779421576485,0.6942734732598066,-0.0552864037454128,-0.185562402009964,0.0264740753918886
3.256594970703125,0.2308258858726359,0.7155369913671166,0.6338964537084102,-0.0756816864013671,-0.2486846446990966,0.0528068803250789
3.2666220703125,0.1696132374810054,0.6792454154759645,0.489513701736927,-0.1068173795938491,-0.305717408657074,0.0700727403163909
3.27664990234375,0.0896755582174286,0.5972104716721922,0.2272299620062112,-0.1382394880056381,-0.3429353237152099,0.0817533656954765
3.2866767578125,0.0838766992129385,0.528823894796893,-0.0874701936602592,-0.1611350625753402,-0.3560809791088104,0.097270131111145
3.296705078125,0.0753639050746336,0.4866349314302206,-0.4281178605318069,-0.1769156157970428,-0.3464981019496918,0.1195330992341041
3.30673291015625,0.0772894297771155,0.4300809042330831,-0.7065566162496805,-0.1866554915904998,-0.316437691450119,0.1466436833143234
3.316760009765625,0.0966397346742451,0.376019205308333,-0.8965040185660124,-0.1963523179292678,-0.2867455780506134,0.1820679903030395
3.326787841796875,0.1819884792011231,0.3502566222161054,-0.9822790987461804,-0.2059706002473831,-0.2746593356132507,0.2250846922397613
3.336816162109375,0.1992512007018551,0.3155826375894248,-1.0601485203683376,-0.2089738398790359,-0.2875128388404846,0.2634661793708801
3.3468427734375,0.2150709568526595,0.2644016086675226,-1.161568328925967,-0.2063959687948227,-0.2979672253131866,0.2991564571857452
3.356870849609375,0.2035217541605234,0.2142000923022627,-1.282249302792549,-0.2038507759571075,-0.2984811961650848,0.3266775608062744
3.36689892578125,0.1725617485556751,0.1078789215691387,-1.3461422215104102,-0.2061461061239242,-0.2764626741409302,0.3474233150482178
3.376926025390625,0.0862166134025901,-0.0030431670881807,-1.4436755440235136,-0.2109685540199279,-0.2461825311183929,0.3528617620468139
3.3869541015625,-0.0279723680961877,-0.1376172033593058,-1.4074030381590128,-0.2244680225849151,-0.1978819519281387,0.341899424791336
3.39698095703125,-0.0839780406955629,-0.183221893453598,-1.3981190769851206,-0.2303331047296524,-0.1511410772800445,0.3271130323410034
3.4070087890625,-0.0856492618434131,-0.1642787080526351,-1.3870651835292578,-0.2138533592224121,-0.1077877730131149,0.3249277472496032
3.417037109375,0.05477978406623,-0.0707332861319184,-1.4024614901036023,-0.1640626341104507,-0.0697272047400474,0.3418891727924347
3.427063720703125,0.2252755400028079,0.0892997471749782,-1.479635915198922,-0.0823500305414199,-0.0497805513441562,0.3731405138969421
3.437092041015625,0.3794316441003233,0.3350589069537818,-1.4415671735674145,0.010190287604928,-0.0538514591753482,0.4147388339042663
3.447119873046875,0.5128266266547143,0.5291225124172866,-1.3688158256113527,0.0983591675758361,-0.071982704102993,0.463269829750061
3.45714697265625,0.6020980245180427,0.6320613472357391,-1.3114753972768782,0.1654345989227295,-0.096330389380455,0.5185596942901611
3.4671748046875,0.6809455704573542,0.7019891622036695,-1.1849345914661884,0.1913554519414901,-0.1054262146353721,0.5779406428337097
3.477202880859375,0.5583908386081456,0.5737075040750205,-1.069306809335947,0.187966838479042,-0.0652889162302017,0.6111921072006226
3.48722998046875,0.2853036730512976,0.2442198213823139,-1.0224047729074954,0.1685958504676818,0.025580920279026,0.6013312935829163
3.497258056640625,0.0383925667583942,-0.1308159989118576,-0.9143038791507482,0.1575463861227035,0.1304879039525985,0.5593057870864868
3.5072861328125,-0.143033821580559,-0.4060550818055868,-0.6807984901368618,0.1522258073091507,0.2038742303848266,0.4829456210136413
3.51731298828125,-0.2340617807876318,-0.5267169125802814,-0.2116273192048072,0.1201520264148712,0.2119518667459488,0.3933062851428985
3.5273408203125,-0.3626212694769725,-0.6810099409304559,0.32740181632936,0.0676678121089935,0.2120937407016754,0.2468411326408386
3.5373681640625,-0.8389443945229053,-0.8768842490777373,0.584897737261653,-0.0022444280330091,0.2129219770431518,0.0945892855525016
3.547395751953125,-0.6465650888845325,-0.8306479830816388,0.9996306310415268,-0.0793055072426796,0.1667141169309616,-0.0209759473800659
3.557424072265625,-0.4922985832151025,-0.6758614721260965,1.3013286817938088,-0.1448171287775039,0.1091107428073883,-0.121412806212902
3.567450927734375,-0.5913045355640352,-0.4879707100786268,1.320806704723835,-0.1790873855352401,0.0791185721755027,-0.1976751387119293
3.57747900390625,-0.6007722923396155,-0.3403152200467884,1.2897516412466763,-0.1789374500513076,0.040207389742136,-0.2319769263267517
3.5875068359375,-0.5757662267031147,-0.2217259577624499,1.2546522708147765,-0.1628542244434356,-0.0144467260688543,-0.2299598902463913
3.597533935546875,-0.6300757263764739,-0.1437875625573098,1.1812322298169136,-0.1357528269290924,-0.0632656663656234,-0.197998508810997
3.60756201171875,-0.6943149743139744,-0.1097287872195243,1.0184802929401398,-0.1030361652374267,-0.0956387817859649,-0.1417589336633682
3.617590087890625,-0.7001249757669865,-0.074816463792324,0.845390501922369,-0.0666589811444282,-0.1227500289678573,-0.0597122646868228
3.62761669921875,-0.8231422836266458,-0.0876939194135367,0.5898585745394229,-0.0265759490430355,-0.1151851043105125,0.0233700089156627
3.63764501953125,-0.75021265649423,-0.0814918499030172,0.3416425231277942,0.0162231773138046,-0.1106457412242889,0.1346105188131332
3.647671875,-0.5193592067612335,-0.0556780480802059,0.1784358282208442,0.0555274412035942,-0.0881733745336532,0.245302215218544
3.657700439453125,-0.5443983709497376,-0.1154201307289302,-0.0202525144338607,0.098165713250637,-0.0425036177039146,0.335271805524826
3.667728759765625,-0.5217210039891302,-0.2769644453816116,-0.18812310949862,0.1449885219335556,0.0026991220656782,0.4063357710838318
3.677755615234375,-0.4739295809729024,-0.442699197461456,-0.2477425886809825,0.1988424211740493,0.0669007450342178,0.4541547000408172
3.68778369140625,-0.5413351109215989,-0.627296617051959,-0.1857733315020799,0.2282787859439849,0.1101932972669601,0.4707272946834564
3.6978115234375,-0.522560633151047,-0.7654089104518293,-0.0266015911996364,0.2367942482233047,0.1426535099744796,0.4618943929672241
3.70783837890625,-0.5593515003338456,-0.8883483307696879,0.169135500434041,0.2224278748035431,0.1727561354637146,0.4235242009162903
3.717866455078125,-0.5974258679885417,-0.971398662161082,0.3802478558540344,0.2014187276363372,0.1993408650159835,0.3635972440242767
3.72789453125,-0.6447695837698877,-1.0405969938106834,0.5859948848485946,0.1737726479768753,0.2152920067310333,0.2809741795063019
3.737921630859375,-0.713081707169488,-1.040519909986481,0.7402601484090089,0.1541736423969268,0.223064437508583,0.1846718937158584
3.747949462890625,-0.7386730253480375,-0.971183850366622,0.9898112478166818,0.1368067860603332,0.2026182115077972,0.0821777582168579
3.7579765625,-0.6484640543736517,-0.8059221956912428,1.1862047575324772,0.1243322789669036,0.1891306340694427,0.0010434946743771
3.768004638671875,-0.5493826987009495,-0.5393631167288869,1.1696627880543469,0.1192105188965797,0.190502718091011,-0.0632311031222343
3.778032470703125,-0.5891122496841475,-0.3844189309936016,1.3243728727728128,0.1198669895529747,0.1895967125892639,-0.0997065529227256
3.7880595703125,-0.5088325155172497,-0.080075334168598,1.446571849986911,0.1211695671081543,0.1711055934429168,-0.1200688257813453
3.79808740234375,-0.5009955382812767,0.1648379493705928,1.6471745018303394,0.1151569485664367,0.1552065312862396,-0.1318818181753158
3.80811572265625,-0.522434157227166,0.3612337971739471,1.6990543266713618,0.1149117574095726,0.1278844177722931,-0.1422852128744125
3.818142578125,-0.5765342154009268,0.4682089017711579,1.8109855923712253,0.1195073053240776,0.0935099422931671,-0.1455585062503814
3.82817041015625,-0.5455191186079755,0.6475858102343977,1.8004519233971834,0.1260707080364227,0.0643716901540756,-0.1412394940853119
3.838198486328125,-0.5597045515552163,0.8620056097019463,1.6676812832862138,0.1392914354801178,0.0393206663429737,-0.1322174966335296
3.8482255859375,-0.5627984259173273,0.954138753671944,1.5732774909704923,0.1580507904291153,0.0066551659256219,-0.1100925132632255
3.858253662109375,-0.4974020438339561,1.076442068043351,1.4313748653769491,0.1742124557495117,-0.0202147979289293,-0.0799844115972518
3.868280517578125,-0.5452450874395668,1.169612884498015,1.295612057712674,0.1768813580274582,-0.0328447371721267,-0.0515930280089378
3.878308349609375,-0.5953723329922184,1.1886636219266802,1.1190864470273256,0.171288713812828,-0.032709714025259,-0.0257118958979845
3.888336669921875,-0.6418169445093721,1.1562024179786443,0.922545637795329,0.1567848175764084,-0.0212590657174587,-0.0033339695073664
3.89836376953125,-0.690811350107193,1.1138604560073464,0.7312842302709818,0.1448993980884552,0.0027828884776681,0.0119874626398086
3.9083916015625,-0.7550077818162739,1.0784067922450602,0.5643833570212126,0.1355534046888351,0.0362170040607452,0.0205488670617342
3.91841943359375,-0.7954583040177822,1.0163820785518736,0.4511690657734871,0.121121734380722,0.066871054470539,0.0154529074206948
3.928446533203125,-0.8399917116187512,0.9674185795489698,0.3836415899455547,0.1013806834816932,0.0894229039549827,0.0032969655003398
3.938474609375,-0.8769069723661989,0.8935799478128552,0.3484416817486286,0.0817084461450576,0.1082402616739273,-0.0179132483899593
3.94850244140625,-0.9090270347263664,0.8345444790635258,0.3305401143550872,0.0554465390741825,0.1091284677386283,-0.0547120384871959
3.958529541015625,-0.90084920816347,0.8481566056348383,0.3274602685183286,0.0261254012584686,0.097948782145977,-0.0975215584039688
3.9685576171875,-0.8987841653924434,0.8935030831843614,0.3419938207834959,-0.0064949179068207,0.0795091092586517,-0.1422239392995834
3.97858447265625,-0.8869584838464856,0.9794456288859248,0.290329099997878,-0.0339638255536556,0.0524119772017002,-0.177914559841156
3.99174560546875,-0.8135309901945292,1.053013115530461,0.1958990041971206,-0.053664855659008,0.0158696584403514,-0.1958943307399749
4.001773681640625,-0.739695938654989,1.16007560615018,-0.0067751932233572,-0.0545133389532566,-0.0122261587530374,-0.1932021379470825
4.011800537109375,-0.718527040028572,1.247573418469727,-0.2602449273794889,-0.0511425733566284,-0.0386726781725883,-0.1848272979259491
4.02182861328125,-0.7333608173493296,1.2706255004942415,-0.4238502662152051,-0.0585056841373443,-0.0555398091673851,-0.1698797792196273
4.0318564453125,-0.769301826237142,1.2554726472869515,-0.6122410867393017,-0.0644854232668876,-0.0583388954401016,-0.1467456519603729
4.041883544921875,-0.7649569289006293,1.1676601429950446,-0.8409358606010675,-0.0707941874861717,-0.0448249466717243,-0.1142143458127975
4.051911376953125,-0.7359913850486278,1.0891054425224662,-1.1046306361734866,-0.0728458389639854,-0.0131191862747073,-0.0835555270314216
4.061939697265625,-0.7764930529154837,0.9811365045823156,-1.33163263464272,-0.0807783305644989,0.0105866752564907,-0.0682032033801078
4.071966552734375,-0.7913608786363154,0.8548745887782424,-1.4659259542763232,-0.1005348041653633,0.0447524078190326,-0.0662254244089126
4.081994384765625,-0.7514964126944541,0.7667400129251182,-1.5325883377075191,-0.1298287808895111,0.0858274027705192,-0.0768612772226333
4.092021728515625,-0.7264766107935458,0.6895424261499196,-1.6229519147217273,-0.1533462703227996,0.1041816994547844,-0.091209091246128
4.102049560546875,-0.5527953566886484,0.6577238309543579,-1.7018267139941452,-0.1525214910507202,0.0644028633832931,-0.0936203226447105
4.11207763671875,-0.3752787987371906,0.7048243856295943,-1.858281012031436,-0.1360680311918258,-0.0041049667634069,-0.0909657329320907
4.1221044921875,-0.2879618776761926,0.7371038032699376,-2.079401551246643,-0.1204895973205566,-0.0752403959631919,-0.0813645049929618
4.13213232421875,-0.1519110468507744,0.6933446679770946,-2.3220044389516112,-0.1155318915843963,-0.1406920254230499,-0.0505649521946907
4.14216064453125,-0.038733872743044,0.5782485085055231,-2.540606857866049,-0.1290285289287567,-0.1898169666528701,-0.000800323265139
4.152187744140625,0.0542584453395567,0.4275089348532259,-2.821161582824588,-0.1450903862714767,-0.1963808238506317,0.0538329407572746
4.162215576171875,0.0168290062585845,0.1601997681759297,-3.175045747888088,-0.1605878472328186,-0.1503113359212875,0.0871999487280845
4.172243408203125,-0.1022169137520715,-0.1916559597998857,-3.316169205802679,-0.1674784719944,-0.0758311226963996,0.0956965908408165
4.1822705078125,-0.2330301361849531,-0.5328435057017952,-3.321135303777456,-0.1939609497785568,0.1086633577942848,0.0657940879464149
4.192298583984375,-0.4412344221385195,-0.9135464118469506,-3.02476107839644,-0.2392956167459488,0.2948271334171295,0.0203751716762781
4.202325439453125,-0.4302383598171174,-1.140692494961992,-2.4777754308998583,-0.2923548519611358,0.4707363843917846,-0.0494449213147163
4.212353515625,-0.508537697289139,-1.2746449652686715,-1.6943816586852072,-0.3383454382419586,0.5933663249015808,-0.145017459988594
4.222381591796875,-0.5868705717045813,-1.2787019855745136,-0.7935574388325214,-0.3785823285579681,0.6182841658592224,-0.2446545660495758
4.23240869140625,-0.5352275878267363,-1.2191703308060764,0.1722837353318929,-0.4135652482509613,0.5609388947486877,-0.324989914894104
4.2424365234375,-0.4912974068159237,-1.1579174052029848,1.1097639074087142,-0.4457617998123169,0.4467710852622986,-0.3841775953769684
4.25246435546875,-0.4387613830884918,-1.099473837932199,1.780454260507226,-0.456796258687973,0.3111033141613006,-0.4245245158672333
4.26249169921875,-0.3397379316154867,-1.011547571067512,2.2157021190494297,-0.4524134993553161,0.1732714176177978,-0.4494477212429046
4.27251953125,-0.2659858456516638,-0.9154246998742224,2.496157475286722,-0.4299412965774536,0.0518768392503261,-0.4630848169326782
4.282547607421875,-0.1549999345105141,-0.8460987963221966,2.508185182210803,-0.3807812035083771,-0.0449205450713634,-0.442807525396347
4.292574462890625,-0.0052378778205951,-0.8196136711090802,2.3171043919503687,-0.298222154378891,-0.1086607500910759,-0.4022615253925323
4.3026025390625,0.1063296919662971,-0.8118326618440449,2.112332929989696,-0.202226385474205,-0.1415265500545501,-0.3565667569637298
4.312629638671875,0.1825106947106309,-0.7755198239691555,1.9380355167478325,-0.1038772761821746,-0.1676903069019317,-0.311695396900177
4.322657470703125,0.296017703560926,-0.7453717923343182,1.8308382938325405,-0.0179943293333053,-0.1932116448879242,-0.2685582935810089
4.332685546875,0.4024115376714617,-0.7295588677830994,1.737907496678829,0.0456775873899459,-0.2317063957452774,-0.2216619998216629
4.342712646484375,0.5172331910505891,-0.7379040868021547,1.6583248413980003,0.0969580858945846,-0.2770493924617767,-0.1699569821357727
4.352740234375,0.6131291216202079,-0.805876529918611,1.4697007966399191,0.1456527411937713,-0.3165378868579864,-0.1143432855606079
4.3627685546875,0.6574195142455399,-0.8787934436999261,1.145350769096613,0.1940157562494278,-0.345938891172409,-0.0713774412870407
4.382197509765625,0.7228950990449636,-1.0631949023269116,0.4598258349597454,0.2714127898216247,-0.3354385793209076,-0.0216665938496589
4.392224609375,0.7136563652522862,-1.180305616491288,0.2456020695209503,0.2759881317615509,-0.2828103303909302,-0.00588293466717
4.40225244140625,0.7110311313152313,-1.2676760030388832,0.1479442438453435,0.2491096556186676,-0.2019304037094116,-0.0011845857370644
4.412280517578125,0.6447201916702091,-1.4155154713355005,0.1002262148588895,0.2254016101360321,-0.1209045574069023,-0.0247405003756284
4.422307373046875,0.4952112192587927,-1.454366010994464,0.0964402665793895,0.2108021676540374,-0.038833662867546,-0.0781067907810211
4.432335693359375,0.3562082606295123,-1.4269136481843887,0.1591933676123618,0.2097990810871124,0.0250876247882843,-0.1486800760030746
4.44236328125,0.291517140738666,-1.377496414064616,0.3161088534206152,0.2164812237024307,0.055330216884613,-0.2171840369701385
4.452390625,0.3353270198380574,-1.1362686141051352,0.6290864230781793,0.2082094550132751,0.0535379089415073,-0.2704799771308899
4.46241845703125,0.3892538403367623,-0.8900748623013496,0.9282833046644926,0.185018390417099,0.0205509327352046,-0.3008203208446502
4.47244580078125,0.4152932310763746,-0.6223379717312753,1.1350883182793856,0.1565248668193817,-0.0131695382297039,-0.3086803555488586
4.482473388671875,0.4198610504485666,-0.3746241707533598,1.2146879246950149,0.1385802179574966,-0.0440326482057571,-0.2937418818473816
4.49250146484375,0.3892824453767389,-0.1745773992270231,1.150989651766419,0.1386931091547012,-0.0647484138607978,-0.2638434767723083
4.502528564453125,0.3570488396394997,-0.0128548053979873,1.0213637394219637,0.1590521782636642,-0.0777044296264648,-0.2259844988584518
4.512556640625,0.279757985090278,0.1022718953423202,0.943575566342473,0.1808160841464996,-0.0806646049022674,-0.1865029633045196
4.52258447265625,0.1525938962820917,0.1470852889284491,0.9462795646041632,0.1847090870141983,-0.07344850897789,-0.159460961818695
4.532611572265625,0.0624933541182428,0.1486487388528883,0.997828550055623,0.1701858043670654,-0.0728761851787567,-0.1354512274265289
4.542639404296875,0.0138372040314599,0.1914686935994774,1.0453349821180105,0.14068703353405,-0.0722239762544632,-0.1205117031931877
4.552667724609375,-0.0496673364233225,0.259895967811346,1.064308562657237,0.1092153415083885,-0.067301258444786,-0.1116469055414199
4.5626943359375,-0.0843795707011595,0.3593888268943875,1.0746943475931885,0.0797485336661338,-0.0659465044736862,-0.1030126735568046
4.57272265625,-0.0458219130415469,0.5157491630379111,1.0976309865444898,0.0602404661476612,-0.0763905495405197,-0.0848845764994621
4.58274951171875,0.0121516255646944,0.6951856196686625,1.103842700666189,0.0477989763021469,-0.0955152437090873,-0.0519545897841453
4.592777587890625,0.1085982122870162,0.8585861566472798,1.0221031596124173,0.0510087348520755,-0.1085269227623939,-0.0125974528491497
4.602805419921875,0.0892216404374688,0.9080131084434688,1.0088783518582582,0.0508902259171009,-0.1627712547779083,0.0171937309205532
4.61283251953125,0.184342714177072,1.006268973077461,0.8811790236622095,0.0421442277729511,-0.197682574391365,0.0416748113930225
4.622860595703125,0.0865452243024483,1.0577118678059427,0.6503279485493898,0.0265021529048681,-0.2130849659442901,0.0632072687149047
4.632888671875,0.1109112750023603,1.157182149730995,0.1683493184924125,0.0276214480400085,-0.1879767775535583,0.0904166996479034
4.64291552734375,0.0508771871371194,1.1798675173349678,-0.2006318779379129,0.0223545134067535,-0.1872979402542114,0.1228814274072647
4.652943603515625,0.0482660913232713,1.2488421232312916,-0.3824105868458747,-0.001599556999281,-0.1604446768760681,0.156682088971138
4.662970458984375,0.1074763321176171,1.3394552910923958,-0.5991068798780441,-0.0406886339187622,-0.1264419704675674,0.199717178940773
4.672998291015625,0.19378679781612,1.388053025522828,-0.817346310698986,-0.074968934059143,-0.0753524750471115,0.2628631591796875
4.6830263671875,0.2803761169886216,1.3728437659531831,-1.0795669220656157,-0.0915066301822662,-0.014652382582426,0.3410772681236267
4.693053466796875,0.3069778908513486,1.2620508566334845,-1.3018255254000424,-0.0828199908137321,0.0417812094092369,0.4189959764480591
4.703081298828125,0.3043975189693272,1.1602739052012565,-1.3971721515238285,-0.0654300823807716,0.0958271399140358,0.4782592952251434
4.713109619140625,0.2829471730530262,1.021145566626638,-1.3883727589964865,-0.0498365014791488,0.1300419867038726,0.5134552717208862
4.72313623046875,0.2320549344772473,0.8496619686964899,-1.277166884961724,-0.0525973998010158,0.1529363840818405,0.5312318801879883
4.73316455078125,0.1938805405141785,0.6336833954796195,-1.1345002892583609,-0.0736356675624847,0.1509876102209091,0.5400184392929077
4.7431923828125,0.1421557235717773,0.3731010528393089,-0.9832914906591176,-0.1091654300689697,0.128731831908226,0.529023289680481
4.75321923828125,0.0472281265776604,0.1449207313057035,-0.8016630038768052,-0.1596875786781311,0.0994337797164917,0.489642858505249
4.763247314453125,-0.0505882141279056,-0.0821224028915166,-0.6165788236826658,-0.2175106555223465,0.0599881075322628,0.4242428243160248
4.7732744140625,-0.0740187740759924,-0.2325716152951121,-0.4240741380989551,-0.2671473622322082,0.0038722730241715,0.3507362008094787
4.783302490234375,-0.0424643462419509,-0.2522866618514061,-0.3268114492207765,-0.2911522984504699,-0.0554733425378799,0.2876517474651336
4.793330322265625,0.0640897929968312,-0.1522840266153216,-0.470369440805912,-0.2699003219604492,-0.1009165123105049,0.2593615353107452
4.803357421875,0.2289649691052734,-0.0146750065624713,-0.732027742114663,-0.2155694514513015,-0.1311971992254257,0.2664481997489929
4.813385498046875,0.425706817334704,0.1448402864806354,-0.936340938913822,-0.1329651176929474,-0.1446467638015747,0.3038210570812225
4.823413330078125,0.5939337515564636,0.3187888862848281,-1.1529366941809651,-0.0298374071717262,-0.1600435674190521,0.3645262122154236
4.8334404296875,0.7456812966749071,0.4333326725706458,-1.3549106343775987,0.0815490409731864,-0.2170786261558532,0.4452346563339233
4.84346826171875,0.8546717596825212,0.4484893251702189,-1.5834920109927653,0.1739956140518188,-0.277356892824173,0.5213723182678223
4.85349560546875,0.7955904790300875,0.2772401935830712,-1.8167419639408584,0.2276041060686111,-0.298373132944107,0.5745223164558411
4.8635234375,0.6378825276698917,-0.1024397992551326,-1.987241738465428,0.2275039702653885,-0.2532613277435303,0.5897926092147827
4.87355126953125,0.3578860211160033,-0.5872844862677157,-1.836577714267373,0.1697867661714553,-0.1590577661991119,0.556006908416748
4.883578369140625,0.1868985361397266,-0.9797394972659648,-1.6232944445490836,0.0899371951818466,0.0059796650893986,0.4765352308750152
4.8936064453125,-0.0200728835506364,-1.2632175623252988,-1.5209218653112648,0.0328814275562763,0.2157633900642395,0.3691699504852295
4.903634521484375,-0.2286088126113638,-1.4768372243911028,-1.3302403035014867,0.0209936089813709,0.40289306640625,0.247632086277008
4.913661376953125,-0.3116653545478359,-1.5380791902087627,-0.7881915278851985,0.0280530285090208,0.5098034143447876,0.1267499029636383
4.923689208984375,-0.3737341996436938,-1.434396551285684,0.0315057298541069,0.0219642426818609,0.529563844203949,0.007370775565505
4.933717529296875,-0.4818851430872455,-1.2563147971995174,0.856408739542961,-0.011520866304636,0.4599279761314392,-0.0994014292955398
4.943744140625,-0.5454411580009385,-1.108765397890657,1.5167156457930802,-0.0732127279043197,0.3345929384231567,-0.1833405494689941
4.9537724609375,-0.6505671641327441,-0.9852133986324072,1.9300515322566032,-0.138791486620903,0.1921989619731903,-0.2466192096471786
4.96379931640625,-0.7607452294897288,-0.9123793408289552,1.935926561769843,-0.1797107011079788,0.0718981102108955,-0.2842062711715698
4.97382763671875,-0.9036015756115316,-0.8227399864360689,1.6622762093722818,-0.1834848523139953,0.0080941561609506,-0.2992888391017914
4.98385546875,-1.051716938240081,-0.7651461678624153,1.4520149178236723,-0.1595310419797897,-0.0519260391592979,-0.3004992306232452
4.99388232421875,-1.0683273698445408,-0.6672073332883417,1.3670675206393004,-0.129420131444931,-0.0747009366750717,-0.2834997177124023
5.003910400390625,-1.1051753375094384,-0.5520018682233989,1.2567805150151252,-0.0931614562869072,-0.0792088657617569,-0.2404664754867553
5.0139384765625,-1.0813768210317938,-0.3968158365562558,1.2197329331248998,-0.0506021939218044,-0.0932392328977584,-0.1779779344797134
5.02396533203125,-0.985265713341534,-0.1805284165859222,1.2219465175211428,-0.0093546202406287,-0.10873644053936,-0.0974977388978004
5.033993408203125,-0.8543376323573291,0.0735460054650902,1.0932231069743632,0.0411014817655086,-0.1038317903876304,-0.0020228237845003
5.0440205078125,-0.7130871870622039,0.2862510369040071,0.7878349695324898,0.0952014625072479,-0.0661262199282646,0.1143040508031845
5.054048583984375,-0.659194707224518,0.290983764514327,0.5671294408589601,0.1469924300909042,-0.0236904732882976,0.2339861840009689
5.064076171875,-0.5937126926843077,0.2333735793277621,0.5209042807787656,0.1783460974693298,0.0271261017769575,0.3324570953845978
5.074103515625,-0.6194383047670126,0.1315080728292465,0.5737585036098957,0.2002448439598083,0.0559670589864254,0.3941765129566192
5.08413134765625,-0.6413379288207739,-0.0341476226650178,0.6934077963411808,0.2013476639986038,0.0716160610318183,0.4174959361553192
5.094159423828125,-0.6792940769232809,-0.1966696963086724,0.8232634257882833,0.1859391331672668,0.076224461197853,0.4026318788528442
5.104186279296875,-0.7089101936385035,-0.3393905064173043,0.919141966831684,0.1583839356899261,0.0749932825565338,0.3676488697528839
5.11421435546875,-0.6721214088149369,-0.3999238855741918,1.0157353781461715,0.1192942634224891,0.0679951757192611,0.3188508749008178
5.124242431640625,-0.6706907914899289,-0.4071529600448906,1.0646353103935715,0.0805367454886436,0.0621977336704731,0.2616304755210876
5.13426953125,-0.6382921313840896,-0.4003996863923966,1.0712111816525458,0.0548627749085426,0.0630010142922401,0.1986289918422699
5.14429736328125,-0.587631180813536,-0.3272882729522883,1.0704922197282314,0.042556308209896,0.0588392913341522,0.1431023478507995
5.154324462890625,-0.50306430737935,-0.1690340858861803,1.0594640452355146,0.0342821218073368,0.0584387369453907,0.1015077829360961
5.164352294921875,-0.4455288679294288,-0.0460591558635234,1.0546750573933124,0.0334370993077755,0.0652628242969513,0.0731648206710815
5.174380615234375,-0.422027946158871,0.0641235126033425,1.0389777220457792,0.0324118249118328,0.0843049883842468,0.0566846132278442
5.1844072265625,-0.3807585087899118,0.1747843199759721,1.0273749625355004,0.0377719700336456,0.1002743691205978,0.0499896928668022
5.194435546875,-0.4125967585340142,0.2170563585162162,1.0482073226839304,0.0457936190068721,0.107828289270401,0.0371196269989013
5.20446337890625,-0.4838406245365738,0.2394534837633371,1.09218499609828,0.0540683269500732,0.1023925170302391,0.0191451553255319
5.214490478515625,-0.5366051597902551,0.269733032823354,1.1358990501403807,0.0611680150032043,0.0781662538647651,-0.0057844137772917
5.224518310546875,-0.5725798152193426,0.3351557914569973,1.1614666221171617,0.0583645068109035,0.0532105714082717,-0.0268103368580341
5.23454541015625,-0.6070565967734902,0.408292631599307,1.1231833609521389,0.053895927965641,0.0348913557827472,-0.048014760017395
5.244573486328125,-0.6286528539665043,0.4551436684928834,1.0370639973789453,0.0449341237545013,0.0281008277088403,-0.0615886263549327
5.2546015625,-0.6428428534910082,0.5403202713232487,0.9312240342915058,0.0353363305330276,0.0316207967698574,-0.0710557997226715
5.264628173828125,-0.6443681633621454,0.620089681347832,0.8266501456171274,0.0305929742753505,0.0473097451031208,-0.0759235247969627
5.274656494140625,-0.6520660243883729,0.6600324001576751,0.7313654788136482,0.0324830785393714,0.0657997578382492,-0.0805681943893432
5.284684326171875,-0.6836578250907361,0.6971584541115909,0.63109951646626,0.042103748768568,0.0793576464056968,-0.084348551928997
5.294711669921875,-0.659322936714068,0.7355890147928148,0.6199930160403251,0.0502901561558246,0.0738297998905181,-0.0903268381953239
5.3047392578125,-0.6578644815340637,0.7664750053133815,0.6621195086300373,0.0396878458559513,0.05985539406538,-0.1071018278598785
5.314766357421875,-0.708228641115129,0.7362631146620958,0.6836673235714436,0.0191473551094532,0.0380178764462471,-0.1263094246387481
5.32479443359375,-0.7559784534793347,0.6747971308302134,0.5887865613937378,-0.004784608259797,0.0266179461032152,-0.1566430926322937
5.334822509765625,-0.7672022236093878,0.6797167593147605,0.510506220883131,-0.0295669790357351,0.0160921216011047,-0.1971667110919952
5.344849365234375,-0.7916392571862787,0.7088408547293394,0.4120207122117281,-0.0505324453115463,0.0085588367655873,-0.2376922965049743
5.35487744140625,-0.7553099796332419,0.799357211152464,0.232564308771491,-0.0539115220308303,-0.0010139341466128,-0.2628210783004761
5.364905517578125,-0.6561484713964164,0.8908140632960945,0.0302215352624654,-0.0463361628353595,-0.0203471519052982,-0.2666682600975036
5.374932373046875,-0.560680045523867,0.984630118851736,-0.1566606342643499,-0.0402030795812606,-0.0398013927042484,-0.2577159702777862
5.384960205078125,-0.4976278884790837,1.1080677710153162,-0.3353226724565029,-0.0431317575275898,-0.0479892827570438,-0.2317911833524704
5.394988525390625,-0.4107967233747243,1.168210324223712,-0.5536988813996314,-0.0441186986863613,-0.0581454075872898,-0.1989612430334091
5.405015380859375,-0.3513001399196684,1.1330521362766623,-0.8543225809186696,-0.0329083874821662,-0.0565754733979702,-0.1629523783922195
5.415043701171875,-0.3561779020238667,1.0513070422649382,-1.1673398980647325,-0.0167826190590858,-0.0470403395593166,-0.1345336288213729
5.4250703125,-0.3788259332921356,0.9370575627505778,-1.3757622837483885,-0.019444715231657,-0.0209677275270223,-0.1175892651081085
5.435098388671875,-0.3853923791356384,0.8094772578243166,-1.4409978492468594,-0.059314839541912,0.0432132519781589,-0.1127315908670425
5.44512646484375,-0.4818196401029825,0.5408991671897471,-1.5269892025262115,-0.1059393361210823,0.1229938343167305,-0.136699229478836
5.4551533203125,-0.5966130172356963,0.2373852991871535,-1.6630074462562798,-0.1430943310260772,0.2127689719200134,-0.1895013153553009
5.465181396484375,-0.6590304565735161,0.163040690690279,-1.5816776550471785,-0.1812843382358551,0.2732767760753631,-0.2708345055580139
5.47520947265625,-0.6656691639356315,0.1411596982717514,-1.4312947858780622,-0.1978038847446441,0.2761274576187134,-0.3531592488288879
5.485236328125,-0.4917226830232888,0.1799091156437993,-1.3391536777973174,-0.1920866221189499,0.2413478940725326,-0.4171222448348999
5.495264404296875,-0.3506710117032751,0.3227598357424139,-1.3184598493367432,-0.1585903465747833,0.1325374096632003,-0.4438499510288238
5.50529150390625,-0.0726922838457394,0.583094925623387,-1.4134855729430913,-0.1243977546691894,-0.0305894613265991,-0.4222429394721985
5.515319580078125,0.1826719314206391,0.8667236511997878,-1.6862866150349378,-0.1000278815627098,-0.189625397324562,-0.3618160784244537
5.525347412109375,0.1668849267619662,0.8820349098391831,-2.176556688097119,-0.0972866937518119,-0.3072814345359802,-0.2801169753074646
5.535374267578125,-0.0718451563639566,0.4858236150473356,-2.337428802576661,-0.1351151168346405,-0.41471928358078,-0.2037587761878967
5.54540234375,-0.1491226217086426,0.075016078017652,-2.4167741419702766,-0.2004019767045974,-0.4260451793670654,-0.1533483266830444
5.555430419921875,-0.4005473512347787,-0.3654604749582708,-2.7197096255630253,-0.2625792324542999,-0.3008218705654144,-0.1444125473499298
5.56545751953125,-0.6152478673398495,-0.7969825909756123,-2.850353775039315,-0.3010925650596618,-0.1052832677960395,-0.1529572904109954
5.5754853515625,-0.603126052391529,-1.1011420634053646,-2.690023512351513,-0.3136570751667022,0.1105176582932472,-0.1697409152984619
5.585513427734375,-0.5732052536413074,-1.300051647595316,-2.171254490035772,-0.3064921200275421,0.3295592069625854,-0.2135331332683563
5.59554052734375,-0.7425012053340673,-1.4814898725025354,-1.7440309479951857,-0.2521648406982422,0.5202895998954773,-0.2836924791336059
5.605568359375,-0.8392678543236106,-1.5295682592339812,-1.0402373667180538,-0.2012137770652771,0.6239835023880005,-0.3492850661277771
5.615595458984375,-0.747804353243485,-1.360430274581909,0.0821083743661642,-0.1990544646978378,0.6193175911903381,-0.3999525904655456
5.625623291015625,-0.7014728832446039,-1.2545954260610044,1.1533768391638994,-0.2277801185846328,0.5306937098503113,-0.4374035596847534
5.635651611328125,-0.6285295198477804,-1.1384957886353135,1.9608043979167935,-0.2796025574207306,0.3852739632129669,-0.4545298218727112
5.64567822265625,-0.5414791590347886,-1.0349651254035532,2.427353988173604,-0.3169070482254028,0.211030513048172,-0.452819287776947
5.6557060546875,-0.4413876764714717,-0.9449984387524424,2.542000942572951,-0.3186016976833343,0.0197919625788927,-0.4372568726539612
5.66573388671875,-0.3875477305386215,-0.914893661737442,2.392584288087487,-0.2737375497817993,-0.1443325281143188,-0.4110223650932312
5.67576123046875,-0.3428461998291313,-0.896730228537321,2.0217302835226056,-0.1875587403774261,-0.2668914794921875,-0.3691017925739288
5.685788818359375,-0.2212377723867073,-0.8560073191352188,1.5646984631955625,-0.0948133543133735,-0.3368804156780243,-0.302361398935318
5.69581591796875,-0.1484775470044463,-0.8637610020019113,1.1594412537693977,-0.0289150662720203,-0.3520123362541199,-0.2221004515886306
5.70584423828125,-0.1298408520030789,-0.994434231442213,0.8693746040999889,0.0041973483748734,-0.3353324234485626,-0.1404183804988861
5.7158720703125,-0.1156854671342298,-1.1363948708333074,0.6661591394096612,0.0228277891874313,-0.314899206161499,-0.05560939386487
5.725899169921875,-0.0477314729899168,-1.2477256864219903,0.3962245926648378,0.047927550971508,-0.2874486744403839,0.0173774622380733
5.735927001953125,-0.0551552663151174,-1.3170057050056754,0.2160048036366701,0.0661846697330474,-0.2520369291305542,0.0743618085980415
5.745954833984375,-0.0708126532447524,-1.405767692042142,0.1405553026378154,0.0804000869393348,-0.2149337530136108,0.1222872585058212
5.755982177734375,0.0167725268309935,-1.4673698694743216,0.1053068791240453,0.0841441452503204,-0.1619416177272796,0.1673216968774795
5.766010009765625,0.027482429154776,-1.5085896224826574,0.1951385412186384,0.0836165696382522,-0.1204927116632461,0.2017883211374282
5.776037109375,0.0405685225579887,-1.552742360202968,0.321416896700859,0.083552211523056,-0.0966001003980636,0.214908629655838
5.786065185546875,0.0260715029109269,-1.6008084719747304,0.4429840057522058,0.0822030529379844,-0.0643521472811698,0.1931258291006088
5.79609326171875,-0.0110709176559001,-1.5559396949395536,0.5762842226952314,0.0771146416664123,-0.0366082526743412,0.1616217494010925
5.8061201171875,0.0102225571982562,-1.483751387693733,0.7281126144975424,0.0713507607579231,-0.0170598551630973,0.128637433052063
5.81614794921875,0.0064321519393473,-1.4651462020754813,0.9038239861905574,0.0650455504655838,-0.0112430080771446,0.0978021845221519
5.826176025390625,0.0647021892741322,-1.3323584646992384,1.1168038890480994,0.0560347400605678,-0.025242181494832,0.0669265612959861
5.836203125,0.1289601053794845,-1.1434632017843425,1.280505673995614,0.0517380014061927,-0.0508662275969982,0.039446547627449
5.84623095703125,0.1591700963346287,-0.9366755776956676,1.3523188643187285,0.0476330034434795,-0.0729630142450332,0.0235096551477909
5.856258056640625,0.192573074644804,-0.7326184014841913,1.437775964590907,0.0455875732004642,-0.0948319882154464,0.0173489283770322
5.8662861328125,0.2447364656675607,-0.5450641779147088,1.475575826153159,0.0522803626954555,-0.1173000186681747,0.0233234632760286
5.876314208984375,0.2919160038631409,-0.3225865250021219,1.4693249490648508,0.0699925497174263,-0.1387693434953689,0.0385069288313388
5.886341064453125,0.3265003009123727,-0.1194886953420936,1.4060159677147863,0.0938981473445892,-0.1557824164628982,0.0603349953889846
5.896369140625,0.350682081086561,0.0458317768484353,1.3234177640050648,0.1205857172608375,-0.1721976697444915,0.0852769985795021
5.90639697265625,0.351890580093488,0.12895575799793,1.19466688092947,0.1561679393053054,-0.1939024329185485,0.1076414287090301
5.916423828125,0.3303163520691916,0.2375612402759492,1.0610516066879034,0.1792602092027664,-0.2029597461223602,0.1253547221422195
5.9264521484375,0.3255326249239966,0.3490605442993342,0.965273018887639,0.1867114752531051,-0.2074785977602005,0.1467279195785522
5.93647900390625,0.2814596744416281,0.3398476025350391,0.8109504721820354,0.1831706762313842,-0.2092805802822113,0.1615218371152877
5.94650732421875,0.1924065589714795,0.3074107293106615,0.6768500447720289,0.1749284565448761,-0.1864295899868011,0.1725510507822036
5.95653515625,0.0901027706535533,0.2996143763460219,0.5205991603523492,0.1723483949899673,-0.1617032140493393,0.1704751104116439
5.96656201171875,-0.0436878601549193,0.2556367029316723,0.4145990382671356,0.1653597503900528,-0.1478923857212066,0.1491300463676452
5.976590087890625,-0.1554561173127964,0.2445316638104617,0.4384188897937536,0.141505017876625,-0.1415647119283676,0.1164258942008018
5.986617919921875,-0.1734957780027761,0.2464993106216192,0.4734516247302293,0.1107670813798904,-0.153864249587059,0.0885950624942779
5.99664501953125,-0.185774390948005,0.3155056268304586,0.4548036228835582,0.0838182866573333,-0.1663066297769546,0.0691562965512275
6.006673095703125,-0.1905985597014427,0.4471114609457552,0.3606839082062244,0.0715570971369743,-0.1716883480548858,0.0678247138857841
6.016699951171875,-0.0441250825284048,0.6017353286854923,0.2536807465583086,0.0708421543240547,-0.1762114763259887,0.0895168110728263
6.026728271484375,0.0370856854109093,0.7341402042239904,0.143721073192358,0.0812665671110153,-0.1746428608894348,0.115576647222042
6.036755859375,0.0554159630779176,0.8021053408168256,0.0523310757398605,0.097470685839653,-0.1792439371347427,0.1484765112400055
6.046783203125,0.109657987005636,0.8049998932145536,-0.0265092367410659,0.11249890178442,-0.187570571899414,0.1851053684949875
6.05681103515625,0.1389749746438116,0.805449536678195,-0.0988490812867879,0.1190709695219993,-0.1988895237445831,0.2232067883014679
6.066839111328125,0.128877066738531,0.7352724231243133,-0.1775152062445879,0.1194949448108673,-0.2032610923051834,0.2431629300117492
6.076865966796875,0.08011829652749,0.6626251200646162,-0.2990869914710521,0.1157031580805778,-0.2109477519989013,0.2406494468450546
6.08689404296875,0.0132240040365606,0.5199623237535357,-0.438490785986185,0.1100202426314354,-0.2126630991697311,0.2236353009939193
6.096922119140625,-0.0194314803745597,0.4171566137954592,-0.5874369003504515,0.1008708924055099,-0.2061265856027603,0.1946069300174713
6.10694921875,-0.0384544530134648,0.3576218902871012,-0.6629121203124523,0.0826269090175628,-0.1948912441730499,0.1673452109098434
6.11697705078125,-0.0116334469094872,0.385790438542515,-0.7357529001176357,0.0628245025873184,-0.1827290803194046,0.150973692536354
6.127004150390625,0.0722149760570377,0.3669850541770458,-0.7618979797214269,0.0433663800358772,-0.1872290223836898,0.1412622183561325
6.137031982421875,0.1475150586478412,0.3478622744254768,-0.733180419281125,0.0235881190747022,-0.1952193230390548,0.1307664215564727
6.14706005859375,0.1201106266327202,0.3078995357409119,-0.7565525270402431,0.0111058838665485,-0.203370988368988,0.1101740598678588
6.1570869140625,0.0546624412968754,0.2008452284276485,-0.7750847935527563,-0.0046759191900491,-0.2012972235679626,0.0774045512080192
6.167115234375,0.0672559654101729,0.1909549719236791,-0.8288818501919507,-0.0220812745392322,-0.1995781511068344,0.0477574430406093
6.17714306640625,0.0148666566770523,0.2407047989986837,-0.8687287074118852,-0.0363176763057708,-0.2045450806617736,0.01573939435184
6.187170166015625,-0.0606912731323391,0.2521713649086654,-0.9292968656212092,-0.0479687377810478,-0.2060689479112625,0.0061863702721893
6.197197998046875,0.0031865210816264,0.3249458014793693,-1.0213111324518918,-0.0330474339425563,-0.2213853895664215,0.016928007826209
6.20722509765625,0.1092263175901025,0.4570528631150722,-1.2388286787390708,0.0142060983926057,-0.2179171591997146,0.0405310727655887
6.217253173828125,0.1415377378039062,0.64541781854555,-1.4524877960324287,0.0724125280976295,-0.2149006128311157,0.0912114158272743
6.22728125,0.2888639228161424,0.7897361269786953,-1.641345065024495,0.1425607204437255,-0.2215843498706817,0.179442748427391
6.237307861328125,0.376704045767337,0.8060664995327591,-1.7922487431973215,0.2021093964576721,-0.2747098803520202,0.2955353856086731
6.247336181640625,0.3192768889974802,0.6944783481821417,-1.88194012003839,0.2260040789842605,-0.3049026727676391,0.3951229751110077
6.257364013671875,0.0539049009278416,0.4242744829766452,-2.003115014901757,0.2121319323778152,-0.2756117284297943,0.4583796262741089
6.26739111328125,-0.2361293808419257,0.0144542034186422,-2.1201865660995245,0.1812491118907928,-0.1618899554014206,0.4895990788936615
6.2774189453125,-0.4448981688104569,-0.4066027788162231,-2.2215976068288086,0.1561001241207122,-0.0106562059372663,0.489083468914032
6.287446044921875,-0.5925573851693421,-0.7509422859430313,-2.043471575209498,0.1259869635105133,0.1613126248121261,0.4437530040740967
6.29747412109375,-0.7757148350846022,-0.9682128717318176,-1.506369023823738,0.0783362612128257,0.3189279437065124,0.3513130247592926
6.307502197265625,-0.9116818600840866,-1.1508132722862063,-0.7477005275428295,0.0216420907527208,0.4206774830818176,0.2341909259557724
6.317529052734375,-0.926805998653546,-1.1577382492437958,0.0326660058051347,-0.0233798641711473,0.4304277598857879,0.1256834119558334
6.32755712890625,-0.8163221552830189,-0.9721658471412956,0.7279056937485933,-0.0547668151557445,0.3755253553390503,0.0474192388355731
6.337585205078125,-0.749787416819483,-0.7501433906503021,1.292872403615713,-0.0830429047346115,0.2961728274822235,-0.0130810337141156
6.347612060546875,-0.7428489227931946,-0.5865038572840392,1.6934452546179293,-0.1038813367486,0.2051622420549392,-0.0530795827507972
6.357639892578125,-0.7280571579832583,-0.4734465101636946,1.9225573771089317,-0.1167827546596527,0.1199594512581825,-0.0685853064060211
6.367667236328125,-0.6987579982627182,-0.4042293276831507,1.987899325591325,-0.105249673128128,0.0498517341911792,-0.0703264847397804
6.377695068359375,-0.7392512636274099,-0.2864385223001242,1.9283792151302095,-0.0694649145007133,-0.0088476222008466,-0.0650432631373405
6.38772314453125,-0.7560980612710118,-0.1849545624651014,1.7672358824938534,-0.0179615132510662,-0.0579379387199878,-0.0447720810770988
6.39775,-0.680743472013995,-0.0899625949978828,1.6117355241805311,0.0372317917644977,-0.0856989324092865,-0.0046273521147668
6.407778076171875,-0.5226083812829107,0.041915041796118,1.4583084650099276,0.0914367064833641,-0.089953601360321,0.0550319850444793
6.41780615234375,-0.4050119294282048,0.1096872861653566,1.2833400206387042,0.1472940444946289,-0.0772206261754036,0.1236474588513374
6.4278330078125,-0.3352585211791098,0.1561126449927687,1.165748244959116,0.2037898153066635,-0.069865770637989,0.185048758983612
6.437861083984375,-0.2781548242099583,0.1272425243392586,1.069500286081433,0.2525935173034668,-0.06399966776371,0.2235423773527145
6.44788818359375,-0.2452389352969825,0.0555631895288825,0.9986579866170884,0.2892937362194061,-0.0535012185573577,0.2477132230997085
6.457916015625,-0.1858117638163268,-0.0553651096735149,0.9357920728594064,0.3153471052646637,-0.0587744116783142,0.2534794509410858
6.467944091796875,-0.1919231593687087,-0.1321518506255,0.9233592922657728,0.313041627407074,-0.0624314621090889,0.234461024403572
6.477970947265625,-0.2097467661552131,-0.2036140355538576,0.8990273995637893,0.2945167422294616,-0.0649394765496254,0.1912323534488678
6.487999267578125,-0.2531935475632548,-0.2925976294517517,0.886388867264986,0.2580879032611847,-0.061268575489521,0.1313836723566055
6.498027099609375,-0.278222994075343,-0.3367285206664353,0.8680611834138632,0.2154778391122818,-0.0503189228475093,0.0654665604233741
6.508053955078125,-0.2689652633212506,-0.2991934475202113,0.7966910606831312,0.1723367571830749,-0.0239301901310682,0.0024423191789537
6.51808203125,-0.2895262591823935,-0.1939149177078157,0.7308347329378128,0.1408703327178955,0.0098608061671257,-0.0468561314046382
6.528109130859375,-0.2747096521921455,-0.071970061385259,0.7001730526924133,0.1257121562957763,0.0449154637753963,-0.0863068699836731
6.53813720703125,-0.2158588192947208,0.0942412221651524,0.7168903787374497,0.1247031390666961,0.09339639544487,-0.10797019302845
6.5481650390625,-0.1539296018652617,0.2876294856503605,0.7370476161032915,0.1302323937416076,0.1454769074916839,-0.1187746375799179
6.55819189453125,-0.1533056247480213,0.4537142202116548,0.8360667932599782,0.1418506354093551,0.1824860274791717,-0.1179399937391281
6.56822021484375,-0.1818246669415384,0.5455161594659089,0.9775655142277478,0.1487916260957718,0.1979003995656967,-0.1157322376966476
6.578248046875,-0.2309075545404106,0.5810382853545248,1.1631599820315837,0.1465698480606079,0.1845286339521408,-0.1231955885887146
6.588275146484375,-0.3270079947061836,0.5929807982131838,1.3321651340842249,0.1336998641490936,0.1633027046918869,-0.1446782499551773
6.598302978515625,-0.4253748454339802,0.6072055037248879,1.4160679906517266,0.1114556565880775,0.1354246437549591,-0.1729945242404937
6.608331298828125,-0.452097871056199,0.6283402078207582,1.4372265140146017,0.0859231278300285,0.104194551706314,-0.1957549750804901
6.61835791015625,-0.477323424662277,0.7174725625395775,1.3524959744513034,0.067139908671379,0.0919625982642173,-0.2077438086271286
6.628385986328125,-0.5003100402351468,0.7836356912117451,1.1846756482690572,0.0622466243803501,0.0899985134601593,-0.2159479558467865
6.6384130859375,-0.5362877278715372,0.865607068260014,1.066039331972599,0.0594530589878559,0.08938729763031,-0.2111741006374359
6.648441162109375,-0.4751962033752351,0.9461656559009104,0.9414414769232272,0.0638296976685524,0.0932198539376258,-0.1956974118947982
6.658469970703125,-0.4852168082606047,0.9693938982099294,0.7760854950278997,0.0650672689080238,0.1115017384290695,-0.1813271641731262
6.6684970703125,-0.5283810464002192,0.9720982617978006,0.6247919407546519,0.0679812952876091,0.133041113615036,-0.1645439267158508
6.67852490234375,-0.5302689059734345,0.9606087534036488,0.5059767607599497,0.0668164268136024,0.1586722731590271,-0.1572041511535644
6.688552978515625,-0.580934751914814,0.8941237723659724,0.4156616990625858,0.0579683482646942,0.1695952266454696,-0.170181468129158
6.698580078125,-0.6396177539646625,0.8404702158506959,0.3913350670576095,0.0335386954247951,0.1674951910972595,-0.2000082731246948
6.708607666015625,-0.700819314706698,0.7361721484430134,0.3890823196947574,-0.0050105606205761,0.1499401628971099,-0.2363026291131973
6.718635009765625,-0.7580679731044918,0.6431999233003706,0.3038455841749906,-0.0464281663298606,0.1191317364573478,-0.2799545228481293
6.728662841796875,-0.8248067097075283,0.5932322156909853,0.1669920586645603,-0.094165064394474,0.0998411327600479,-0.3237054646015167
6.738691162109375,-0.8807062185186892,0.5810504141837358,-0.0047749593168497,-0.1398835778236389,0.1014590784907341,-0.3577973544597626
6.748718017578125,-0.883287028792128,0.582511280516535,-0.2244230878919363,-0.1713959574699401,0.1237926110625267,-0.36972776055336
6.758745849609375,-0.8868936019167304,0.5976357113469392,-0.3755272570729255,-0.1882851868867874,0.12073565274477,-0.3618590831756592
6.76877392578125,-0.7941548932690173,0.5489661537893116,-0.3377642203897237,-0.205272689461708,0.1134764105081558,-0.3432728946208954
6.77880078125,-0.7925457775719463,0.463224172161147,-0.4086135341167449,-0.220964252948761,0.0953708589076995,-0.3362044394016266
6.788828857421875,-0.868488468915224,0.2648596546333283,-0.462836707213521,-0.2394300699234008,0.089223489165306,-0.3399211466312408
6.79885595703125,-0.8406849545799195,0.1029142118338495,-0.5247673859477043,-0.2591206729412079,0.1042316481471061,-0.3491219282150268
6.808884033203125,-0.8568602096375078,0.0217511554937809,-0.663667907115817,-0.2702343165874481,0.1516375094652176,-0.3712309598922729
6.818912109375,-0.8092609116598963,0.0900723389826714,-0.8353121755003928,-0.2803590893745422,0.1642059832811355,-0.4015886783599853
6.82893896484375,-0.6502564907483757,0.2178279274106025,-0.8839578407257794,-0.2725189924240112,0.147231251001358,-0.4102671444416046
6.838967041015625,-0.5073211245736107,0.1071118096541613,-1.0633049385726452,-0.2411641627550125,0.0843594297766685,-0.4024691581726074
6.848994873046875,-0.3785530711675062,-0.068924410079047,-1.1419441755235191,-0.2178481817245483,-0.0065632909536361,-0.3813263177871704
6.859021728515625,-0.2662415009131655,-0.139187594481185,-1.2545172462582588,-0.1915947347879409,-0.1964526176452636,-0.3523403108119964
6.8690498046875,-0.0771145481342449,-0.2168272990006953,-1.6050199521899222,-0.1654044091701507,-0.3938698172569275,-0.3157311677932739
6.879076904296875,-0.0121946609888225,-0.3280488089960068,-2.202159915909171,-0.1548687070608139,-0.502280592918396,-0.2897186279296875
6.88910498046875,-0.0788951114080846,-0.5775869758568704,-2.9547207429647444,-0.1598757207393646,-0.4452612996101379,-0.2650356590747833
6.8991328125,-0.1827999417144805,-0.9816924579646438,-3.639505672389269,-0.1487259417772293,-0.2413302361965179,-0.2529471814632416
6.909159912109375,-0.2802930052824318,-1.4282730999693274,-4.035338050866127,-0.1119301244616508,0.062928982079029,-0.2676981687545776
6.91918798828125,-0.4562706266961991,-1.7716376245841383,-3.9181472572028633,-0.0680812001228332,0.4077627956867218,-0.3306718170642853
6.9292158203125,-0.5843850384991616,-1.9911844847418367,-3.3723879366308447,-0.0100546469911932,0.707258403301239,-0.4327782094478607
6.939242919921875,-0.6820858995988964,-2.142899333167076,-2.4834371099233628,0.0483639799058437,0.8604631423950195,-0.5581872463226318
6.949270751953125,-0.7250906363278627,-2.1761086520686743,-1.2714683810591696,0.077456884086132,0.8619588017463684,-0.6915415525436401
6.9592978515625,-0.581842770137824,-1.8937080069825047,-0.0640694443285465,0.0646026358008384,0.7505348324775696,-0.7990174889564514
6.969326171875,-0.3663261153442785,-1.494986921326816,0.957591232213378,0.0136451786383986,0.5797290205955505,-0.8583247661590576
6.979353759765625,-0.0991393329376354,-1.108757652975619,1.6547013902038334,-0.0578050948679447,0.3750495910644531,-0.8571678400039673
6.989381103515625,0.1663384901266545,-0.7635045381352304,2.039835264533758,-0.1120225265622139,0.1852990984916687,-0.795844316482544
6.999408935546875,0.3919169220661744,-0.4956850107830017,1.995112325710058,-0.116622045636177,0.0363955795764923,-0.6939957737922668
7.00943701171875,0.5408885361978784,-0.2977003594182431,1.6888129186421632,-0.062489029020071,-0.0618843883275985,-0.5741676688194275
7.0194638671875,0.6090065617974847,-0.2330691164884716,1.310796767362952,0.0429314859211444,-0.1067556664347648,-0.4490406513214111
7.029491943359375,0.6137881700508296,-0.2906523406028747,1.0058978747427465,0.1670893877744674,-0.1201194003224372,-0.3325822353363037
7.03951904296875,0.5802934948692098,-0.4364088651455938,0.8484007896542549,0.28143510222435,-0.1320245563983917,-0.2435144037008285
7.049547119140625,0.5024374441852792,-0.6072051383987068,0.8336737606436013,0.3483350574970245,-0.149036020040512,-0.1848367154598236
7.059574951171875,0.4350553681774065,-0.7393818312045186,0.9077379447638988,0.3615375459194183,-0.1829915940761566,-0.1420560926198959
7.06960205078125,0.4583583562230691,-0.8275168454490601,0.8662491655558348,0.3528353869915008,-0.2280080616474151,-0.0955511778593063
7.0796298828125,0.4975228572020307,-0.921153452784568,0.7350432905435562,0.3299715518951416,-0.25875324010849,-0.0596991442143917
7.089657958984375,0.4640153956040739,-0.9302420375168324,0.5437830520629883,0.3054121434688568,-0.2585039734840393,-0.0289239194244146
7.099684814453125,0.4449042697576805,-0.9886590821068734,0.281474177891016,0.2977005541324615,-0.2337829917669296,-0.0016035716980695
7.109712890625,0.4651206534322351,-1.038439450450614,0.0490033926218748,0.2947559058666229,-0.1702018976211547,0.0177296474575996
7.119739990234375,0.4566962316971272,-1.0179128683157264,-0.0227805716067552,0.2871104776859283,-0.0808189660310745,0.025128535926342
7.129767822265625,0.4538404769398271,-0.9917341787032784,0.0196504568874835,0.2738953232765198,0.0139011461287736,0.0195332337170839
7.1397958984375,0.4344992686646058,-0.9461978046048432,0.1853577364385128,0.2525123953819275,0.090641364455223,0.004757807124406
7.149822998046875,0.424170803406462,-0.861269404381886,0.4728180030018091,0.2292384803295135,0.1427919119596481,-0.0095678688958287
7.15985107421875,0.3856611496070399,-0.791418600172922,0.7072580425173044,0.2130181491374969,0.154690071940422,-0.0238876361399889
7.169878662109375,0.3305940364994108,-0.6862956993136554,1.0248071578741074,0.1935009062290191,0.1309112310409546,-0.0339157655835151
7.17990576171875,0.3425470342194661,-0.5175510248281061,1.233490824842453,0.1756545603275299,0.090738445520401,-0.0447115451097488
7.18993408203125,0.3015252149360254,-0.3738477064881473,1.3645418015539643,0.1560134887695312,0.0399343855679035,-0.0493782050907611
7.1999609375,0.3312152736702933,-0.2119450068518519,1.4535492877840994,0.1371947824954986,-0.0110376318916678,-0.032235063612461
7.209989013671875,0.3752275069413706,-0.0667112640742212,1.4696049350500109,0.120360143482685,-0.0486883372068405,-0.009325754828751
7.220016845703125,0.4035940985195339,0.0505268027968704,1.3893074094980955,0.1074419766664505,-0.0713949650526046,0.0186331588774919
7.2300439453125,0.4713096442654728,0.1356979987997561,1.3224544719308613,0.102845624089241,-0.0874375775456428,0.0532353445887565
7.240072021484375,0.5082817862993106,0.1960898505941033,1.1926771684169768,0.109795942902565,-0.0955669656395912,0.0929493904113769
7.250099609375,0.5692433277403935,0.2905670004069805,1.0859639296263457,0.1197508424520492,-0.0928249731659889,0.1388566941022873
7.260126953125,0.6542166265510022,0.3245089444320648,0.927562589174509,0.132825031876564,-0.0900205299258232,0.1866076290607452
7.270155029296875,0.6667590049989521,0.2776204981375486,0.8110188612431287,0.1438867449760437,-0.0743630081415176,0.2208675891160965
7.280181640625,0.6551872251488268,0.2315983132835477,0.7215180385380983,0.152826115489006,-0.0710767060518264,0.245403841137886
7.2902099609375,0.6636893152300268,0.2397146189175546,0.6525421174675226,0.1616278737783432,-0.0737355947494506,0.2660638391971588
7.30023779296875,0.6617782939769328,0.2334230444926768,0.5524070880234241,0.1680269986391067,-0.0931383594870567,0.2806314826011657
7.31026513671875,0.6243846751280129,0.1843207215409726,0.4645511099159717,0.1687577664852142,-0.1176719292998313,0.2899738550186157
7.32029296875,0.555431915737316,0.2120832828113809,0.3438759812682866,0.1568633764982223,-0.1382204592227935,0.299168199300766
7.33032080078125,0.5442811012456193,0.2318074625222012,0.2538976041793823,0.1260575354099273,-0.1524806320667266,0.3123282194137573
7.340347900390625,0.4758008912701159,0.1866184405567124,0.1180301670968532,0.0913831144571304,-0.1440530866384506,0.3208583295345306
7.3503759765625,0.3536293865848332,0.0655324660858139,-0.0978191537171602,0.0581513941287994,-0.1075712516903877,0.3123442232608795
7.36040283203125,0.2987215922247618,0.0123270551968365,-0.1973480339616537,0.0210386756807565,-0.0627996772527694,0.3028006255626678
7.370430908203125,0.2720640330541878,-0.0529206025982275,-0.1664917079269885,-0.0214619133621454,-0.0160289742052555,0.2831001579761505
7.380458984375,0.1741641422510147,-0.0855847087072208,-0.1322241121441126,-0.0540868826210498,0.0396937318146228,0.2565526664257049
7.390486083984375,0.068383069743961,-0.1211550941843539,-0.1460696821451187,-0.0596744567155838,0.0853576213121414,0.2346971482038498
7.400513671875,0.0422669970389455,-0.0767216398265212,-0.0832709884047508,-0.0519689843058586,0.0924436002969741,0.2242700159549713
7.410541748046875,0.0564541835518553,0.0706470691531896,0.1301636724829673,-0.0486994236707687,0.0675518289208412,0.215829387307167
7.42056884765625,0.0734514590494334,0.2310975972197949,0.2543459324687719,-0.0541885495185852,0.0308370776474475,0.2210664451122284
7.43059716796875,0.0856845523525029,0.3322285788986832,0.3043634705692529,-0.0605806671082973,7.86329619586e-05,0.2398356050252914
7.440623779296875,0.0739103817980736,0.3994530531920492,0.2392769581526517,-0.0607166439294815,-0.0223366729915142,0.2635043263435364
7.45065185546875,-0.0165820092275738,0.4649406937554478,0.0889636470884084,-0.0501928962767124,-0.0380328111350536,0.2933988571166992
7.460679931640625,-0.0821739138830453,0.4577214100264012,-0.0374316127717494,-0.0374688133597373,-0.0509907566010952,0.3196985125541687
7.47070703125,-0.1278991981497034,0.4627808123078197,-0.1826619214832782,-0.0273756999522447,-0.0575996600091457,0.3472523689270019
7.48073486328125,-0.1668136698903516,0.4335009418096393,-0.3109562929630279,-0.0202607698738574,-0.0575792156159877,0.3760264217853546
7.490762939453125,-0.2847374905359,0.3355444254484027,-0.4103922342270612,-0.0261032115668058,-0.0671945661306381,0.3960118293762207
7.500789794921875,-0.3637481180824339,0.2139618265669792,-0.4719979187905788,-0.0413827747106552,-0.0932842642068862,0.4043236970901489
7.510818115234375,-0.3924831411141902,0.0802245333809405,-0.5478799659878015,-0.0670109018683433,-0.1306734532117843,0.4026344716548919
7.5208447265625,-0.4376026780400425,-0.0502351263739168,-0.6696615945726633,-0.0995531380176544,-0.1539767384529113,0.3819400370121002
7.530873046875,-0.5424655397236346,-0.1697157845400273,-0.8287105852782726,-0.1320080161094665,-0.1500480324029922,0.3456427454948425
7.54090087890625,-0.5906723020751029,-0.2129227658428251,-1.0325187551647423,-0.1582162827253341,-0.1320096254348755,0.3129594922065735
7.550927978515625,-0.4771742985151708,-0.1246636137619614,-1.2271674670398234,-0.169976532459259,-0.0814132913947105,0.3102742433547973
7.560955810546875,-0.3429395041357725,-0.0523680467493832,-1.4137176281332968,-0.1593719273805618,-0.0414456278085708,0.3520745635032654
7.57098388671875,-0.0257824568364769,0.1344954180769622,-1.6011334661453962,-0.0823352113366127,-0.0068200067616999,0.4438769221305847
7.581010986328125,0.1563334481365978,0.3670617726750672,-1.905197661507129,0.0491090156137943,0.0491480454802513,0.553504228591919
7.5910390625,0.1562276496745646,0.4618068527091294,-2.0209493622779844,0.1993336677551269,0.0812396705150604,0.6864636540412903
7.601065673828125,0.3842188783768564,0.5222849214822054,-1.841067426902056,0.3099567294120788,0.0807810053229332,0.839653491973877
7.611093994140625,0.2398009089615196,0.3136238316718489,-1.669735877728462,0.357088565826416,0.1298683881759643,0.9653986692428588
7.621121826171875,0.4196139438197016,-0.0051783524859696,-1.41464409532845,0.3455979228019714,0.1448514908552169,1.0671682357788086
7.631149169921875,0.1675237909210845,-0.4900996849313378,-1.23405605750978,0.3135750293731689,0.2469943761825561,1.0623865127563477
7.6411767578125,-0.554038013693504,-1.1077140622068196,-1.1734230173707008,0.2436145544052124,0.3233258724212646,1.000273823738098
7.651203857421875,-0.2852102956794202,-1.273036361028254,-0.6280845525592565,0.1412064135074615,0.3186917006969452,0.9037880301475524
7.6612314453125,-0.3446794066056609,-1.3702882362514734,-0.1341314070701599,0.0312443524599075,0.320764422416687,0.7744954228401184
7.67125927734375,-0.5722390024250373,-1.4538815884783862,0.1182429330646991,0.0313921570777893,0.3360821306705475,0.6070944666862488
7.681286376953125,-0.7427160901937633,-1.3134234626047312,0.0661164399862289,0.1200711950659751,0.2564940452575683,0.399353951215744
7.691314453125,-0.8906101382218301,-1.1044089562468231,0.2892331214547157,0.192904382944107,0.1089136376976966,0.23814058303833
7.70134228515625,-0.913627295063436,-0.957989876142144,0.7100093870520592,0.1965365409851074,0.0821235626935958,0.151227667927742
7.711369384765625,-0.8083318141162396,-0.7459392169587313,1.1356219867646693,0.1467442065477371,0.0556392222642898,0.1415497362613678
7.721397216796875,-0.6981783717438578,-0.4520280572229996,1.4083639921456574,0.0737161487340927,-0.0059122387319803,0.1690143495798111
7.73142431640625,-0.5804018140818923,-0.1917672016220167,1.4799749378949405,-0.0070530008524656,-0.0503955520689487,0.2059076577425003
7.741452392578125,-0.616870353975147,-0.0822423394767567,1.3572551516771316,-0.0867124125361442,-0.0542461276054382,0.2548153698444366
7.751480224609375,-0.6422140540681779,-0.1291520842876285,1.0334177498310804,-0.1208754405379295,-0.0451532937586307,0.3231714963912964
7.76150732421875,-0.6357586673837154,-0.1518646686920896,0.7964560828834771,-0.1066536530852317,-0.047864943742752,0.4001693725585937
7.771535400390625,-0.6955503613278269,-0.0867930981162935,0.5906880111008882,-0.0525893531739711,-0.0194410290569067,0.4577674269676208
7.781563232421875,-0.6425152289718389,0.0247196864431723,0.3662269292861223,0.0573437996208667,0.026932768523693,0.5351939797401428
7.79159033203125,-0.2912515851376578,0.210497073065862,0.2557178053438663,0.2097732871770858,0.0917764827609062,0.6248914003372192
