seconds_elapsed,ax,ay,az,gx,gy,gz
0.06295166015625,0.2321533898830413,1.527130364562571,-0.0973486135959625,0.1111068502068519,-0.2833693325519562,0.0308471750468015
0.072979736328125,0.3073101184803992,1.5967119964413343,-0.3680699268043041,0.129548966884613,-0.2661788761615753,0.1180060505867004
0.0830068359375,0.3654199602847918,1.6109019959658384,-0.4900818570137024,0.1312326192855835,-0.2287937104701995,0.199203684926033
0.093034423828125,0.3199131776070222,1.5485396478161215,-0.5627835206091404,0.1109912693500518,-0.196442425251007,0.2698909044265747
0.103061767578125,0.2392917903956025,1.3218544602110982,-0.5949404078483581,0.0747702494263649,-0.1124786511063575,0.3130493462085724
0.113089599609375,0.0211984900470823,0.9231433844927698,-0.6440794095486402,0.0238673910498619,-0.0623651482164859,0.3397920131683349
0.123117919921875,-0.0043998423941433,0.6648207304127514,-0.5056278011918067,-0.0035655933897942,0.0090992487967014,0.3362149596214294
0.13314453125,-0.1099510882006958,0.3986614644229412,-0.4786591302454471,-0.0182726345956325,0.0757903978228569,0.306814432144165
0.143172607421875,-0.2625790694154798,0.2029238613326102,-0.3311462635546922,-0.0327846221625804,0.1165934652090072,0.2624564468860626
0.153199951171875,-0.300685330045782,0.0747526047758758,0.0035047932505607,-0.048240277916193,0.1473681628704071,0.2246267795562744
0.1632275390625,-0.2636535302465781,0.0045996758151799,0.3156464966058731,-0.0616524443030357,0.1784233152866363,0.191804364323616
0.1732548828125,-0.2404494359981268,0.0790454065989702,0.4792208557814359,-0.0788215771317482,0.169297456741333,0.1592682600021362
0.18328271484375,-0.262930878527835,0.121824006421864,0.847154588985443,-0.089935727417469,0.1494767218828201,0.1320415139198303
0.193310546875,-0.2582784496121108,0.2481765961840748,0.9801736508995292,-0.0750412046909332,0.1394118368625641,0.1161112785339355
0.203337646484375,-0.3157446232181042,0.3188094906814396,0.9128706314772368,-0.0407587625086307,0.0936610847711563,0.1047932803630828
0.21336572265625,-0.350045427150838,0.3802104464530945,1.0065057775080204,-0.0089153433218598,0.0228004995733499,0.0957478508353233
0.223392822265625,-0.2965968916883692,0.5063146874774247,1.1649866129368542,0.0209971833974123,-0.0294241718947887,0.0988246574997901
0.2334208984375,-0.2264518903058022,0.6907724794015287,0.9829051216900349,0.0623507499694824,-0.0778574869036674,0.1084594428539276
0.243447509765625,-0.2720577129112556,0.6947752853021025,0.7331026778697967,0.10294821113348,-0.124393492937088,0.1290002316236496
0.253475830078125,-0.204224824395962,0.7300906365722417,0.5614022953838109,0.1289630383253097,-0.1631978750228881,0.1458212882280349
0.263503662109375,-0.1623396662814542,0.8019236275743693,0.3677753277719021,0.1447566747665405,-0.1926071345806121,0.1605722457170486
0.27353076171875,-0.2387630538137629,0.807117616020888,0.1215729542702436,0.1526755839586258,-0.1937906444072723,0.170836329460144
0.28355859375,-0.32195235528443,0.7574409272473305,-0.1530003581911325,0.1529734432697296,-0.1645388454198837,0.1733661144971847
0.293585693359375,-0.3947390668148174,0.7243156333673745,-0.3522890048265457,0.1497387737035751,-0.1125339567661285,0.171939730644226
0.30361376953125,-0.3690159389501437,0.7713430497411639,-0.4816752631962299,0.144305795431137,-0.0391387492418289,0.1633270233869552
0.313641845703125,-0.383821549622342,0.8420432373210788,-0.5575368521273136,0.1411811113357544,0.039976842701435,0.1532821059226989
0.323668701171875,-0.414877818675898,0.8905587733607738,-0.547259788262844,0.1377819776535034,0.1079099178314209,0.1442102640867233
0.33369677734375,-0.4130884510410949,0.9518313535124064,-0.3688543551802635,0.1268765926361084,0.1442524641752243,0.1257825195789337
0.3437236328125,-0.4230055955519899,1.0561410382926464,-0.0745750562518835,0.1109330952167511,0.1673495769500732,0.0978677794337272
0.353751708984375,-0.4696194992214441,1.1638250218115749,0.2363765605360269,0.096760019659996,0.1593875288963318,0.0715565457940101
0.363778564453125,-0.4770046045040712,1.245411856521666,0.5012245977967977,0.0953044295310974,0.1388245820999145,0.0484172105789184
0.373806884765625,-0.445573291593045,1.3337791451521217,0.701574151661992,0.1046854108572006,0.1021406203508377,0.0240343734622001
0.383834716796875,-0.466058445739001,1.429029763555527,0.8356219721019268,0.1236531883478164,0.0605861246585845,-0.0041446057148277
0.393861572265625,-0.4721399210771545,1.5176624251239,0.9191191704779864,0.1280785650014877,0.0278516132384538,-0.0289873722940683
0.4038896484375,-0.4191537058968096,1.6366536923378705,1.0099147091686724,0.1161835044622421,0.0026045399717986,-0.0402858071029186
0.413916748046875,-0.3802197622707113,1.7574013016998766,1.0519225438147783,0.1066078469157219,-0.0078275948762893,-0.044183611869812
0.423943603515625,-0.3696913905262947,1.81045966880098,0.9893979908406734,0.0923354476690292,-0.0045440727844834,-0.0367037802934646
0.433970703125,-0.314227606251277,1.9047319436915215,0.8922983835697174,0.0910949483513832,0.0089858509600162,-0.0282162893563509
0.443998779296875,-0.2921876969439909,1.928598703099787,0.7418669990837573,0.0960295721888542,0.0350110977888107,-0.0262088235467672
0.45402685546875,-0.304388093553856,1.8926520681887864,0.6348439636915921,0.1067700982093811,0.061693575233221,-0.0317338146269321
0.4640537109375,-0.3298522051561623,1.8529171469107268,0.5818330889940262,0.1145212277770042,0.0786421969532966,-0.0386708155274391
0.47408154296875,-0.3094519528146833,1.801823065619916,0.5942722993284464,0.1197700500488281,0.0795679166913032,-0.0544271431863307
0.48410888671875,-0.2934732797751203,1.7344886281460523,0.6184767662584781,0.1129081025719642,0.0668598040938377,-0.0819373056292533
0.494136474609375,-0.321027349394001,1.6989102420255542,0.640764001390338,0.1048813387751579,0.0487830638885498,-0.116034023463726
0.504164794921875,-0.4159538138769567,1.602566129297018,0.599006342113018,0.086909182369709,0.0306403134018182,-0.1561203300952911
0.514191650390625,-0.4854997899204492,1.532061391223967,0.5470329937696456,0.0608810447156429,0.0104522202163934,-0.1891840100288391
0.5242197265625,-0.4845549102857708,1.51648753612563,0.484390367373824,0.0336396284401416,0.0016471333801746,-0.2192073613405227
0.53424658203125,-0.4942861403031274,1.5404121632009744,0.3842541688859462,0.0099108628928661,0.0173219665884971,-0.230204090476036
0.544274658203125,-0.4683586855053901,1.6101391948997974,0.2185913129985332,0.000823815120384,0.0311571191996336,-0.2229556292295456
0.5543017578125,-0.4216891426585614,1.6254674046739934,0.083660279983282,0.0048723528161644,0.0546496622264385,-0.2036788761615753
0.564329833984375,-0.3843964269008487,1.6283457365892826,-0.0373065250873565,0.0155957769602537,0.0996331796050071,-0.1915984153747558
0.574357421875,-0.4422203279033303,1.5752058286845685,-0.2168681424677372,0.0286023896187543,0.1307902932167053,-0.1955337673425674
0.584384765625,-0.5542585245763882,1.429525145857036,-0.2669061388343572,0.0323504135012626,0.128042995929718,-0.2099943459033966
0.59441259765625,-0.6328995516255498,1.2901613910913468,-0.2016571293324232,0.0094541506841778,0.1175448149442672,-0.2392198741436004
0.604439697265625,-0.743919255438447,1.1558220403589308,-0.133745038101077,-0.0281388945877552,0.1079142019152641,-0.2741953730583191
0.614467529296875,-0.8702470760855823,1.0095696220580488,-0.1137748477399349,-0.0709582641720771,0.0984999239444732,-0.3024919927120209
0.62449462890625,-0.8682135244313627,0.8898173804089426,-0.1698234826982021,-0.1020442768931388,0.1143415570259094,-0.3249173164367676
0.63452294921875,-0.8381418459683656,0.866131092134118,-0.2884299883782863,-0.1102494746446609,0.1416573375463485,-0.3406552672386169
0.644550537109375,-0.8613150701545178,0.8002882814574986,-0.4100952971071004,-0.1029906943440437,0.1741365939378738,-0.3562890589237213
0.654577880859375,-0.9112159230727702,0.674890581267327,-0.4486129515498876,-0.1043947115540504,0.2049126178026199,-0.3708906173706054
0.664605712890625,-0.9235057880643754,0.5923096574859693,-0.3412339423269033,-0.1127438992261886,0.2128419727087021,-0.3855737149715423
0.6746328125,-0.9457598515789956,0.4746283403594046,-0.1628741019517183,-0.1246503666043281,0.2042285054922104,-0.4137592911720276
0.68466064453125,-1.014255734047666,0.3449225677117705,0.0042775311887264,-0.134866327047348,0.1890540271997451,-0.4570529460906982
0.694687744140625,-1.0617565400868654,0.2338820768391713,0.0993067619264125,-0.1465488225221634,0.1731056869029998,-0.5111350417137146
0.7047158203125,-1.1016797504786402,0.2041654223589226,0.1042740289449691,-0.1571319699287414,0.1600534319877624,-0.5572696328163147
0.714743896484375,-1.0532388871103524,0.2075179111246019,0.1204910042524337,-0.1556794792413711,0.1344266235828399,-0.5899341106414795
0.7247705078125,-0.9560891570873558,0.2819099754923954,0.0706459001094102,-0.1424091309309005,0.1029101461172103,-0.6039422750473022
0.734798828125,-0.8183684202883392,0.4533995647719129,-0.0749444740861654,-0.1058460474014282,0.0694581791758537,-0.5899971723556519
0.74482568359375,-0.5578672531254589,0.66192778545022,-0.2917658548027277,-0.0500815995037555,0.0343955010175704,-0.539263129234314
0.75485400390625,-0.2887860718069598,0.8720904389299452,-0.5974018295258283,0.0158782396465539,-0.0138162355870008,-0.4770050942897796
0.764881591796875,-0.1603846232235431,0.9362572061531244,-0.8706172976374625,0.0796774849295616,-0.0541883111000061,-0.3907545506954193
0.77490869140625,-0.0193048583202064,1.0184032091159374,-1.1264613597095012,0.131846934556961,-0.1235761791467666,-0.300671249628067
0.784936767578125,-0.0198765024620108,0.9901438407719134,-1.2205267138510942,0.1654558628797531,-0.1796808987855911,-0.2206134796142578
0.794963623046875,-0.0390273027316667,0.8803840738922357,-1.412204885482788,0.1857153326272964,-0.2102236300706863,-0.1494540870189666
0.80499169921875,-0.0391379052329808,0.7329442724376917,-1.7578958072185515,0.1980640739202499,-0.2066569328308105,-0.0931878238916397
0.815018798828125,-0.0082463982870802,0.5477422380175441,-2.1155308492481706,0.1940192729234695,-0.1530115455389022,-0.0545424334704875
0.825046630859375,0.0228319364678114,0.3784694845372811,-2.33685304851532,0.15644371509552,-0.0313566327095031,-0.031481247395277
0.83507470703125,-0.0148506188577041,0.2089123976903036,-2.4390163689166307,0.0924487560987472,0.1050667166709899,-0.015265260823071
0.8451015625,-0.0027940511653199,0.0161952018670737,-2.333204462879896,0.0015342651167884,0.2482257336378097,-0.0096641024574637
0.8551298828125,-0.018638978289999,-0.0901959288297221,-1.9574007269531488,-0.1119800433516502,0.3194466531276703,-0.0182924773544073
0.865156494140625,-0.0428628075076267,-0.1669245829189196,-1.2098510060578584,-0.2376472651958465,0.295999139547348,-0.0239222794771194
0.8751845703125,0.0311161094820126,-0.1268601008929312,-0.2047632786542177,-0.3371312618255615,0.2363557815551757,-0.0360348708927631
0.8852119140625,-0.0288384286073036,-0.0205497803473845,0.4438175339668989,-0.3766878247261047,0.1296272277832031,-0.0538403764367103
0.89523974609375,-0.0919548830599524,-0.0326053616590797,0.8586667476028204,-0.3628250062465668,0.0132055385038256,-0.0501889176666736
0.905267822265625,0.0622469233428128,0.0218218461098149,1.1442021835833789,-0.324710339307785,-0.050828643143177,-0.0351373590528965
0.915294677734375,0.1237619156818836,0.0666042965684086,1.2734493257433177,-0.2661381065845489,-0.0738756358623504,-0.0140392649918794
0.925322509765625,0.1290075064514763,-0.0220799125241115,1.281162092077732,-0.1968906819820404,-0.0741374790668487,0.014304781332612
0.935349853515625,0.126786231939122,-0.1586566303871572,1.298564477777481,-0.1249528378248214,-0.0666790306568145,0.018594866618514
0.945377685546875,0.0501869398506358,-0.3179912331011146,1.2996166171789167,-0.0648337602615356,-0.0627233833074569,0.0037559766788035
0.955404541015625,-0.0051161374373361,-0.4051712116431444,1.3306290105581282,-0.0202710907906293,-0.0530566424131393,-0.0216812063008546
0.965432861328125,0.0383758348193019,-0.4408176945637911,1.256129942151904,0.016501635313034,-0.0372180081903934,-0.0377283431589603
0.975460693359375,0.1659986454467289,-0.4831985272407531,1.144365265190601,0.0577561296522617,-0.0134655414149165,-0.0173442438244819
0.98548779296875,0.4594152813974768,-0.3761353790339082,0.9439344627827404,0.1144173443317413,0.0084906984120607,0.0475058034062385
0.995515625,0.7990468300290405,-0.1504394216619431,0.6379302392691374,0.1630240231752395,0.0154095906764268,0.139419212937355
1.005542724609375,1.0177166881565003,0.0049266062146052,0.5110305370181799,0.1707604974508285,0.0011181579902768,0.220935046672821
1.01557080078125,1.0079956507395953,-0.0689728888632729,0.6202870305508374,0.1478631645441055,-0.0284482538700103,0.2672708332538605
1.02559765625,0.8636143600728362,-0.2705000351404771,0.7653110030353069,0.112890638411045,-0.0729764103889465,0.2667699456214905
1.035625732421875,0.6386238475564867,-0.5316511906446889,0.7621990084946155,0.0912055820226669,-0.1148072183132171,0.2257018834352493
1.04565380859375,0.4327181208688765,-0.7723723197236657,0.588030774590373,0.0802007392048835,-0.1183924525976181,0.1565399020910263
1.055680419921875,0.3179697519216686,-0.8829736519940197,0.3832973065525293,0.0671858713030815,-0.0856299847364425,0.0813737884163856
1.065708740234375,0.2854000643641687,-0.8301321425139904,0.2529968559473753,0.0583916008472442,-0.0275532491505146,0.0323543809354305
1.075735595703125,0.3998823114547878,-0.6305101722709834,0.2609241418153047,0.0537987127900123,0.0259054452180862,0.013642743229866
1.085763916015625,0.5367911108164116,-0.344947373359464,0.3768511991530656,0.0556705854833126,0.0562158748507499,0.0101242288947105
1.09579052734375,0.570806193142943,-0.1135460439527407,0.5365443329811096,0.066337339580059,0.0553673915565013,0.0126976417377591
1.105818603515625,0.5340936518933623,0.0624728958521038,0.7212403906404972,0.0790065005421638,0.0272441357374191,0.0130180167034268
1.1158466796875,0.5094316504541784,0.2062949452009052,0.9008084377616644,0.0849639922380447,-0.0075362143106758,-0.0022365697659552
1.125873779296875,0.3775937246160581,0.300841287792474,1.0606722519814968,0.0770105943083763,-0.0397963225841522,-0.026197612285614
1.135901611328125,0.2633348196862265,0.3464609197275713,1.2030138535141943,0.0588563568890094,-0.0676058456301689,-0.0462935604155063
1.1459287109375,0.2261109313810244,0.3949865022372454,1.2804045517086982,0.0460766181349754,-0.0896626114845275,-0.0634506121277809
1.15595654296875,0.2331847970237024,0.4776858647665009,1.2789958539545536,0.0465919412672519,-0.1053028255701065,-0.0711639299988746
1.16598486328125,0.2440526298555545,0.6342287544026971,1.215015841475129,0.0582383684813976,-0.1205770969390869,-0.0684183537960052
1.176011474609375,0.3076485201219097,0.7829545040145516,1.1405617812544109,0.0743531584739685,-0.1401545256376266,-0.0553699247539043
1.186039794921875,0.367293572136946,0.8977943506374955,1.0723527529031038,0.0859835818409919,-0.1682991683483123,-0.0356595590710639
1.19606689453125,0.4306172761321067,1.0037938151355832,1.0213958881258964,0.0913668945431709,-0.2057147175073623,-0.0027886927127838
1.206094482421875,0.5344053481910377,1.068199505681172,0.9487152673184872,0.0853289738297462,-0.2374825030565261,0.0348500274121761
1.216121826171875,0.5813805229209363,1.1239793336354196,0.8136176455646753,0.0759186968207359,-0.2444551885128021,0.0714202895760536
1.226149658203125,0.6093777331974357,1.1316907847955822,0.6125672499537468,0.0663921386003494,-0.2418970614671707,0.1085597202181816
1.236177734375,0.6524674447961151,1.0824081368409098,0.4178934036374092,0.0635249763727188,-0.2296052426099777,0.1452871114015579
1.24620458984375,0.6761405813284218,1.001479035387188,0.2265367190450429,0.0587887652218341,-0.1979538798332214,0.1701099276542663
1.256232666015625,0.66124710970968,0.940636298020184,0.0674573332011699,0.0510157980024814,-0.1616315692663192,0.1902591288089752
1.266259765625,0.6089897202605381,0.7692819524928927,-0.039110944160819,0.0362647622823715,-0.1122661828994751,0.2078346908092498
1.276287841796875,0.5765840824246407,0.6029570890327915,-0.1624421402752399,0.0144233824685215,-0.0612296275794506,0.2220959216356277
1.286314697265625,0.4987690213382243,0.4982421844525262,-0.222498841831088,-0.0156812071800231,-0.0163222998380661,0.2359451353549957
1.2963427734375,0.4572668346593156,0.3854119240863248,-0.2986287263095378,-0.04164969176054,0.019071377813816,0.2651746273040771
1.306370849609375,0.5399642244271934,0.3122848016204312,-0.3058645227819681,-0.0494552217423915,0.0397535972297191,0.2986622452735901
1.316397705078125,0.6234371651448309,0.2387314165664836,-0.4292401425600051,-0.0383660867810249,0.0730979666113853,0.3201310634613037
1.326425537109375,0.5975243599269539,0.1665950952362269,-0.6373410412043332,-0.0255654826760292,0.1340297013521194,0.3335198760032654
1.336452880859375,0.5446601636910811,0.0291870776481926,-0.8529320033431053,-0.0152220306918025,0.2399108558893203,0.3409607410430908
1.346480712890625,0.4185236643649637,-0.1228194106673821,-1.1035171219736335,-0.0093098562210798,0.3508976101875305,0.3492222428321838
1.356507568359375,0.261835374908708,-0.2709040493641048,-1.1797639108300209,-0.0119165582582354,0.4331059157848358,0.352684885263443
1.36653564453125,0.1702851819258183,-0.3354820277366787,-0.9993693497568368,-0.0318096317350864,0.4781149923801422,0.336812824010849
1.376563720703125,0.010035345796775,-0.3673507456842809,-0.6643681643396615,-0.06651621311903,0.4796108901500702,0.3011496365070343
1.3865908203125,-0.1295868407093919,-0.344461453006044,-0.2820867568314075,-0.096725545823574,0.424421489238739,0.2595567405223846
1.39661865234375,-0.1856811414402909,-0.2520231155443936,0.0730611445575952,-0.1097657158970832,0.3122811019420624,0.2387744933366775
1.4066455078125,-0.1363868030478246,-0.0179533341133967,0.1920201169371604,-0.0906751751899719,0.1894857883453369,0.2570019066333771
1.416673828125,0.0541302158500067,0.2737075624775141,0.0678928020089864,-0.0358476154506206,0.0921254009008407,0.3120854198932647
1.426700439453125,0.2685963569436222,0.4856189958533272,-0.2892208464950322,0.0286304410547018,0.0259375181049108,0.3811485469341278
1.436728515625,0.4112531984379515,0.669149261136353,-0.5847638817489147,0.0959184020757675,-0.0503937378525733,0.462578684091568
1.44675634765625,0.5381968859611079,0.8089004077844322,-0.7593927189022303,0.1591051518917083,-0.1618383824825287,0.5509975552558899
1.456783447265625,0.6119856506735086,0.8512348440364003,-0.9226461755603552,0.1972320228815078,-0.2737840712070465,0.6197087168693542
1.466811279296875,0.5145533408494666,0.6959710709579289,-1.0898317109704017,0.190069630742073,-0.3399110436439514,0.637681245803833
1.47683837890625,0.2498290395662188,0.3791684265868738,-1.279774437111616,0.1437969505786895,-0.328391820192337,0.6094099283218384
1.486866455078125,0.0227783065844327,-0.0395549250686541,-1.4382096798330544,0.0850763991475105,-0.2413690984249115,0.5530725121498108
1.4968935546875,-0.1661898389035835,-0.4495522416939959,-1.5774655903100967,0.0426871292293071,-0.112388752400875,0.4816308319568634
1.50692138671875,-0.3203385634122416,-0.7092296348512173,-1.5637193890303371,0.0116497771814465,0.0228159762918949,0.386506050825119
1.516949462890625,-0.4924371879681944,-0.846296803112328,-1.330506260961294,-0.0090720131993293,0.1320345997810363,0.2802877128124237
1.5269765625,-0.5604707866873592,-0.8729040934003889,-0.8750818758308887,-0.0283625368028879,0.1976192593574524,0.185131624341011
1.537004638671875,-0.5471938103545457,-0.7965192112475633,-0.2888730559706687,-0.041155032813549,0.2156533896923065,0.1197805851697921
1.547031494140625,-0.4533948520641773,-0.6211668821252883,0.1866635583400726,-0.0545816272497177,0.2084623277187347,0.0702042430639267
1.5570595703125,-0.4797300474125892,-0.4470608632696792,0.6007189912497997,-0.0645698085427284,0.1811232566833496,0.0365407541394233
1.567086669921875,-0.5032015969581902,-0.3687088457623496,0.9371177685052156,-0.0659611299633979,0.1308361738920211,0.0062822769396007
1.5771142578125,-0.5798362160883843,-0.3161714337954297,1.132578965806961,-0.0613397434353828,0.0559078827500343,-0.027008568868041
1.587142578125,-0.7317533090874553,-0.2895629379309714,1.3204478082835671,-0.0566009432077407,-0.0085312221199274,-0.0528928004205226
1.59716943359375,-0.7564709862366318,-0.205818011871539,1.4064818316608667,-0.0543364584445953,-0.0527823083102703,-0.0682661607861518
1.60719775390625,-0.8018628372978419,-0.1566140186436474,1.370658823129535,-0.0372725687921047,-0.1099681407213211,-0.0747373476624488
1.617224365234375,-0.7854946169514209,-0.1326242904428392,1.341683488535881,-0.0228158645331859,-0.1562429517507553,-0.0679721236228942
1.62725244140625,-0.6976552246525883,0.0353923985617235,1.262094403514266,-0.0053760986775159,-0.1898079067468643,-0.0519253388047218
1.637279541015625,-0.6211902630008757,0.2818445090407505,1.045423829445243,0.0142918787896633,-0.2171058356761932,-0.0188182517886161
1.6473076171875,-0.5281149793425575,0.4522591260325163,0.8041922300934791,0.0299458783119916,-0.2386156767606735,0.0336433500051498
1.65733544921875,-0.4387454183343797,0.5502496907938271,0.6523924798637628,0.036899659782648,-0.2542364597320556,0.0786824598908424
1.667362548828125,-0.4237850189592689,0.5268831359926611,0.508314848318696,0.0386813953518867,-0.2487771958112716,0.1170727014541626
1.677390380859375,-0.4479548529673367,0.4368506540963426,0.3763642924189567,0.0394403934478759,-0.2055772542953491,0.1479765623807907
1.68741748046875,-0.4903567649649455,0.2970645822653546,0.1440384685784578,0.040598277002573,-0.1289383471012115,0.1698262989521026
1.6974453125,-0.5342516554666683,0.1157778946580365,-0.0266997908771038,0.0355380028486251,-0.0522880367934703,0.1665170490741729
1.707472412109375,-0.6290495981991291,-0.0966952277211472,0.0483715244591236,0.0179484449326992,0.0412388518452644,0.1367813348770141
1.71750048828125,-0.7202696459122002,-0.2294277643114328,0.1673345884919166,-0.0091002155095338,0.1180603951215744,0.0870939344167709
1.727528564453125,-0.8328823180049657,-0.3424748092334717,0.3776455644011497,-0.0393695421516895,0.1592694520950317,0.0293530970811843
1.7375556640625,-0.8335986495807767,-0.4120447872070595,0.6926385655343532,-0.0634019076824188,0.1666775792837143,-0.0292572174221277
1.74758349609375,-0.7897063163623214,-0.3595110650345683,1.0149591330766676,-0.0839433223009109,0.1475613564252853,-0.0837072730064392
1.757610595703125,-0.763185900640115,-0.217013651885651,1.2935709072738886,-0.0871977061033248,0.1144630759954452,-0.1243596225976944
1.767638427734375,-0.6658272040415555,-0.004499905235134,1.4625386499255897,-0.0815956965088844,0.0822497829794883,-0.1433993875980377
1.77766552734375,-0.5883008967686444,0.2005788325764238,1.5615741936951877,-0.0623804554343223,0.0430350042879581,-0.1460252702236175
1.787693603515625,-0.4915446961078792,0.3844283564090728,1.6234978581666946,-0.0346098057925701,0.0002191765233874,-0.1386817693710327
1.797721435546875,-0.4329998604197055,0.5531702544156462,1.6441478474855422,-0.0082138888537883,-0.0274531990289688,-0.1275710612535476
1.807748291015625,-0.4035729461336508,0.6980534301899373,1.5562451076269148,0.0221293456852436,-0.0388508439064025,-0.1085833236575126
1.817776611328125,-0.3643353433858603,0.8181853188063949,1.370614983987808,0.048520740121603,-0.0289606619626283,-0.0800123959779739
1.827803466796875,-0.3521445183219387,0.8643795722916722,1.1986229250788687,0.073104403913021,-0.0084725823253393,-0.0568598695099353
1.837831787109375,-0.3880106353426352,0.870848622175306,1.034559905603528,0.0908373296260833,0.009939182549715,-0.0414175279438495
1.8478583984375,-0.4392854069625959,0.7977049139007926,0.9168418731957674,0.1070385053753852,0.0166591145098209,-0.0435841307044029
1.857886474609375,-0.4974611536100506,0.725002008196339,0.8398679391086101,0.1124742850661277,0.0150732025504112,-0.0619705952703952
1.86791455078125,-0.5299214807752519,0.696674323856458,0.7579208927839994,0.1022835969924926,0.0100332712754607,-0.0901239812374115
1.87794140625,-0.5735602776240557,0.6910717546090483,0.6669137571692466,0.0786760002374649,0.0152783663943409,-0.1183090135455131
1.887969482421875,-0.5753221361974253,0.6970107892692089,0.5611480283617973,0.0508760660886764,0.0259938612580299,-0.1444873511791229
1.89799658203125,-0.5777354444168508,0.6969128818526864,0.4446633371412753,0.0254647172987461,0.0298762172460556,-0.1699596941471099
1.9080244140625,-0.5945824247235432,0.6989367888957262,0.3005436200201511,0.0033586157951503,0.0174989104270935,-0.2058298140764236
1.918051513671875,-0.6991659214764833,0.6283249371863902,0.2587760238707065,-0.0240727420896291,0.0056750080548226,-0.2514154016971588
1.928079345703125,-0.7938893011353909,0.5546132562981918,0.223916307413578,-0.057932149618864,0.0118158403784036,-0.3041179776191711
1.938107666015625,-0.9207037362556904,0.5176318349793553,0.1229565175831317,-0.0942507460713386,0.0395151115953922,-0.3504633605480194
1.948134521484375,-1.0103493011936544,0.4782699847973883,-0.0009533552020788,-0.1256094276905059,0.0792664736509323,-0.3805084526538849
1.958162353515625,-1.0519215209014714,0.5411943872766569,-0.0740484020292758,-0.1485070139169693,0.0950992330908775,-0.3976634740829468
1.968189453125,-1.097125082848966,0.5968329070640728,-0.071664721763134,-0.1674723923206329,0.1051992923021316,-0.4101379811763763
1.978217529296875,-1.1746418916411696,0.6739245127141475,-0.0397568408489227,-0.1875696629285812,0.1070896014571189,-0.4253534376621246
1.988244384765625,-1.2648169603459536,0.6696699240095914,0.0263958394944667,-0.2141510397195816,0.0908775553107261,-0.4251648485660553
1.9982724609375,-1.2943268402077257,0.7122669567205011,0.1194084697127342,-0.233301043510437,0.0576937645673751,-0.4118671715259552
2.00830029296875,-1.2707367057837544,0.784677090023458,0.1900432639062404,-0.2419300079345703,-0.0099295265972614,-0.3864746689796448
2.01832763671875,-1.2193652688562868,0.8691476634763181,0.2218184583514928,-0.2390204966068267,-0.0905247703194618,-0.3482378125190735
2.028355224609375,-1.1121209919288757,0.9782678172782064,0.1262035366803407,-0.2292623817920684,-0.1501784026622772,-0.2968232929706573
2.03838232421875,-0.9817292097784578,1.054826960019395,-0.1517933204889297,-0.2132666409015655,-0.1877140551805496,-0.2317590713500976
2.04841064453125,-0.8754428180977701,1.0272709907043724,-0.475134463250637,-0.190208151936531,-0.1803509443998336,-0.160430297255516
2.058437255859375,-0.8235926577426492,0.9540547286503016,-0.8266109826505184,-0.1684562563896179,-0.1462526172399521,-0.1001400575041771
2.068465576171875,-0.8171377825148404,0.8930592849396168,-1.090612632215023,-0.1537033319473266,-0.0700383111834526,-0.0482037477195262
2.078493408203125,-0.7352041801936924,0.9002151480436325,-1.3300094173550605,-0.1319463700056076,0.0273745283484458,-0.0061223409138619
2.088520751953125,-0.6243214006334543,0.9008539574038236,-1.5836819806069136,-0.0994758084416389,0.0566058047115802,0.0376301296055316
2.098548583984375,-0.5225733099695294,0.8300990439619869,-1.6064806723922491,-0.0578695088624954,0.0670057162642479,0.0909854918718338
2.108575439453125,-0.238068203417398,0.7738336244478822,-1.6197423050254582,-0.0123273245990276,0.0269416533410549,0.1429759860038757
2.118603515625,-0.0157775061779655,0.7491100290145725,-1.7092004576325417,0.039334587752819,-0.0739409774541854,0.1967846006155014
2.128630615234375,0.2340249559085816,0.708060591071844,-1.8564695786952967,0.0809330195188522,-0.2010211497545242,0.245359182357788
2.138658447265625,0.4948801606735214,0.6130312872689216,-2.1078958243250847,0.1102725267410278,-0.309250146150589,0.2850160598754883
2.1486865234375,0.57957617691271,0.3268825416956096,-2.463219666802883,0.1179683580994606,-0.3285124003887176,0.2991511225700378
2.15871337890625,0.5378660831041634,-0.1605076650813222,-2.8049416849076745,0.0911002606153488,-0.2258656620979309,0.2752846777439117
2.16874169921875,0.3976135993378236,-0.6487094805020839,-3.0408167256623506,0.0450505353510379,-0.0051527009345591,0.2150277197360992
2.178768310546875,0.227166102989763,-1.16322734817937,-3.167143596461415,0.0046213543973863,0.2953083515167236,0.1167738586664199
2.188796630859375,-0.0106405268820002,-1.6203765112757682,-3.0690310127556324,-0.0246026869863271,0.5992724299430847,-0.0234783068299293
2.198823486328125,-0.260782486588601,-1.9008827209174632,-2.534065473398566,-0.051580511033535,0.7914953827857971,-0.1898795366287231
2.2088515625,-0.4364932920260355,-1.9558792164742944,-1.4520219320863486,-0.0858093202114105,0.8301021456718445,-0.3652966320514679
2.21887939453125,-0.5500572004290297,-1.804389555107057,-0.1284919398784637,-0.1272851228713989,0.7708556056022644,-0.5325068831443787
2.228906494140625,-0.5993893500812352,-1.5623782035544511,0.972669558879733,-0.15544955432415,0.637613832950592,-0.6786699295043945
2.2389345703125,-0.6758968357004225,-1.3204825873360038,1.768625875547528,-0.1877632886171341,0.4342751204967499,-0.787573516368866
2.24896142578125,-0.677429890486598,-1.0465804521344602,2.460630234831572,-0.1992527097463607,0.2384149432182312,-0.8447055816650391
2.2589892578125,-0.4868030180061236,-0.6651259239044041,2.7200392959088084,-0.1746650636196136,0.0470598973333835,-0.8743404746055603
2.2690166015625,-0.4874590707620606,-0.4139908432409167,2.5660575254648923,-0.145549401640892,-0.0850019082427024,-0.8591175675392151
2.27904443359375,-0.4232161330301314,-0.1079665267873555,2.4616794516235587,-0.1081759333610534,-0.1678541749715805,-0.7921071648597717
2.28907275390625,-0.1677645226080902,0.1048045556250959,2.1722008309751746,-0.0541504546999931,-0.2033158242702484,-0.6805708408355713
2.299099609375,0.0208452698623528,0.2523418261047452,1.7597165929049252,0.0183101613074541,-0.1949455142021179,-0.5407016277313232
2.30912744140625,0.1605529655277729,0.3655897273611277,1.3564946886986493,0.1039744392037391,-0.1856223195791244,-0.3854526579380035
2.31915478515625,0.2968251109536737,0.3861646786823868,1.0174439356297251,0.1772401332855224,-0.1882977336645126,-0.2305970340967178
2.329182373046875,0.4236098815880715,0.3574723257485777,0.8433622109651565,0.2201525419950485,-0.1980527341365814,-0.1066316440701484
2.33920947265625,0.4534493221977725,0.2237315254312008,0.7656009258925914,0.2345365434885025,-0.2056600451469421,-0.0076443376019597
2.349237548828125,0.4459293019564822,-0.0542333291646093,0.6436772584885359,0.2452286779880523,-0.227337971329689,0.0643389448523521
2.359265625,0.4370962628878653,-0.3944236807227134,0.4619254375874996,0.2373100370168686,-0.2338078469038009,0.0934249311685562
2.36929248046875,0.3512546202775091,-0.6837511293973774,0.2796674207299947,0.2115085870027542,-0.2086460143327713,0.083317145705223
2.379320556640625,0.2845900996881537,-0.9157466983702032,0.0930313349187374,0.1761631220579147,-0.1410046517848968,0.0484941825270652
2.389347412109375,0.2593195196302607,-1.1407656332634388,-0.1037105498433113,0.1449368894100189,-0.0475726798176765,-0.0041353567503392
2.399375732421875,0.2234215644328855,-1.3603332439482212,-0.2247141797930002,0.1177002042531967,0.052030075341463,-0.0774854719638824
2.40940234375,0.1701847537586465,-1.436684954483807,-0.1659603775292635,0.0960886031389236,0.1312193870544433,-0.1596301048994064
2.4194306640625,0.1645253580237738,-1.390791948967427,0.0748702398061752,0.0690111815929412,0.1785882413387298,-0.2495474815368652
2.429458740234375,0.1323546066559851,-1.2721879275053738,0.4215139322221279,0.0448948219418525,0.1788554489612579,-0.3304418623447418
2.439485595703125,0.115719844327867,-1.0780017916407436,0.8337906650215386,0.0230931174010038,0.1349868029356002,-0.3790892958641052
2.449513671875,0.1931253747653216,-0.8133530032791196,1.200536065223813,0.0131886107847094,0.0808257609605789,-0.4011507332324981
2.459540771484375,0.2255789616624824,-0.501188320907019,1.3718734596163034,0.0156903844326734,0.0126720080152153,-0.4077974557876587
2.46956884765625,0.2109546989065595,-0.2428430166037753,1.4922522356659174,0.0237984210252761,-0.0508468970656394,-0.3927460312843323
2.479595703125,0.2114142427097074,-0.0520825443388894,1.5331383728057144,0.0390990786254406,-0.1076377406716346,-0.3591566383838653
2.48962353515625,0.1923261506790295,0.10978344001621,1.4960598112553358,0.053958274424076,-0.1348135024309158,-0.3216548860073089
2.49965185546875,0.113164570354484,0.2434173824256285,1.4199357719957828,0.0666671469807624,-0.1492454260587692,-0.2792965173721313
2.5096787109375,0.0790784138194285,0.3636128377975895,1.2935749989271164,0.0800201520323753,-0.1374084204435348,-0.2297832071781158
2.519706787109375,0.0707666221459396,0.4771057998562231,1.1859884844332933,0.0870202705264091,-0.1219546273350715,-0.1799972653388977
2.529733642578125,0.054123713043984,0.5584312071511521,1.0896510937064885,0.0904884710907936,-0.1160463318228721,-0.131679967045784
2.53976171875,0.0705878863118588,0.6250779180891811,1.0304098001867532,0.0892554298043251,-0.1235503256320953,-0.0845473483204841
2.54978857421875,0.0308123407624661,0.6719768127124757,0.9668909754782916,0.0779822692275047,-0.1396094560623169,-0.0499323830008506
2.559816650390625,0.0336372619900852,0.6974997418299317,0.9365852690637112,0.0614689998328685,-0.1628878563642501,-0.0211434885859489
2.5698447265625,0.0659522258678451,0.7074275538653135,0.8812509198546409,0.0418026521801948,-0.1804357916116714,0.0045309215784072
2.579871826171875,0.1122320752773433,0.7330456139203161,0.7370341720998287,0.0294562373310327,-0.185412973165512,0.0422284975647926
2.5898994140625,0.2310803538240492,0.7699960921116172,0.5496498982697725,0.0221814922988414,-0.1770527809858322,0.0867509543895721
2.5999267578125,0.3172756687102839,0.7877619042962789,0.3553554066598415,0.0221250317990779,-0.1763449162244796,0.1348564326763153
2.60995458984375,0.3555857448169961,0.7586077790696173,0.1910784521728754,0.0196117553859949,-0.1880564838647842,0.1698479950428009
2.619981689453125,0.3692148955883458,0.7188339870858937,0.0874585032224655,0.0117612900212407,-0.1962001621723175,0.1935639828443527
2.630009765625,0.3300318360393867,0.6560536327198148,-0.0270464123576879,-0.012057764455676,-0.1877333223819732,0.2021764367818832
2.64003759765625,0.2594547268498688,0.5648541163381189,-0.1546679991424083,-0.044880423694849,-0.1594569385051727,0.2077389806509018
2.65006494140625,0.2568888949498534,0.4469969677206128,-0.2462637483000755,-0.0791612938046455,-0.1156685426831245,0.2059496492147445
2.6600927734375,0.2612585979340598,0.3220531487777829,-0.3250958774745464,-0.0928555354475975,-0.0756329745054245,0.2004283964633941
2.67011962890625,0.2314443648308515,0.2643325254866853,-0.4063537724912166,-0.0902680680155754,-0.0479769706726074,0.181314006447792
2.680147705078125,0.2250060754116624,0.2219551268758252,-0.4228600861340761,-0.0765173658728599,-0.0466437898576259,0.1516008526086807
2.6901748046875,0.1715501238277182,0.2199665103418752,-0.4145318182498216,-0.0651420727372169,-0.0744411572813987,0.125355988740921
2.70020263671875,0.1807100567631423,0.2512938514217734,-0.362335182544589,-0.0647801458835601,-0.1092971414327621,0.1081501021981239
2.710230712890625,0.1740834782302379,0.3032107203375548,-0.3444634257674217,-0.0777430608868599,-0.1395826935768127,0.0987298712134361
2.720257568359375,0.1683823805117979,0.3316333894845098,-0.390302801400423,-0.096946582198143,-0.166720300912857,0.1008614674210548
2.730285888671875,0.2291104419905692,0.3588004325471818,-0.4614812009513377,-0.1065473034977912,-0.1700481176376342,0.1092212200164794
2.7403125,0.2304442478775978,0.3517219820609316,-0.6306774916619062,-0.0987445041537284,-0.153833732008934,0.1107381582260131
2.7503408203125,0.1148694015109911,0.2968937192104757,-0.848327724418044,-0.0821631103754043,-0.1233052685856819,0.1083578988909721
2.76036767578125,0.0338284371806308,0.3372402695808559,-1.0070838696569204,-0.0688435807824134,-0.0888759195804596,0.1085837334394455
2.770395751953125,0.0267823180614039,0.4551002677425741,-1.162687688344717,-0.057781383395195,-0.0368006154894828,0.1192645728588104
2.780423583984375,-0.0605444850727915,0.5341309151638299,-1.4130325684785845,-0.036353588104248,0.0381127744913101,0.1571286022663116
2.79045068359375,-0.1016252314692363,0.5204290279498324,-1.6479998467385768,-0.0025874339044094,0.0958928912878036,0.2307662218809127
2.800478759765625,0.0528923263518139,0.5999808131683617,-1.7979957624167202,0.0572327561676502,0.0902696251869201,0.3259007334709167
2.810505615234375,0.2910554780436679,0.7609829107031225,-1.875378861826658,0.1242885068058967,0.0297435410320758,0.4176938235759735
2.820533447265625,0.4982214339254424,0.9121191555228084,-1.8553297610104085,0.1691739559173584,-0.0298249796032905,0.4965873062610626
2.830560791015625,0.5810944359885528,0.9211373784326016,-1.8432213900655507,0.177359402179718,-0.0733168423175811,0.5598403215408325
2.840588623046875,0.560303686492145,0.6197315886251628,-1.7651508929133417,0.1512258052825927,-0.0623296983540058,0.6023582220077515
2.850616943359375,0.4622682962084188,0.1180441956222057,-1.7078490430235862,0.1136053651571273,0.0182705223560333,0.6041825413703918
2.8606435546875,0.2557063341017812,-0.392190916701965,-1.7311463319808245,0.0639371424913406,0.1590244472026825,0.5441442728042603
2.870671630859375,-0.1451524942349642,-0.8823604154665022,-1.6223130322962998,-0.002989059779793,0.3237139582633972,0.4325794279575348
2.880698974609375,-0.5150879226502031,-1.297178576377034,-1.2230424960643052,-0.0574118196964263,0.4520088136196136,0.2823705077171325
2.8907265625,-0.8347035420827567,-1.6975290168002246,-0.7124801610797643,-0.0944195017218589,0.5012133717536926,0.1063460782170295
2.90075390625,-1.1064020297601818,-1.942523183555901,-0.1086357312858104,-0.128117024898529,0.4812782704830169,-0.0753092020750045
2.91078173828125,-1.245673576197773,-1.9134360591508448,0.5898275948792696,-0.1601115018129348,0.4415245950222015,-0.2295052409172058
2.9208095703125,-1.1911099191002548,-1.5983995111368596,1.0998293733716011,-0.1844208389520645,0.3729029297828674,-0.3330529332160949
2.930836669921875,-1.1911186138633638,-1.23645230499655,1.3997364490538835,-0.212005466222763,0.2331033945083618,-0.3760426938533783
2.94086474609375,-1.1544443953301755,-0.991343791146204,1.8995184468269344,-0.2299378663301468,0.0522699616849422,-0.3571861684322357
2.950891845703125,-0.9412132941905408,-0.57971616990529,2.1242104147881267,-0.2185503840446472,-0.118657074868679,-0.302467942237854
2.960919921875,-0.9149551096010952,-0.2646243115074932,1.9481009836882357,-0.1704539507627487,-0.2363027334213256,-0.2114890217781067
2.970946533203125,-0.8968279167581349,-0.0465660824723541,1.5518495030164718,-0.0885435342788696,-0.3041428029537201,-0.07879688590765
2.980974853515625,-0.7352647512745112,0.1187112812288105,1.0789771394789218,0.0094109931960701,-0.3062101900577545,0.0820404663681984
2.991002685546875,-0.5914947974391281,0.2104791720829903,0.6192670398533344,0.0982486307621002,-0.2953848540782928,0.2319736927747726
3.00102978515625,-0.4820949864456429,0.1890590751744806,0.3961789999574422,0.1546690315008163,-0.25894296169281,0.3474816679954529
3.0110576171875,-0.4000839715067297,0.1405503342017531,0.2096475435644388,0.1956523656845092,-0.1596076339483261,0.4364546835422516
3.021084716796875,-0.3776403037041425,-0.0406059319589287,-0.1023988827228546,0.2317075729370117,-0.0502393245697021,0.4907536208629608
3.03111279296875,-0.4128095610344782,-0.3649848202705383,-0.2683341258108616,0.2442501038312912,0.045488778501749,0.5084600448608398
3.0411396484375,-0.3731010163066908,-0.6145441029846668,-0.1711018320709466,0.2256870716810226,0.1105498000979423,0.469624787569046
3.051167724609375,-0.4686337761197239,-0.8052074715506286,0.0386053327262401,0.1882692277431488,0.1376367062330246,0.3856516480445862
3.06119482421875,-0.5464011621395126,-1.055468253597617,0.2903717700958251,0.1354355812072754,0.1288677304983139,0.2732049822807312
3.071222412109375,-0.5747552595622837,-1.2414683795928954,0.5712205095648766,0.0811307728290557,0.1126521453261375,0.145320177078247
3.081250732421875,-0.5902795764304697,-1.360440942106396,0.8002244955062866,0.0341342352330684,0.0886184498667717,0.0062267393805086
3.091277587890625,-0.6867011383093893,-1.4030715848259627,0.9573696984171868,-0.0017648541834205,0.0594234056770801,-0.1230384930968284
3.101305908203125,-0.6681551355324685,-1.27507634242326,1.1368635112583636,-0.0308359190821647,0.0498011410236358,-0.2195671647787094
3.111332763671875,-0.5466489628881216,-1.0270103670068085,1.284506141808629,-0.0444084256887435,0.0553447045385837,-0.2752989828586578
3.121360595703125,-0.4373503107141703,-0.69819992598854,1.3218459846436976,-0.0443591587245464,0.0659414231777191,-0.3010637164115906
3.131387939453125,-0.4127390165489166,-0.3757368812356144,1.3881266752809285,-0.0325704328715801,0.0712487176060676,-0.2877583801746368
3.141415771484375,-0.3111558341231197,-0.0314563742870464,1.4449515553086996,0.0048949145711958,0.0589015036821365,-0.2572952806949615
3.151443603515625,-0.2222780021546408,0.2299796625731512,1.4762182157099246,0.0431295707821846,0.0500514283776283,-0.2220281660556793
3.161470703125,-0.2368033345807343,0.4489494169626384,1.5224626650124788,0.0718941017985344,0.038027785718441,-0.1881309151649475
3.17149853515625,-0.2684010535672307,0.5802001905625686,1.5512860239148138,0.0939674451947212,0.0187480989843606,-0.1457392573356628
3.18152587890625,-0.2634332385594025,0.6819831698767841,1.5702449914067982,0.0993137434124946,0.0009949347004294,-0.0999214425683021
3.1915537109375,-0.2744313832400366,0.7827193070191889,1.5527999356091022,0.0983738079667091,-0.0112358778715133,-0.05435037240386
3.20158056640625,-0.3447899543080479,0.8780692210786044,1.476176714655757,0.0940693393349647,-0.0270665064454078,-0.0147273279726505
3.21160888671875,-0.3978801047869026,0.9194641845233738,1.3739052577048538,0.0956956818699836,-0.0392971150577068,0.0159909296780824
3.22163671875,-0.4522123642813414,0.9465770862460136,1.197693535274267,0.0998853668570518,-0.0425179414451122,0.0416377037763595
3.231663818359375,-0.5056364594222977,0.9561220364436508,0.9619500119447708,0.1006701737642288,-0.0273780673742294,0.057415697723627
3.241691650390625,-0.5845449417686089,0.935051337494701,0.7338654789358378,0.0891144499182701,0.0042427098378539,0.0688555762171745
3.25171875,-0.6168154819827526,0.8858177893787622,0.5625257464557886,0.0675231143832206,0.0461769141256809,0.0718487948179245
3.26174658203125,-0.6608906244222075,0.8135410731971263,0.4739525599896907,0.040516261011362,0.0907100290060043,0.0640545263886451
3.271773681640625,-0.6881872121486813,0.777809103950113,0.4254577014118432,0.0128788296133279,0.1236910000443458,0.0456870421767234
3.2818017578125,-0.7257683894589543,0.7706082326605915,0.3821311853826046,-0.0134792737662792,0.138183131814003,0.0283946022391319
3.291829833984375,-0.7042008469037712,0.8017297855027019,0.3636620472341775,-0.032707143574953,0.1185374557971954,0.0115589182823896
3.3018564453125,-0.6943038683980703,0.8113383024558425,0.3504167812138796,-0.0508712343871593,0.0884397476911544,-0.0135560221970081
3.311884765625,-0.7158315173342824,0.7806904315400868,0.3182867819815874,-0.0727366358041763,0.0623808577656745,-0.0478315092623233
3.32191162109375,-0.7461398540973663,0.7998107270736247,0.2442196752518415,-0.0964329093694686,0.035841129720211,-0.0776120424270629
3.33193994140625,-0.7290589554369449,0.8015211842533201,0.1123871927738189,-0.1126854568719863,0.0205371174961328,-0.0960808470845222
3.341966552734375,-0.7152604394480586,0.7660354448523372,-0.0743102678358554,-0.1147768422961235,0.0047605508007109,-0.1077782437205314
3.35199462890625,-0.6843702842090279,0.7647620639156549,-0.2760112363100052,-0.1048277765512466,-0.0210085343569517,-0.1109810620546341
3.362022705078125,-0.6415516446366906,0.7670593810725956,-0.5154091904938221,-0.085484966635704,-0.0447988174855709,-0.1073503717780113
3.372049560546875,-0.6413217814035713,0.712307142600417,-0.7589554965287446,-0.0739371851086616,-0.0504099763929843,-0.0881803333759307
3.38207763671875,-0.609877572478354,0.6570389904953539,-0.9647627312779428,-0.0691842436790466,-0.0469806268811225,-0.0674588158726692
3.392104736328125,-0.6273961319036782,0.5325977507798001,-1.1472077951401471,-0.0711488798260688,-0.0282979439944028,-0.0548835322260856
3.402132568359375,-0.6921642260208726,0.3787077137399464,-1.3025123386204245,-0.0759441703557968,0.0157488752156496,-0.0568015426397323
3.41215966796875,-0.8113654096584767,0.2035895952323451,-1.4089210415065287,-0.0784236490726471,0.0746824443340301,-0.073741890490055
3.422187744140625,-0.9184616564173252,0.0625077114371582,-1.4936650250732897,-0.0833036303520202,0.134463220834732,-0.1074623018503189
3.432216064453125,-0.9413852897565812,0.0846959797065705,-1.4242197329252957,-0.0797453746199607,0.1470682322978973,-0.1472850739955902
3.4422431640625,-0.9023746641650796,0.1647808854211121,-1.275022274148464,-0.0695521309971809,0.1142591536045074,-0.1843546777963638
3.45227099609375,-0.8237781703773885,0.2808546942858025,-1.1495499743521214,-0.0658384785056114,0.0529992394149303,-0.2147172391414642
3.462298095703125,-0.7233101095866411,0.4087890368141234,-1.0497983912676572,-0.0739930793642997,0.0012518898583948,-0.229847177863121
3.472326171875,-0.6004766338612884,0.5042741215605289,-1.0452250920027495,-0.0857033804059028,-0.0294336397200822,-0.2296444922685623
3.482353271484375,-0.4569142583619803,0.5914085439277812,-1.126788107445836,-0.0752062648534774,-0.0714857503771781,-0.1982982903718948
3.492381103515625,-0.2877795981781557,0.6714945821534842,-1.3171125263810155,-0.0399655029177665,-0.1204912364482879,-0.1332245469093322
3.502408935546875,-0.0700238044220022,0.7225000353127717,-1.5867261706084013,0.0108049996197223,-0.1453102976083755,-0.0456853881478309
3.51243603515625,0.0635617140021175,0.6267689399160444,-1.89991884432137,0.0481552444398403,-0.1244302541017532,0.0301045421510934
3.522464111328125,-0.0250132077633403,0.3266842426445335,-2.042977654212713,0.0435274690389633,-0.0913420692086219,0.071353979408741
3.532490966796875,-0.1384288302694447,-0.1137785375343635,-1.7841408400654792,0.0154264643788337,0.0526229627430439,0.0815020352602005
3.542519287109375,-0.1619496440505609,-0.4662239750316366,-1.7801736900001763,-0.0023160469718277,0.2135207653045654,0.0400637835264205
3.552546142578125,-0.3994455640053376,-0.9223017460368572,-1.6830325816750529,-0.0077903345227241,0.3234473466873169,-0.0343521833419799
3.562573974609375,-0.5080359217794612,-1.2039902242656797,-1.1606114665925502,-0.0194222219288349,0.3419227600097656,-0.1366135627031326
3.57260205078125,-0.5302104537844657,-1.223524142101407,-0.3731663731604814,-0.0538841672241687,0.2846861481666565,-0.2525970637798309
3.582629150390625,-0.5374962999437004,-1.1747982512466608,0.3855260885179042,-0.1007052063941955,0.1816228628158569,-0.3517457544803619
3.5926572265625,-0.4137676289442926,-1.0806540597151963,0.9369634547263384,-0.1337796449661255,0.069310113787651,-0.4042099714279175
3.60268408203125,-0.1778141526585444,-0.8995638445280492,1.2144289814978837,-0.1412561982870102,-0.0203742291778326,-0.4175835847854614
3.6127119140625,0.048723808495514,-0.6135385061386972,1.2817056974351406,-0.1235496550798416,-0.0902831703424453,-0.4003597795963287
3.6227392578125,0.2334990871372632,-0.3475844803974032,1.246726738512516,-0.0777731165289878,-0.1442201733589172,-0.3521416485309601
3.63276708984375,0.3991737978592515,-0.2029218155059963,1.12314361346364,-0.0128833670169115,-0.1723877787590026,-0.2781497836112976
3.6427939453125,0.5521454414125532,-0.120772524607554,0.9810925193101168,0.0502189062535762,-0.1691613495349884,-0.1998477578163147
3.652822021484375,0.6518704287510365,-0.0812968387875705,0.877408857473731,0.0956849753856659,-0.1521473526954651,-0.1284203827381134
3.66285009765625,0.6558542376901954,-0.1566759779639542,0.851017109632492,0.1203695461153984,-0.1428334861993789,-0.0734442174434661
3.672876953125,0.693906247382611,-0.2725656989660114,0.8697370076715946,0.1285062730312347,-0.147739753127098,-0.0266646314412355
3.682905029296875,0.8181113037221133,-0.3434860321026295,0.8953022415608167,0.1288405060768127,-0.1625120341777801,0.0291485674679279
3.69293212890625,0.9801922094695268,-0.3909328429322689,0.834308551415801,0.1361269652843475,-0.1781650930643081,0.0827267467975616
3.702960205078125,1.10401834949404,-0.4648101627109572,0.7137491581022739,0.1535315215587616,-0.1900475919246673,0.1217790693044662
3.712987060546875,1.142207794895768,-0.6209430833067745,0.5401233605116605,0.172862634062767,-0.1831485629081726,0.137952521443367
3.72301513671875,1.0594453405350446,-0.7947541012711823,0.3776560857951641,0.1817352175712585,-0.149066224694252,0.1350376904010772
3.73304296875,0.9605858839847148,-0.9594446780603378,0.2408721183896064,0.1748758852481842,-0.0981026217341423,0.118332602083683
3.743070068359375,0.8619161047875881,-1.094262386894226,0.2033878986477851,0.1560169756412506,-0.0329598374664783,0.0786155462265014
3.753097900390625,0.672670420999825,-1.1904039627879857,0.2390139233022928,0.13096784055233,0.0404514595866203,0.0238502081483602
3.763125,0.4863347794398665,-1.2484664217866956,0.3173842801839113,0.1074539944529533,0.106114886701107,-0.0450308546423912
3.773153076171875,0.3080250618167221,-1.2454592027947309,0.4736316574722528,0.0899980887770652,0.1556769758462906,-0.1184727698564529
3.783179931640625,0.1511667860884219,-1.1424907034903764,0.7286410222858191,0.0779837667942047,0.1678151339292526,-0.182180106639862
3.7932080078125,0.1341832651215605,-0.8954536327302456,1.0505717137277126,0.0633448436856269,0.1434086561203003,-0.2133129090070724
3.803236083984375,0.1889066610917449,-0.5348033345326781,1.381575938463211,0.0455978102982044,0.0972523465752601,-0.2129475176334381
3.81326318359375,0.2321910915449261,-0.1789510477339848,1.6231442224234345,0.0329045504331588,0.0245439633727073,-0.1886181682348251
3.823291015625,0.2853261771440505,0.1172155262457206,1.791733194890618,0.0338180139660835,-0.0622029118239879,-0.1337940692901611
3.833318115234375,0.3646878831505775,0.402874698203802,1.7599474790513514,0.0577869713306427,-0.1217566430568695,-0.0638099834322929
3.843345947265625,0.424960638609901,0.5712301176434382,1.5227350522130727,0.0986782163381576,-0.1371704787015915,0.0135455233976244
3.853373291015625,0.4338025916373357,0.6362991309359669,1.217007892075181,0.1376151442527771,-0.1188364177942276,0.0846051424741745
3.86340087890625,0.403621534515731,0.6127633935803547,0.9964718747496604,0.1591071188449859,-0.0805995613336563,0.1414069086313247
3.87342919921875,0.3729343545028939,0.5434511166948824,0.8574842598199844,0.1594468802213668,-0.0432058870792388,0.1747835278511047
3.8834560546875,0.3166476730050518,0.4432464560806751,0.8383931903809309,0.1428588479757309,-0.0230862386524677,0.1898469030857086
3.893484130859375,0.2629371986707672,0.3543650073830038,0.8486924660772085,0.1123405992984771,-0.0275293048471212,0.1964160650968551
3.903510986328125,0.2818273752428591,0.3566154166582971,0.8763064491897821,0.077820710837841,-0.0501653738319873,0.1871242821216583
3.9135390625,0.2674218332715332,0.3355848305240273,0.8598714472174644,0.0513385497033596,-0.0774488821625709,0.1644493043422699
3.923566162109375,0.2529147671544924,0.2842673522735014,0.7639338694632053,0.0305565726011991,-0.1067196875810623,0.1423889994621276
3.933593994140625,0.2660353838818147,0.2824415250858292,0.6340034212142228,0.0096660424023866,-0.1234249919652938,0.1251538842916488
3.943621826171875,0.2767929247396066,0.3040217079268768,0.4996382053881883,-0.0050934627652168,-0.1187953576445579,0.1212643310427665
3.953649169921875,0.2919464355340227,0.3379356679664924,0.3510340363293886,-0.0057979226112365,-0.1139157712459564,0.1278886049985885
3.963677001953125,0.3445256773486733,0.3706972065679729,0.194971367958188,0.0011686400976032,-0.105705514550209,0.1396158337593078
3.9737041015625,0.3849930410871282,0.4501038111621513,0.0780061997443437,-0.003257502336055,-0.0919934213161468,0.1522416174411773
3.985612060546875,0.3827265574598684,0.527510729839094,0.0042179099559783,-0.0307775437831878,-0.0693296566605568,0.1726089417934417
3.995639404296875,0.3722760367246344,0.5139682709705085,-0.0318780702978372,-0.0545288100838661,-0.0190872754901647,0.1991158127784729
4.0056669921875,0.3726948466585948,0.4633522555202245,-0.2126461408585309,-0.0698904544115066,-0.0147553775459527,0.2179763168096542
4.015695068359375,0.2631146010642871,0.3491625433690846,-0.237387198883295,-0.0804190561175346,-0.0038282535970211,0.2295015603303909
4.02572216796875,0.2729179830024019,0.3295990341126918,-0.2236550261288881,-0.0857957154512405,-0.0001115463674068,0.2212992906570434
4.03575,0.156031652178429,0.271222613793984,-0.3437695982843637,-0.0865229368209838,-0.0188848339021205,0.2175198048353195
4.045777099609375,0.0896902077972889,0.0838724248966202,-0.2764268313735723,-0.0892558693885803,-0.0244343318045139,0.217648446559906
4.055804931640625,0.1490362768657505,0.0906097337950021,-0.3515074990600347,-0.0973156541585922,-0.0500176921486854,0.2058079987764358
4.06583203125,0.0335584246002137,-0.0134409347228705,-0.3132996412187814,-0.1107923090457916,-0.0545426681637764,0.2016920894384384
4.075860107421875,0.1023186570934951,-0.0483813517333939,-0.2980062104970216,-0.1231835335493087,-0.0414533838629722,0.1928932219743728
4.085887939453125,0.1045010426338762,-0.0530058697288855,-0.398411873576045,-0.1192606985569,-0.0417362116277217,0.1823761314153671
4.095915283203125,0.0541605927219614,-0.1436324450608342,-0.4098860382705926,-0.1147034913301467,-0.0159502662718296,0.1731167882680893
4.105943115234375,0.1683853396538644,-0.011007460498251,-0.465675145509839,-0.108876496553421,-0.0056749922223389,0.1610952764749527
4.115969970703125,0.1796730418656021,0.1637523826235905,-0.6502531297475099,-0.0916929319500923,-0.0028402782045304,0.178150936961174
4.125998046875,0.2289502829927951,0.2195102179417386,-0.7682523171842098,-0.0538803078234195,-3.99639829993e-05,0.2337902188301086
4.136025146484375,0.3990437782714143,0.3271574131142348,-0.9244920956879854,0.0192044787108898,-0.0390768945217132,0.3162526488304138
4.14605322265625,0.5550508074652404,0.4321276806950569,-1.1539490860939026,0.1133011505007743,-0.142691969871521,0.4173571467399597
4.156080078125,0.7611068293437361,0.6191300425354391,-1.439125625634193,0.2025109380483627,-0.2653422057628631,0.5229346752166748
4.16610791015625,0.942099502440542,0.7347904848262667,-1.7781985905349251,0.2496776580810547,-0.323445200920105,0.6133812069892883
4.17613623046875,0.9992056836277246,0.5815879185939208,-2.1508552606076,0.243452101945877,-0.2748407423496246,0.6816966533660889
4.186162841796875,0.8499345020275563,0.1580224241368472,-2.4934628293752668,0.1960363984107971,-0.1286638379096985,0.7149150967597961
4.196191162109375,0.6398163452766835,-0.3983177655518055,-2.681133518931269,0.1330430507659912,0.0872473269701004,0.703743040561676
4.206218017578125,0.3544674083115532,-0.929586934608966,-2.6785762356638907,0.0829702988266944,0.3224070966243744,0.6302829384803772
4.21624609375,-0.0598402092609554,-1.4105917511977255,-2.48372118756175,0.0542950369417667,0.4893863797187805,0.4933078587055206
4.22627294921875,-0.4796050693260505,-1.858987698996067,-1.9200807578623291,0.0305790528655052,0.5709224939346313,0.2975146472454071
4.236301025390625,-0.8929401886045932,-2.1449447213895616,-1.0484995836287736,-0.01890280097723,0.5600041747093201,0.0708333998918533
4.2463291015625,-1.2175539085853844,-2.172640391436219,-0.0381657722651958,-0.0985534191131591,0.4925297796726227,-0.1430266797542572
4.256356201171875,-1.326845400366187,-2.0183860876612365,0.9223749574035406,-0.1968239694833755,0.4015305042266845,-0.3038080632686615
4.2663837890625,-1.2545976180180909,-1.6523314462020993,1.6608903079718351,-0.2821625769138336,0.2832099795341491,-0.4008035957813263
4.2764111328125,-1.1702458486393092,-1.1808534596323963,2.097602393847704,-0.3265616595745086,0.153399646282196,-0.4312077760696411
4.28643896484375,-1.1213950162306427,-0.7113105327785014,2.2333961811721323,-0.3045988380908966,0.0198075044900178,-0.4057497978210449
4.2964658203125,-1.058359444994479,-0.3255733953258022,2.0898761835098267,-0.2400902062654495,-0.0815553739666938,-0.3391856551170349
4.306494140625,-1.0072054502099752,0.043545309879072,1.7969021219611168,-0.1549409627914428,-0.1430080831050872,-0.2275398224592209
4.31652197265625,-0.945859804822132,0.3314923370460048,1.4737404274195431,-0.0621735528111457,-0.1911053657531738,-0.0616365857422351
4.32654931640625,-0.7819158816818147,0.5336974191173911,1.2228063492208718,0.0309891514480114,-0.2203103899955749,0.1344021707773208
4.336576904296875,-0.5677211962070315,0.6633627866894006,0.9388269105106593,0.1011009141802787,-0.2738201022148132,0.3073420524597168
4.347232177734375,-0.5526810826592147,0.3938467210849747,0.5222668013036251,0.1450041830539703,-0.2768941819667816,0.4530150890350342
4.357260009765625,-0.5674771583180874,0.109140539002791,0.3181803989976644,0.1803815215826034,-0.2648231089115143,0.5407637357711792
4.367287109375,-0.5239732398953288,-0.1569280530288815,-0.0384609558194875,0.1979858130216598,-0.1858800947666168,0.5857077836990356
4.377315185546875,-0.603190130603686,-0.4868878102127462,-0.137335171547532,0.1945741325616836,-0.1064284369349479,0.5806286931037903
4.387342041015625,-0.5955987256266176,-0.7314508190095425,-0.2286228776693344,0.1722666919231414,0.0089183999225497,0.5356071591377258
4.3973701171875,-0.6184582076884806,-0.9576509995765984,-0.1369967333734035,0.1328369528055191,0.1058784574270248,0.4569909870624542
4.407397216796875,-0.6856978064857423,-1.1576198835611342,0.0724713619709014,0.0964541807770729,0.1729504317045211,0.3510613441467285
4.4174248046875,-0.7328999218393116,-1.1982717735536397,0.3992103304773569,0.0554848536849021,0.2074903696775436,0.2184352129697799
4.4274541015625,-0.7258843439888208,-1.1207752038318664,0.7522492768883705,0.011907547712326,0.2070048749446869,0.084506444633007
4.437481201171875,-0.6129097067158669,-0.9581501812703906,1.0583248120725155,-0.0239934381097555,0.1744550317525863,-0.0331450253725051
4.44750927734375,-0.5013888849804178,-0.6943462462350726,1.2248182735651731,-0.0357614159584045,0.1134601235389709,-0.1119458302855491
4.457536376953125,-0.4008236108928918,-0.3793710730195045,1.3106202417522668,-0.0334322080016136,0.0644955933094024,-0.1548167616128921
4.467564453125,-0.365444619802013,-0.106208540671505,1.35356564950943,-0.0186692420393228,0.0350958928465843,-0.175281822681427
4.47759130859375,-0.3191383573096245,0.1298223116993904,1.393090435168147,0.0052214968018233,0.0112862884998321,-0.173058271408081
4.487619384765625,-0.290688836688362,0.3209336066959425,1.331841893479228,0.0373506695032119,-0.0027882512658834,-0.1564721167087555
4.4976474609375,-0.3708165220987051,0.4565784505363554,1.2463374469339847,0.0696620866656303,-0.0015335860662162,-0.1362544894218444
4.50767431640625,-0.4573845792874693,0.5380669029058889,1.210502747964859,0.0926752611994743,0.0083137182518839,-0.1181114315986633
4.517702392578125,-0.5130423882972449,0.5663576527688652,1.1740221523076295,0.1047513931989669,0.0227383915334939,-0.0992225259542465
4.5277294921875,-0.5888931635733693,0.5768478844599798,1.1268056431025266,0.1076760739088058,0.0245333611965179,-0.0846427828073501
4.537757080078125,-0.6926062706999481,0.6259590848378837,1.07163262193501,0.0955113098025322,0.0257330425083637,-0.0785399749875068
4.547784423828125,-0.7841196753364056,0.6649289400275796,0.9982932449579238,0.0814317092299461,0.0290223136544227,-0.0795818045735359
4.557812255859375,-0.8443357321724295,0.697215664191544,0.8684785320430993,0.0731251835823059,0.0241158790886402,-0.0723238438367843
4.567840576171875,-0.830560377863422,0.7492901348218322,0.7378869895368814,0.0812430307269096,0.0090506412088871,-0.0632089078426361
4.5778671875,-0.8840860702153295,0.7841046969629824,0.6391629959344863,0.0866443663835525,0.0027411396149545,-0.057999413460493
4.587895263671875,-0.8915697039689868,0.8199654071561991,0.571861145555973,0.0866606160998344,0.0024444633163511,-0.0488985925912857
4.59792236328125,-0.7816659255087375,0.8831970854863523,0.5301227755010127,0.0737398862838745,0.0062964456155896,-0.0297058373689651
4.607950439453125,-0.7044082060441375,0.926546836260706,0.4501753785610198,0.0560381263494491,0.0132893733680248,0.0041890116408467
4.617977294921875,-0.6713467711806297,0.8615620306529104,0.3182698308467865,0.0430069789290428,0.0300664827227592,0.0343192145228385
4.62800537109375,-0.7055712584741414,0.7423761176496744,0.2411328151524066,0.0316635146737098,0.0529534220695495,0.0410285182297229
4.638032470703125,-0.7911975778333842,0.5859614575030282,0.216971018320322,0.0243032574653625,0.0699433535337448,0.018397893756628
4.648060302734375,-0.8470137192100285,0.466525990185514,0.2234878528684377,0.013233296573162,0.0817304998636245,-0.0165321268141269
4.658088134765625,-0.8560632871061563,0.3896135404946282,0.2435831309139728,-0.0050314385443925,0.0873783826828002,-0.057321298867464
4.668115234375,-0.8743770885623992,0.3548882275395095,0.311172566062212,-0.0353240966796875,0.0818656384944915,-0.1061775237321853
4.678143310546875,-0.8516923054803163,0.3353829147437587,0.3632178105980158,-0.0689712166786193,0.0752195790410041,-0.1503824591636657
4.688170166015625,-0.8403008506331592,0.3340523602597415,0.3829571148127317,-0.0947620719671249,0.0648225992918014,-0.1895442456007003
4.698198486328125,-0.7721332502707838,0.4253479208944365,0.3702513624966144,-0.1107193827629089,0.0387428440153598,-0.2100013345479965
4.708225341796875,-0.6414386857815086,0.5652996681485325,0.3077618808358907,-0.1104280352592468,-0.0016226866282522,-0.2133417278528213
4.71825341796875,-0.5720051206039265,0.6682231592673807,0.186382987833023,-0.1014339253306388,-0.0565607212483882,-0.1971281617879867
4.72828125,-0.4842839113246649,0.739690093436092,-0.0375765742003917,-0.0896491706371307,-0.1202406287193298,-0.1615025252103805
4.738308349609375,-0.4008627738595008,0.7338653328053653,-0.3069453037559986,-0.0790134370326995,-0.1433626413345337,-0.1166445612907409
4.74833642578125,-0.4240942675715312,0.6306398630652577,-0.6535030714541673,-0.0649271756410598,-0.124941810965538,-0.0741570219397544
4.75836328125,-0.3902019348418339,0.5034091752942651,-0.955949894747138,-0.0479690991342067,-0.079955980181694,-0.0389197915792465
4.76839111328125,-0.4064255225531756,0.4360592479903251,-1.1362702215403315,-0.0421298518776893,-0.0139572545886039,-0.0119145400822162
4.77841845703125,-0.482108174720779,0.3270248362431302,-1.17127957560122,-0.0539889894425869,0.0648058727383613,-0.0074551543220877
4.7884462890625,-0.6634083793967962,0.1023281190415844,-1.0286106418102978,-0.0863618478178978,0.1171945109963417,-0.0428874492645263
4.798474609375,-0.7046423801261932,0.0346320817137137,-0.7815963674038648,-0.1390183568000793,0.1695898473262787,-0.101112961769104
4.808501220703125,-0.6474883412092923,0.2099447364127263,-0.638301995190978,-0.1887494176626205,0.2261671125888824,-0.1705498397350311
4.818529296875,-0.608723178278841,0.4347234693419188,-0.6129407594412565,-0.205103188753128,0.2293124794960022,-0.230500727891922
4.828556396484375,-0.4552594768922776,0.6017123131360859,-0.6131365742743015,-0.1845875382423401,0.1752894669771194,-0.2614341378211975
4.838584228515625,-0.2507985604518093,0.733608435434848,-0.6741016228467226,-0.1509330570697784,0.0959471389651298,-0.2624543309211731
4.848611328125,-0.1002916447779163,0.8438996788427233,-0.7230857262462377,-0.1286139041185379,0.026157934218645,-0.2520275413990021
4.858639404296875,-0.003682862364361,0.9091628630004822,-0.9191711929261684,-0.1169450283050537,-0.0092009715735912,-0.2149334996938705
4.868667236328125,0.0794779527973383,0.9073090518273412,-1.0714099190950392,-0.0936458259820938,-0.1024057492613792,-0.1424127072095871
4.8786943359375,0.2951655619773082,0.8066970525212586,-1.3034335451185703,-0.063399851322174,-0.2177974581718444,-0.041005466133356
4.88872216796875,0.1876918236755765,0.4957399923732504,-1.628750371867418,-0.0393195562064647,-0.3050971925258636,0.0292029175907373
4.89874951171875,0.0199106787262484,0.0521634640879929,-1.9891455262601372,-0.0354029759764671,-0.286354511976242,0.0641761347651481
4.908777099609375,-0.141601779483445,-0.4370508893761783,-2.268064174449444,-0.0405870825052261,-0.1577962636947631,0.062079157680273
4.91880419921875,-0.3027098398770205,-0.9048325056459754,-2.4408196189463136,-0.0377701744437217,0.0494116470217704,0.0285710785537958
4.928832275390625,-0.4318564625382423,-1.1731918389633298,-2.28562145844996,-0.0351283214986324,0.2737014889717102,-0.0286818239837884
4.9388603515625,-0.6000389730963855,-1.299619101396948,-1.6513813058704137,-0.0492176450788974,0.4421949982643127,-0.1163901537656784
4.948887451171875,-0.7303330670259892,-1.30178314756304,-0.6961112100809812,-0.0805105865001678,0.5086786150932312,-0.2260562032461166
4.958915283203125,-0.7417264946345239,-1.1361033405408263,0.240919464662671,-0.1257476806640625,0.4825741052627563,-0.3386345505714416
4.9689423828125,-0.6118283412199467,-0.846831932902336,1.041373092749715,-0.1680863499641418,0.3986530900001526,-0.4221235811710357
4.978970458984375,-0.4125843009112402,-0.5372969049140811,1.524616628175974,-0.1856463551521301,0.2680734992027282,-0.4657045006752014
4.988997314453125,-0.2396813377024605,-0.26109372622855,1.717716357043385,-0.1716429144144058,0.1231581270694732,-0.4740513563156128
4.999025390625,-0.1820697825427167,-0.0697933749333024,1.7488573452383278,-0.1395678669214248,0.0052097970619797,-0.4602682292461395
5.009052490234375,-0.0835302329959813,0.0976535148266702,1.6994243290275337,-0.0943521782755851,-0.0978571996092796,-0.421669989824295
5.019080078125,0.1010380244321189,0.220898713158071,1.5452403140097857,-0.041800606995821,-0.1980315893888473,-0.3528150916099548
5.0291083984375,0.2561647088611498,0.3035758273229003,1.2795423819214105,0.0050566433928906,-0.2784358859062195,-0.2646450102329254
5.03913525390625,0.440442650706321,0.3650977791257202,0.9202250858932732,0.0508134551346302,-0.326631486415863,-0.1583340913057327
5.04916357421875,0.6286996887829155,0.2590051564514636,0.5039034616172313,0.0908615365624427,-0.3439559042453766,-0.0395182333886623
5.059190185546875,0.6976419998448342,-0.0217018364593386,0.0780021080911159,0.1315378248691558,-0.3255369365215301,0.0755122080445289
5.06921826171875,0.7368793468642979,-0.3347924380373209,-0.2888432453542948,0.1828087568283081,-0.2847783267498016,0.1773946285247802
5.079245361328125,0.6139885149285197,-0.6827812614519149,-0.5234276617765427,0.2249234318733215,-0.2342021614313125,0.2366886883974075
5.0892734375,0.4580101638399064,-0.995686423460394,-0.5996288579255342,0.2442047297954559,-0.175759881734848,0.2547340095043182
5.09930126953125,0.3040399194370023,-1.3363988261312243,-0.5207213254272938,0.2311660498380661,-0.1087900772690773,0.2308624535799026
5.109328369140625,0.145562773802597,-1.5929621423885223,-0.366895037806034,0.1887179166078567,-0.0298561099916696,0.182378277182579
5.119356201171875,-0.0362441565528511,-1.8120308636404567,-0.2122708778053522,0.1359416246414184,0.0639633312821388,0.1058758795261383
5.129383544921875,-0.2304427317739464,-1.9679870028972624,0.0516705660045146,0.086507499217987,0.1627050936222076,0.0102897034958004
5.1394111328125,-0.3015635741850361,-1.9474916196182368,0.5083990194708109,0.042820505797863,0.2294998466968536,-0.0923527851700782
5.149438232421875,-0.266129729368072,-1.8218406022541225,0.99716277962327,0.0188738945871591,0.2537247538566589,-0.1901033073663711
5.15946630859375,-0.2303365862520411,-1.5212380916535853,1.3951421070009469,0.0186893157660961,0.2431895136833191,-0.2666904628276825
5.169494384765625,-0.1898711952749639,-1.175765927235037,1.7852596149623392,0.0279326159507036,0.1760632097721099,-0.3205510377883911
5.179521240234375,-0.1345711045285221,-0.8253020920090377,2.089369403031468,0.0333324111998081,0.0797201544046402,-0.3478455245494842
5.18954931640625,-0.030037009008415,-0.4980361404864117,2.170551894724369,0.0382901541888713,-0.0061665214598178,-0.3503875136375427
5.199576416015625,0.0621627156580798,-0.292974463407509,2.0903689354628323,0.0616776905953884,-0.0961571037769317,-0.3200657069683075
5.209604248046875,0.1989186077466234,-0.0438486767398193,1.845798547077179,0.1102904975414276,-0.1613137423992157,-0.2591370940208435
5.21963134765625,0.2907748527376912,0.2527154086574912,1.5587287411361932,0.1691482067108154,-0.2038155794143676,-0.1876630783081054
5.229659423828125,0.3339033802431077,0.436787744927965,1.3000883263438938,0.221260666847229,-0.227178692817688,-0.1159039363265037
5.239687255859375,0.3693006376430392,0.5109515169652179,1.1254665034532547,0.2504770457744598,-0.2299976944923401,-0.0424054600298404
5.249714111328125,0.3739357135651633,0.4988971777625381,0.9436573994070292,0.2598024010658264,-0.2126384079456329,0.0247426815330982
5.259742431640625,0.3339660702157765,0.4570078914621844,0.7379962951302528,0.2544951736927032,-0.1925669461488723,0.0738440379500389
5.269769287109375,0.274058257345017,0.3775928843658417,0.5608329710632562,0.2384679764509201,-0.168049618601799,0.0983483120799064
5.279797607421875,0.2585421968485228,0.3229266802093014,0.4054343195587396,0.2196488380432129,-0.1477810442447662,0.1037515848875045
5.28982421875,0.2794278032878413,0.3122095078945159,0.3099450700938701,0.1917687356472015,-0.1327459067106247,0.0897734463214874
5.299852294921875,0.3130963737316429,0.341854887236841,0.2616185538202524,0.1554425358772277,-0.1209863647818565,0.0744082853198051
5.30987939453125,0.3484919506311416,0.4018840797312557,0.23021628434062,0.1096172481775283,-0.1178158745169639,0.0489620491862297
5.3199072265625,0.3866481513503939,0.4870411376109346,0.2264619002431631,0.0551377646625041,-0.1233889907598495,0.0259969122707843
5.329935302734375,0.4380976219501346,0.6037374988207593,0.1186655423909425,0.0120342364534735,-0.1304706037044525,0.018123809248209
5.33996240234375,0.442349507240951,0.667107964567095,-0.0398258144319057,-0.0158585682511329,-0.1228224858641624,0.0208636466413736
5.349990234375,0.4512142200894654,0.7378413968294858,-0.1426800397068262,-0.0333102606236934,-0.101097747683525,0.0389451794326305
5.360017333984375,0.4473864419622346,0.7833614773802459,-0.2357552137672901,-0.0484647192060947,-0.0645785182714462,0.0637091845273971
5.370045166015625,0.3990434860104694,0.7567705537050962,-0.2529910107284784,-0.0611762516200542,-0.0176978223025798,0.0876531302928924
5.380072509765625,0.3335935836415737,0.6992214510560035,-0.2286550263732671,-0.0693746581673622,0.0156477913260459,0.1132022142410278
5.390100341796875,0.3241589984832331,0.6584960574358701,-0.1342266841381788,-0.0760794281959533,0.0269667580723762,0.1350241601467132
5.400128173828125,0.2685415214838459,0.5965696895506233,-0.0640437253654003,-0.0783074349164962,0.0248072780668735,0.1454358845949173
5.4101552734375,0.2199206253735348,0.5508586530050262,-0.0217488904714584,-0.0769039466977119,0.00480347732082,0.1460095345973968
5.420183349609375,0.1941280124692246,0.4720709840267896,-0.0630360096275806,-0.0697133541107177,-0.0218402612954378,0.1444990634918213
5.430209228515625,0.2161320832781493,0.4786792597180232,-0.1316062725067138,-0.0584572404623031,-0.0372873917222023,0.1459664702415466
5.440237060546875,0.2493401235381141,0.4888790936278179,-0.2727420053809881,-0.0462441146373748,-0.0292263682931661,0.1540990173816681
5.450264404296875,0.2005719279116019,0.4406509962273761,-0.4398316792011261,-0.0313344076275825,-0.0253908839076757,0.1568631082773208
5.4602919921875,0.0944721448441967,0.3354764382461085,-0.4071335246920585,-0.0234798956662416,-0.0392075814306736,0.1524784415960312
5.4703203125,0.0395046196535229,0.2375793969871476,-0.3631646191060543,-0.0256919171661138,-0.078608252108097,0.1332589387893676
5.48034716796875,-0.0994123411927372,0.1391346587175503,-0.4150035274147987,-0.0466181561350822,-0.1049223691225051,0.0903540626168251
5.490375244140625,-0.2170926354059949,0.0681717285482212,-0.4651017295360565,-0.0823513865470886,-0.1224909722805023,0.0414517670869827
5.500402099609375,-0.1896572237307205,0.097638171127066,-0.609491495770216,-0.1142839416861534,-0.1116015240550041,0.0056492732837796
5.51043017578125,-0.265145120511204,0.1603511228127405,-0.7710124295473099,-0.1405895799398422,-0.0943807289004325,-0.028877543285489
5.52045751953125,-0.2170361194457858,0.2631793368635699,-0.8872054443448781,-0.144455075263977,-0.0803840532898902,-0.0414742529392242
5.5304853515625,-0.0343835503127425,0.4267535133760422,-1.0121960981041191,-0.1274627894163131,-0.0780726969242096,-0.0137158595025539
5.54051318359375,0.0959301981654018,0.5715220132621005,-1.165192364642024,-0.0987519025802612,-0.0618320368230342,0.0383252874016761
5.550540283203125,0.218303582098335,0.6316689869172871,-1.1818372099727392,-0.0637302696704864,-0.0557890571653842,0.1085869371891021
5.560568115234375,0.4608173302151263,0.7257549454554915,-1.1940373508542776,-0.0235614143311977,-0.0859917923808097,0.2124451994895935
5.57059521484375,0.5358104657486081,0.723503805527836,-1.2693915747851132,0.0226484239101409,-0.1333649158477783,0.3154916763305664
5.580623291015625,0.5377563025867567,0.5781988241448998,-1.3896931939452886,0.0563750118017196,-0.1770734637975692,0.4049203395843506
5.590650146484375,0.5071768937973306,0.2358210090124979,-1.5303689080923797,0.0708929747343063,-0.1700571030378341,0.4627194702625274
5.600678466796875,0.3325507600577548,-0.240515340841189,-1.6460089651823042,0.0638118386268615,-0.0929706841707229,0.4770892858505249
5.610705078125,0.1454668208811432,-0.6891720584675669,-1.689277613544464,0.046552687883377,0.0489347837865352,0.4483764171600342
5.6207333984375,-0.0769341135334223,-1.0474955211527646,-1.4855863480359317,0.0218146424740552,0.1916452646255493,0.3706794083118438
5.63076123046875,-0.2745128875110298,-1.265759063501656,-1.042135893815756,-0.0192054957151412,0.3079564273357391,0.2481649369001388
5.640788330078125,-0.4453416747942567,-1.3343199740305542,-0.4709001866817474,-0.0637382045388221,0.362085610628128,0.1103911250829696
5.650816162109375,-0.5686899316413327,-1.3014452939108014,0.0809621269404888,-0.1089323163032531,0.3593854308128357,-0.0268093328922987
5.66084326171875,-0.618793138731271,-1.1398192923240362,0.5904927807897329,-0.1533305495977401,0.3122152388095855,-0.1317092329263687
5.670871337890625,-0.6213523216947913,-0.8671673763792961,0.9694371528297662,-0.1882416605949401,0.2328751534223556,-0.2038891464471817
5.680898193359375,-0.6408117860548198,-0.599775755582936,1.2071686351060866,-0.2176764011383056,0.1459421217441558,-0.2392414510250091
5.690926025390625,-0.6377046138197183,-0.4195779226582497,1.231998540458083,-0.2263857424259185,0.0880045294761657,-0.2323499768972396
5.700954345703125,-0.6557168750461191,-0.340291510377638,1.0759101531237365,-0.2007267028093338,0.0591114349663257,-0.1887270361185073
5.710981201171875,-0.7283597211264073,-0.2995969868198037,0.8674386676013469,-0.1396204829216003,0.0483914129436016,-0.1251272857189178
5.721009521484375,-0.817859228657186,-0.3058432607982307,0.708694797322154,-0.0635199174284935,0.0510684065520763,-0.0538736172020435
5.7310361328125,-0.8629495394885539,-0.3413803650602698,0.7266478026419878,-0.0017100793775171,0.0636281371116638,0.0126305734738707
5.741064208984375,-0.908613120163232,-0.4001571098081767,0.8086462868928909,0.0356224104762077,0.0588313415646553,0.0623955726623535
5.75109130859375,-0.901300385997072,-0.4350497056216001,0.8597948748499155,0.0539092719554901,0.0475336797535419,0.0985836684703826
5.761119140625,-0.8449532064836471,-0.444759235263802,0.8491706049829721,0.0593967735767364,0.0426405072212219,0.1167672723531723
5.771147216796875,-0.7292483405292034,-0.4322200351536274,0.732934335565567,0.0674863904714584,0.0467268638312816,0.1304444670677185
5.78117431640625,-0.608927651342377,-0.4235716684695333,0.561862898632884,0.0933771878480911,0.0436518713831901,0.1396111100912094
5.7912021484375,-0.5716740985512733,-0.4211852117244154,0.4246089756280183,0.1271500587463379,0.036584373563528,0.1323864907026291
5.801229248046875,-0.5750193903911859,-0.4263667790807783,0.4472784880757331,0.1414582729339599,0.0324750170111656,0.1043908521533012
5.811257080078125,-0.5737064080964773,-0.4867821944138035,0.5381599514842033,0.1351913213729858,0.0259707756340503,0.0605203360319137
5.8212841796875,-0.5952127219837159,-0.5565342874886468,0.6248737738192081,0.1032404154539108,0.0262937992811203,0.001050496706739
5.8313125,-0.5493919049207121,-0.5495679921399802,0.7058528518944979,0.0672118365764617,0.0096216108649969,-0.0591052509844303
5.841340087890625,-0.477649514811486,-0.487446065150015,0.6980348716199397,0.0378247946500778,-0.0015293252654373,-0.1216347962617874
5.851367431640625,-0.5071024768542498,-0.4185528904594481,0.6601555150806904,0.0186186097562313,0.0016350429505109,-0.1800826638936996
5.861395263671875,-0.4760912890514359,-0.3364479866920039,0.6131003339171409,0.0073966858908534,0.0204608291387558,-0.2216353714466095
5.871422119140625,-0.4083922560488805,-0.2157950333435088,0.6450994002461433,0.0004857829771935,0.0625765919685363,-0.2418493032455444
5.8814501953125,-0.3875935424417257,-0.0714439186193049,0.7249182023704052,0.0011712026316672,0.0939939245581626,-0.2450028955936432
5.891477294921875,-0.3605346724612638,0.1178257305659353,0.8510410750299692,0.0053555611521005,0.1143535301089286,-0.232684701681137
5.90150537109375,-0.3650523325487971,0.2896186867062002,1.0272054511874913,0.0146192554384469,0.1248034536838531,-0.2193840593099594
5.9115322265625,-0.3969269322479143,0.3759020817346871,1.189342471036315,0.0249661691486835,0.1141209825873375,-0.2000117003917694
5.92156005859375,-0.3858789205435663,0.4645374101841822,1.3124088787347077,0.0320130251348018,0.0853493437170982,-0.1812694817781448
5.93158837890625,-0.4383755621086805,0.5617749646211043,1.3615005341619253,0.0365182943642139,0.0540484115481376,-0.1660308837890625
5.941614990234375,-0.5151668331053108,0.6223759656541049,1.3246382457107304,0.0306608602404594,0.0398055911064147,-0.1621215045452118
5.951643310546875,-0.5649453748181462,0.6618319238603114,1.2670605014890433,0.0247925855219364,0.0162478014826774,-0.1551634520292282
5.961670166015625,-0.5216759958036243,0.7251582947365939,1.201166179820895,0.0159486569464206,-0.0131802950054407,-0.1404069364070892
5.9716982421875,-0.5178045611977576,0.8138198170732707,1.0832470718830822,0.0089898156002163,-0.037522118538618,-0.1209682524204254
5.98172509765625,-0.5850648374568671,0.8221032229024916,0.8868599919080734,0.0040179062634706,-0.0425412356853485,-0.1071206852793693
5.991753173828125,-0.5924235296566039,0.8041181419439614,0.6835884131163358,0.0048488127067685,-0.0262639950960874,-0.0882692337036132
6.00178125,-0.5736999783556908,0.7583074809487909,0.5206424149721861,0.0092981047928333,0.0120535232126712,-0.0691602304577827
6.011808349609375,-0.6256627322398126,0.7543412076663225,0.3935743704169988,0.0165759921073913,0.0468642339110374,-0.0608237385749816
6.0218359375,-0.6663355919551104,0.753489486207813,0.3880944777011871,0.0140023929998278,0.077888511121273,-0.063758298754692
6.03186328125,-0.6607756928056479,0.7476141644336283,0.4373948074430227,0.00190072262194,0.0923545360565185,-0.0743395686149597
6.04189111328125,-0.6432375518970191,0.7203209377080202,0.4827262335538864,-0.0206438731402158,0.0896413251757621,-0.0884150564670562
6.05191845703125,-0.675123147914186,0.7040381306227296,0.4739180731981992,-0.0419702008366584,0.0834465399384498,-0.1115166470408439
6.061946044921875,-0.6799001530576497,0.7131009963918477,0.4183212736606597,-0.0606562681496143,0.0856889262795448,-0.1383977979421615
6.071974365234375,-0.6435040938787162,0.7112525189809501,0.3708814770936965,-0.0724878907203674,0.0887076184153556,-0.1638640016317367
6.08200146484375,-0.6090981125384569,0.6954432476915419,0.3554062600642442,-0.0772829130291938,0.0747697800397872,-0.1868088990449905
6.092029296875,-0.60250185607858,0.6499684675872326,0.3636521103620529,-0.0831139087677002,0.0485075488686561,-0.2156770378351211
6.102056396484375,-0.6353415379501879,0.5800832861846312,0.2953489739865064,-0.089706964790821,0.0231263861060142,-0.2472491264343261
6.112084228515625,-0.6281771992787718,0.5053543910779059,0.1458674375712871,-0.0942585691809654,-0.0008433954790234,-0.2786038815975189
6.122111328125,-0.6118851859737188,0.4201950681759044,-0.0168429982513189,-0.1018686816096305,-0.0109204370528459,-0.3018474280834198
6.13213916015625,-0.5894368785286321,0.3603090104792267,-0.1613514224290847,-0.1102057099342346,-0.0050969026051461,-0.3200528025627136
6.142167236328125,-0.5790399876767769,0.2964520033249631,-0.2931821513414382,-0.1186776757240295,0.0047403327189385,-0.3297619223594665
6.1521943359375,-0.5422325346853584,0.2150563438054174,-0.3973807769626379,-0.126674085855484,0.0101446853950619,-0.3267277777194977
6.162222412109375,-0.5281577590383589,0.108165300762467,-0.4992185186713934,-0.1321838498115539,0.0181458201259374,-0.3202516138553619
6.1722490234375,-0.5445047539336606,-0.0196969629103317,-0.5704109467476606,-0.1344438046216964,0.0223616044968366,-0.3170126676559448
6.18227734375,-0.559411633023247,-0.1279172087304294,-0.6346002180635929,-0.1394943594932556,0.0332356505095958,-0.3200092911720276
6.19230419921875,-0.5575000272482633,-0.1490112154897302,-0.7010469129174948,-0.1450497061014175,0.0601282492280006,-0.3317935168743133
6.20233251953125,-0.46994178997837,-0.0806980691768229,-0.7260340546578169,-0.1405398398637771,0.0719637647271156,-0.3398018777370453
6.212360107421875,-0.3114421402512118,0.0987933325115591,-0.7936404409408568,-0.1262562423944473,0.0531823560595512,-0.3250958919525146
6.22238720703125,-0.1750437015645206,0.2438565410278737,-0.9361287574678658,-0.0969615951180458,0.0360197834670543,-0.2854874432086944
6.232415283203125,-0.0429618109026923,0.2738401758812367,-1.1674673238366842,-0.0561598390340805,0.0235918760299682,-0.218697503209114
6.242442138671875,0.1251458899867255,0.310365414397791,-1.327477853050828,-0.00531737646088,-0.0315076597034931,-0.1337462216615677
6.25247021484375,0.3029721623413264,0.2549017397206276,-1.361476568764448,0.0421334952116012,-0.1588131487369537,-0.0434751808643341
6.262497314453125,0.4182907323919236,0.1305515758220106,-1.5575246260434388,0.0684399828314781,-0.2836416065692901,0.0244636312127113
6.272525146484375,0.381491901098378,-0.3107297907307744,-1.850005935639143,0.0662524625658989,-0.3660991787910461,0.0622506886720657
6.28255224609375,0.3461834179604426,-0.8250297048084437,-2.1898984002292154,0.0431907661259174,-0.3500601649284363,0.0726542621850967
6.292580078125,0.2263773820311762,-1.2983549266800285,-2.509689741554856,0.0180758275091648,-0.2345980107784271,0.0421139225363731
6.3026083984375,0.0472547040573321,-1.6683428159348666,-2.6572593068689105,0.0038556929212063,-0.0257858857512474,-0.035838421434164
6.312635498046875,-0.0722522941264323,-1.8894994493767616,-2.5795821929484606,0.0070517528802156,0.231046438217163,-0.1380843669176101
6.3226630859375,-0.1467292785650119,-1.92102695267126,-2.1751462367773056,0.0164888817816972,0.4672142565250397,-0.2466866225004196
6.3326904296875,-0.2124064320848323,-1.829992929049581,-1.3124725916206836,0.0283479373902082,0.6007508039474487,-0.34740149974823
6.34271826171875,-0.2795754681302234,-1.5915836936421692,-0.2667646845370531,0.0265317913144826,0.6312306523323059,-0.4370556473731994
6.3527451171875,-0.3831017839804291,-1.3044947446092965,0.762496530136466,0.009906742721796,0.5580168962478638,-0.528109610080719
6.362773193359375,-0.4178162102153524,-1.0136479043476283,1.5948872652322053,-0.026758249849081,0.4142743349075317,-0.6004185676574707
6.372801025390625,-0.3281368160730227,-0.6975724417399615,2.071585909059644,-0.0651778131723404,0.2561864256858825,-0.6384099125862122
6.382828369140625,-0.137790358835971,-0.3914950433922931,2.151804524156451,-0.0757417678833007,0.1160158216953277,-0.6280969977378845
6.392856201171875,0.01138208080568,-0.1546087432358414,2.0595318986505267,-0.0459710881114006,-0.0124159175902605,-0.5784325003623962
6.402883056640625,0.1859905179167166,0.0175322226244956,1.8782097013384105,0.013572372496128,-0.1163735911250114,-0.4979784786701202
6.412911376953125,0.2863614567422308,0.1162616230543702,1.61321144195199,0.0941404551267623,-0.197782427072525,-0.4081551134586334
6.422938232421875,0.3962645958816632,0.1683976146135479,1.313611240261793,0.1678232103586197,-0.2451892346143722,-0.3072260320186615
6.4329658203125,0.5205757429441437,0.1246511196065694,1.0337450820893048,0.2226230800151825,-0.2662002742290497,-0.201941430568695
6.44299365234375,0.6712400228705256,0.01974211722631,0.7851087594389915,0.2509705722332001,-0.2955024838447571,-0.1001775115728378
6.45302099609375,0.7583528544604777,-0.1034310022495687,0.5360919130384921,0.2571040987968445,-0.3217764496803283,-0.0184187311679124
6.463048583984375,0.8410578795455396,-0.2869732502313331,0.2294265952676534,0.2531190812587738,-0.3302257657051086,0.0452890880405902
6.47307568359375,0.9249922272298484,-0.5504190560113639,-0.1808189239650964,0.2520514130592346,-0.3152177929878235,0.0908003821969032
6.483103759765625,0.9290193638540803,-0.7918695588108152,-0.4964554836988449,0.2433004230260849,-0.2702006697654724,0.1098019853234291
6.493130859375,0.9362462463676928,-0.9843726369593292,-0.6954425170391798,0.2264993339776992,-0.2107272148132324,0.1009610891342163
6.50315869140625,0.9481738539181648,-1.1641923938192429,-0.7609639137417078,0.1933483928442001,-0.1151858046650886,0.0637536793947219
6.513185791015625,0.9002348756574093,-1.2911902957476675,-0.7536608972519636,0.1542811393737793,0.0144235864281654,0.0087916292250156
6.5232138671875,0.8583322549514472,-1.397334940870106,-0.6004296529144049,0.1203682497143745,0.1456443965435028,-0.0551381781697273
6.533241943359375,0.7897029553614556,-1.3793446722798048,-0.2424789690643548,0.097629114985466,0.2465787380933761,-0.1222375854849815
6.543268798828125,0.7192646335881203,-1.2143792971372604,0.2949409777075052,0.0797392278909683,0.3000140190124511,-0.1877749264240265
6.553296875,0.6844608851019293,-0.9469051491566002,0.862645588105917,0.0652114152908325,0.3005802035331726,-0.2472699433565139
6.563323974609375,0.6782257170394063,-0.6407565487362444,1.3471359087228774,0.0587715916335582,0.2525604665279388,-0.2854977548122406
6.57335205078125,0.6633003159124404,-0.3407109413661062,1.7151596582978963,0.0484430529177188,0.165391206741333,-0.3098060190677643
6.58337890625,0.6843017490174621,-0.0607180515414103,1.8661627051919696,0.0395727045834064,0.0842707753181457,-0.3132607936859131
6.59340673828125,0.7032204575642943,0.1246452378550544,1.7878005316168069,0.0503718219697475,-0.0129950605332851,-0.2862595319747925
6.60343505859375,0.7373766288619488,0.2757518547214567,1.7024883927732706,0.0735606029629707,-0.0946998745203018,-0.2437511980533599
6.613461669921875,0.7208999066397548,0.4432667316837236,1.4586924958914518,0.1084552034735679,-0.1569387465715408,-0.1963469237089157
6.623489990234375,0.6666247110947966,0.5145644832979888,1.1757026527404784,0.1407681703567505,-0.176216647028923,-0.1516695767641067
6.633516845703125,0.6852244898855686,0.5665378316413611,0.9448293657958508,0.1699886322021484,-0.1664873212575912,-0.0964710190892219
6.643544921875,0.731665192412585,0.588128864669986,0.7811936318218707,0.1887316852807998,-0.1425534039735794,-0.0385639481246471
6.65357177734375,0.6881048676274717,0.6262571910016238,0.6717588591128587,0.1955845355987548,-0.1162099614739418,0.0114318411797285
6.663599853515625,0.7174355915300548,0.6410625459454953,0.613042466250062,0.1916226297616958,-0.1058219820261001,0.0541587732732296
6.6736279296875,0.7395630329903214,0.6340254869155585,0.5949596970707178,0.1739616096019745,-0.1120322048664093,0.0837339758872985
6.683655029296875,0.7513614612031727,0.6200654967546463,0.5662661020278931,0.1480501741170883,-0.1445070952177047,0.096977487206459
6.6936826171875,0.7389683550328016,0.5739760918833315,0.5257166494965553,0.1082614809274673,-0.1708193868398666,0.09271190315485
6.7037099609375,0.7207575024943799,0.5246188443224877,0.3968576298713684,0.0629773661494255,-0.1842488348484039,0.081107273697853
6.71373779296875,0.7611017147772013,0.4966553171198815,0.2329898407071828,0.0177137460559606,-0.1859178394079208,0.0739915743470192
6.7237646484375,0.8070883899264037,0.5200271326180547,0.0507926141262054,-0.0169577058404684,-0.1616485714912414,0.0790059715509414
6.733792724609375,0.8502069622933864,0.5772237685676663,-0.1414034438997507,-0.0371495299041271,-0.1223626807332038,0.1022375226020813
6.74382080078125,0.9318155704438684,0.5808653034077957,-0.277835529127717,-0.0497640445828437,-0.0715442672371864,0.143761932849884
6.753847900390625,0.97820045113042,0.5953994767274707,-0.3427203814923763,-0.0496439337730407,-0.016147056594491,0.2015037983655929
6.763875732421875,0.968755015784502,0.5833171170067042,-0.2928279310762882,-0.0487761944532394,0.0208368431776762,0.2568338811397552
6.77390283203125,0.8851811719756573,0.5042171306762844,-0.1898620621204376,-0.0462595075368881,0.044296633452177,0.3011233210563659
6.783930908203125,0.7508776962742209,0.3571978196561336,-0.0697755470156669,-0.0469040758907794,0.0568331442773342,0.3249522447586059
6.7939580078125,0.5923183157164603,0.1585495532834902,0.0453805259495973,-0.0523893870413303,0.0550200641155242,0.3257400095462799
6.80398583984375,0.4140732608273625,-0.0131269368702545,0.162111885407567,-0.0624377056956291,0.0273329764604568,0.3132557868957519
6.814012939453125,0.3224745159950107,-0.1418901679707691,0.2300584634304046,-0.0750336572527885,-0.0166874788701534,0.3008305430412292
6.824040771484375,0.2676347819024697,-0.1972430392172187,0.2396107201516628,-0.0895592048764228,-0.0627946853637695,0.2892904877662658
6.83406884765625,0.2845467902693897,-0.2430189394262619,0.1678822855025529,-0.1001308932900428,-0.0998459160327911,0.2868396043777466
6.844095703125,0.301006269095838,-0.2822211968660354,0.0548509496062993,-0.109046459197998,-0.127242624759674,0.2897151112556457
6.8541240234375,0.267997404669784,-0.316001703251712,-0.0994423710048198,-0.1116598173975944,-0.140299841761589,0.2972156405448913
6.86415087890625,0.2241435768308118,-0.3526244473259896,-0.2786293098539114,-0.1146882101893425,-0.1374786496162414,0.3006657361984253
6.8741787109375,0.2151267056278884,-0.3825022106520831,-0.4550952993065118,-0.1096428483724594,-0.1077820211648941,0.3020465672016144
6.884205810546875,0.1080817141322419,-0.3257142285685986,-0.6044640229970216,-0.1045267134904861,-0.0477333441376686,0.2983921766281128
6.89423388671875,0.0224754877129569,-0.1579331384181976,-0.6059229896336794,-0.099136471748352,-0.0029717301949858,0.3009360432624817
6.904261962890625,0.1240562955185771,0.1241048839006572,-0.6618810236990451,-0.0788686349987983,-0.0040214122273027,0.3269762396812439
6.914288818359375,0.1580525635467842,0.3238769301388413,-0.8113146293193101,-0.0444054715335369,-0.0157220102846622,0.3792817890644073
6.924316650390625,0.2828734502296894,0.4348579093765467,-1.0353706374645233,0.0076046008616685,-0.0586986728012561,0.4717453420162201
6.934343994140625,0.5468710081409662,0.5310009100424126,-1.2888672596275803,0.0706978142261505,-0.1742191463708877,0.6045860052108765
6.944371826171875,0.7443277631741017,0.6143389358013868,-1.5615578270822763,0.1200502887368202,-0.3035761713981628,0.7372341156005859
6.954398681640625,0.7055487543813884,0.4695046406701207,-2.005985017380118,0.1385579258203506,-0.3700007200241089,0.8370975852012634
6.9644267578125,0.4318575585167855,-0.1200103445960208,-2.549944595053792,0.1333141028881073,-0.3311512172222137,0.8892195224761963
6.974454833984375,0.0302644245561212,-0.9019310120508074,-2.9505092627495526,0.1154972985386848,-0.1669598519802093,0.8910946846008301
6.984481689453125,-0.3886644596088677,-1.5748849261671305,-3.143103964704275,0.090816743671894,0.1072955951094627,0.8440754413604736
6.994509765625,-0.7423658885166049,-2.067113585951179,-2.788077059346437,0.0516557618975639,0.3867120444774627,0.7404909729957581
7.004536865234375,-1.0171200374376028,-2.366447976312041,-1.9266402625083925,-0.0006533048581331,0.6240408420562744,0.5944255590438843
7.01456494140625,-1.2532274987086651,-2.384682867313176,-0.8232412139564752,-0.0435576289892196,0.7701306939125061,0.4387935996055603
7.024591796875,-1.322419108356535,-2.14780668669194,0.1536906785428524,-0.0710158050060272,0.8281874060630798,0.2995443344116211
7.034619873046875,-1.4496508190408348,-1.790812280653417,1.01889004278481,-0.0934215113520622,0.7901955246925354,0.1849676966667175
7.04464697265625,-1.4688216757178305,-1.394457339607179,1.8901111515343187,-0.1245183423161506,0.6507245302200317,0.0995060130953788
7.0546748046875,-1.3831956486195325,-1.0290472796618937,2.444260699310899,-0.1554797291755676,0.4552213549613952,0.0518183857202529
7.06470263671875,-1.3523691332012415,-0.7363290195051581,2.681025382381677,-0.1721595227718353,0.2342359572649002,0.025813827291131
7.074729736328125,-1.3218432081647216,-0.4792740472733974,2.7019600338608023,-0.1752187013626098,0.0355644039809703,0.0235565323382616
7.084758056640625,-1.1830056692302229,-0.2832354884751141,2.4005524904876947,-0.1441994756460189,-0.1170746535062789,0.0454666316509246
7.09478466796875,-1.1457077658407389,-0.1017924412623047,1.8673393477559088,-0.0774031281471252,-0.2138177156448364,0.0912663415074348
7.10481298828125,-1.0678205893661823,0.0500436223898082,1.3906085552245375,0.0004908386617898,-0.2736302614212036,0.1670603454113006
7.11483984375,-0.8056513428606092,0.1891081019479781,1.0436679256886243,0.0687543153762817,-0.3134589195251465,0.2731641232967376
7.124867919921875,-0.6797088682692498,0.2751868047172203,0.6767851628422736,0.1134108155965805,-0.3277327716350555,0.3982124030590057
7.134895751953125,-0.6716032301597297,0.2086250686489045,0.3934288244664669,0.1389103233814239,-0.3115492761135101,0.5128899812698364
7.1449228515625,-0.6655034519799053,0.0080229647947475,0.2864683329164981,0.142930269241333,-0.3080591857433319,0.6022820472717285
7.154950927734375,-0.5703117241568864,-0.1837749242264777,0.1360305186897516,0.1419507712125778,-0.2737070620059967,0.662913978099823
7.16497802734375,-0.6809951086875051,-0.4339341821277513,-0.1143441720604896,0.1283696591854095,-0.195789560675621,0.6775540113449097
7.175005615234375,-0.7751688185743987,-0.7646569961059838,-0.2016512841135263,0.1094862520694732,-0.0765997990965843,0.6563573479652405
7.185032958984375,-0.8047742677651345,-0.984376728612557,-0.2308347084999084,0.0822986513376236,0.0555831342935562,0.6121015548706055
7.195060791015625,-0.9289186068933456,-1.208288871307671,-0.0262514625877141,0.0520637817680835,0.1646284013986587,0.5398670434951782
7.205089111328125,-1.0363230428185313,-1.307270346802473,0.3027466830223798,0.0156888626515865,0.234093502163887,0.4419608414173126
7.21511572265625,-1.0871876262024045,-1.2337716876104474,0.7817208705663681,-0.0343828275799751,0.2462649494409561,0.3333528637886047
7.225143798828125,-1.0606166493367404,-1.0400367295794188,1.213909926059842,-0.0859340652823448,0.2126062959432602,0.235442966222763
7.2351708984375,-0.9785897427089512,-0.7533630833491682,1.4734434902995823,-0.12189232558012,0.1588541269302368,0.1687448918819427
7.24519873046875,-0.9053056761156768,-0.3832867120932787,1.5418512560933828,-0.1325111389160156,0.1133452281355857,0.1400844752788543
7.255225830078125,-0.7980210671778768,-0.1006345399314537,1.4879384641200304,-0.1150696575641632,0.0684525370597839,0.147928312420845
7.26525390625,-0.7386209298346191,0.123390853879787,1.371831374040246,-0.0714731216430664,0.0415468998253345,0.1789951473474502
7.275281005859375,-0.7325831840403377,0.2388593903277069,1.251377779188752,-0.0241588670760393,0.0240589845925569,0.224157303571701
7.285308837890625,-0.7102551054414361,0.3006535466680303,1.1943564998060463,0.0048676701262593,0.0234630368649959,0.2818875312805176
7.295336669921875,-0.7471729965373873,0.3428708958789706,1.1149492010921238,-0.0005888806190341,0.0403815694153308,0.3380906283855438
7.30536376953125,-0.7100344484280794,0.4486930310487746,1.0049404278874396,-0.0240349508821964,0.0135555258020758,0.3946986794471741
7.315391845703125,-0.6911281609714031,0.4167988498663529,0.8885872540920973,-0.0226996410638093,0.0177177805453538,0.4400579035282135
7.325418701171875,-0.7542001186951994,0.280947048744373,0.6398609150707721,0.0026413993909955,0.0179522521793842,0.4607291519641876
7.335447021484375,-0.7574811131272464,0.2832667603962123,0.3840624457061291,0.0446716733276844,-0.0465750768780708,0.4548275768756866
7.345473876953125,-0.9681782388098538,0.1926943629369139,0.0638818128019571,0.0739539340138435,-0.02846603654325,0.449133038520813
7.355501708984375,-0.9205844207249582,0.1788641366355121,-0.0456973368138074,0.0678310617804527,-0.0388813912868499,0.4777007699012756
7.36552978515625,-0.7082925731968134,0.2482519264426082,0.0663771367490291,0.0368162542581558,-0.0574816204607486,0.4982496798038482
7.375556884765625,-1.120265281548351,0.202950822404772,-0.2249211005419492,0.0039520454593002,-0.0064605129882693,0.4934890270233154
7.3855849609375,-0.8158372213102877,0.2532579545689746,-0.2430798575669527,-0.0252119340002536,-0.0171895083039999,0.5397650003433228
7.39561181640625,-0.7020864120330661,0.274417646975629,-0.3114244949966669,-0.0209607295691967,-0.0220814682543277,0.5789392590522766
7.4056396484375,-1.2110211458157747,0.1844589609678834,-0.3981389018535614,-0.0064931618981063,-0.0387831479310989,0.5711046457290649
