seconds_elapsed,ax,ay,az,gx,gy,gz
0.067689453125,0.1250722676280886,0.2814343208046629,0.3404880923956632,0.5960224866867065,-0.1460540294647216,0.1587331146001815
0.077717529296875,-0.0430388581942766,0.249996833881177,0.2812707642734051,0.5567128658294678,-0.1926542967557907,0.1833508461713791
0.087745361328125,-0.1485137142963707,0.2098257131429389,0.254213245999813,0.5124669075012207,-0.2232186645269394,0.2014382481575012
0.0977734375,-0.1011486634660512,0.2313512431873008,0.2016974613428115,0.4538435339927673,-0.2412091046571731,0.1935145407915115
0.107801513671875,-0.0873854379862546,0.1939122873593121,0.236477098301053,0.3942752480506897,-0.261160135269165,0.1712817847728729
0.117828369140625,-0.0683334584485739,0.104154749946855,0.2515139239132404,0.3581851422786712,-0.3132267892360687,0.144807830452919
0.1278564453125,-0.1238364422228187,0.0508513220435008,0.2098737535357475,0.3677318096160888,-0.3611632287502289,0.1314436197280883
0.137884521484375,-0.2601397134393453,0.0357106250648852,-0.0872469062983989,0.411509096622467,-0.3147960007190704,0.17039155960083
0.14791259765625,0.2150789940286427,0.1783404050223529,-0.4905424602627753,0.4341399669647217,-0.2391435950994491,0.1973666995763778
0.157940185546875,0.1478515971258282,0.2467103595564141,-0.2341232286512851,0.4260306358337402,-0.2045762985944748,0.2122769355773925
0.167968505859375,-0.0342787747640162,0.3030633294898085,0.0592892243146896,0.394327312707901,-0.2150826752185821,0.2291171550750732
0.177996337890625,-0.0196550599973648,0.3912069836985319,0.1950859342485666,0.3412595689296722,-0.2331554144620895,0.2468388974666595
0.1880234375,0.0052737756844609,0.374299870702438,0.3305950594127178,0.2750546634197235,-0.2473509460687637,0.2501150369644165
0.198051513671875,-0.0568776331283152,0.2778187971886247,0.4221680122166872,0.2017194777727127,-0.2646591067314148,0.2507219612598419
0.208079345703125,-0.1217618279058486,0.2635132815256714,0.4449339707762003,0.1385385245084762,-0.224720299243927,0.2568456828594208
0.218107421875,-0.1359381642311811,0.294385024325177,0.2909206361502409,0.1024428457021713,-0.1385606527328491,0.2713998556137085
0.22813525390625,-0.1603450218655168,0.3357516384582966,0.059506666457653,0.0935101732611656,-0.0559259913861751,0.2929542958736419
0.23816357421875,-0.185834706300497,0.3695280897233635,-0.079365213137865,0.0968942567706108,0.0167133267968893,0.3182570040225982
0.24819140625,-0.1174648613642901,0.4657171580206602,-0.1351969904750585,0.1046923249959945,0.0947105959057807,0.3415035009384155
0.258218505859375,-0.087424016430974,0.5078897547744214,-0.1670154395401477,0.1277723461389541,0.1723103076219558,0.3714142739772796
0.268246337890625,0.0183051797583699,0.4814581133142113,-0.2752665554225444,0.1747450828552246,0.2417192757129669,0.4145884215831756
0.278274658203125,0.1255418579012155,0.4545731020633131,-0.3436573700815439,0.2305915653705597,0.3247843384742737,0.4597111642360687
0.288302490234375,0.0134178461082279,0.3587672609299421,-0.3445072649091482,0.2822804152965545,0.2860489189624786,0.5093675255775452
0.298330322265625,-0.1380091252863407,0.3891957900065928,0.0989151322603225,0.3392907083034515,0.2357503622770309,0.5702982544898987
0.3083583984375,-0.1062497129321098,0.5635093871982768,0.5064344413995743,0.3781130313873291,0.1783993244171142,0.6177694797515869
0.31838623046875,-0.0714016138475388,0.6597451807141304,0.7667758148908614,0.3600077927112579,0.0819074213504791,0.6237349510192871
0.32841357421875,-0.4998509713560342,0.5123658772751689,1.2488070519179104,0.3004941344261169,0.0142225641757249,0.6042347550392151
0.338441162109375,-0.6862094823349267,0.2573908165900037,1.4064286401689052,0.2124228477478027,0.0509331747889518,0.5689896941184998
0.348469482421875,-0.5181668917041271,0.1645774718035012,1.2709721219748258,0.126614436507225,0.126522347331047,0.5238246917724609
0.358497314453125,-0.6854903012149035,0.1927412708185613,1.3419143746823072,0.0814834386110305,0.149909421801567,0.4937407970428467
0.368525390625,-0.690604429358244,0.3459289682753383,1.347481361159682,0.072583258152008,0.1540951430797577,0.4853386580944061
0.378553466796875,-0.5202862219456583,0.5964075943240895,1.2208259890586135,0.0885907188057899,0.1399162113666534,0.492777943611145
0.388580322265625,-0.393108652601391,0.7836096069224179,1.1817191365510225,0.1135684177279472,0.1495338380336761,0.5002539157867432
0.3986083984375,-0.4045845708616077,0.795060390741378,1.0655284598410129,0.1205890402197837,0.1842100620269775,0.483234167098999
0.40863623046875,-0.5948164161425084,0.6649887804560363,1.0048550876915454,0.1135157793760299,0.1895668506622314,0.4423752129077911
0.41866455078125,-0.7764289016380905,0.572035808003135,0.9913397725582124,0.1052605137228965,0.1608172208070755,0.3879367411136627
0.4286923828125,-0.8267838549993932,0.5776619773218408,0.9025736938685178,0.1107580438256263,0.1659493297338485,0.3500598669052124
0.438720458984375,-0.6869972717117517,0.692347035241872,0.5477525402158498,0.1322108656167984,0.1778957396745681,0.3283918499946594
0.448748291015625,-0.5396179682727903,0.8017769856452941,0.2519569915056228,0.1496070623397827,0.180424302816391,0.2916400134563446
0.4587763671875,-0.6825492062617093,0.7195626666866243,0.033368601116538,0.1646525859832763,0.2079747021198272,0.224162682890892
0.468803466796875,-0.7592625166513025,0.5187624464444816,-0.4593091176092624,0.1581803411245346,0.2602724730968475,0.1286696195602417
0.47883154296875,-0.8299917841952293,0.3563022590558976,-0.734120330479741,0.1336454302072525,0.3296496868133545,0.0277387406677007
0.488859375,-0.9054382164541632,0.2825755632616579,-0.8750508961707353,0.1050794273614883,0.2709053158760071,-0.0462556965649127
0.498887451171875,-0.6374086265478283,0.3668424308359623,-0.6797533649981021,0.092789202928543,0.0482916831970214,-0.0643457546830177
0.50891552734375,0.0336672187369316,0.6415389312855899,-0.1879220339685678,0.0607730820775032,-0.3386078774929046,-0.0480503737926483
0.518943603515625,0.6985138142433017,0.9036476067103444,0.4354220460653304,-0.035895936191082,-0.7497314810752869,-0.010164774954319
0.528970458984375,1.1857479536756872,1.2247425779804586,1.1763871278733014,-0.1987993568181991,-0.926465392112732,0.0266327299177646
0.538998291015625,1.2342789064802229,1.530192382481694,1.5195236889511343,-0.4103262424468994,-1.0262620449066162,0.0389629006385803
0.5490263671875,0.6615729075979441,1.5505188389346003,1.679452969622612,-0.6250000596046448,-1.1424623727798462,0.0420444123446941
0.559054443359375,0.170467041298747,1.3765657090857624,1.7960078034698963,-0.8320251107215881,-1.260085940361023,0.047888983041048
0.56908251953125,-0.1934370710629969,1.3273574415415526,2.012943750476837,-1.0051149129867554,-1.1894183158874512,0.0331127941608428
0.5791103515625,-0.6052380761094391,1.298118779836595,1.886691113957763,-1.0985846519470217,-0.9725387096405028,-0.02453532256186
0.589138427734375,-1.1678541311971842,1.1121709685504435,1.1907102522581816,-1.0809398889541626,-0.7614111304283142,-0.110769122838974
0.5991650390625,-1.4110861105859278,0.917650266969204,0.4854354925125837,-0.9488427639007568,-0.5992256999015808,-0.180793210864067
0.609193115234375,-1.1654350873567163,0.957758332408592,-0.1087578963607549,-0.7280104756355286,-0.5114213228225708,-0.2069259583950042
0.619220947265625,-0.6134383336998522,1.2990253732874988,-0.3554594515562057,-0.4536236524581909,-0.5110247731208801,-0.1905160993337631
0.629248779296875,-0.078684537397325,1.742408315229416,-0.3268821763694286,-0.1830189973115921,-0.5041388869285583,-0.1624384075403213
0.63927685546875,0.1669797837048769,2.038271522348374,-0.2225853510707616,0.0545663982629776,-0.4486705660820007,-0.1308506578207016
0.649304931640625,0.2397952829383313,2.282045938050747,-0.0264192203700542,0.2184738367795944,-0.3884873986244201,-0.1241373568773269
0.6593330078125,0.1704810698240995,2.3310011076167223,0.2233013903856277,0.299694150686264,-0.3579358756542206,-0.1755930930376052
0.66935986328125,-0.1698087235204875,2.0732386447027324,0.4371154059797525,0.3251265585422516,-0.3609107434749603,-0.3012847900390625
0.679387939453125,-0.8925725243359803,1.3586631187789142,0.4099526737660169,0.2710734605789184,-0.3593711853027344,-0.379809707403183
0.689416015625,-0.9110102444328368,1.756468112502992,0.5265606991052627,0.1795176565647125,-0.3837121427059173,-0.4097274839878082
0.699444091796875,-0.8384250468239187,1.675058534055948,0.8896493303656577,0.1000659689307212,-0.4409900903701782,-0.4111799895763397
0.709471923828125,-0.5470828242607414,1.2327069809883833,0.679220281034708,0.030816089361906,-0.5277577042579651,-0.3974667489528656
0.7195,-0.3783068047888577,1.0714685904797163,0.4517109175652265,-0.0275572054088115,-0.5650736093521118,-0.3705344796180725
0.72952783203125,-0.4022312857337295,1.0683188942771404,0.3986421752005815,-0.0745382979512214,-0.5853593945503235,-0.3217968046665191
0.739554931640625,-0.3444556808523834,1.1382277853488922,0.3158540018767118,-0.1526711881160736,-0.5714278817176819,-0.2533200085163116
0.7495830078125,0.0496085189081728,1.3757000321671369,0.2124059023618698,-0.2549454271793365,-0.4564193785190582,-0.201435700058937
0.75961083984375,0.3666466160029172,1.5554126023255288,0.2506657826513052,-0.3253314197063446,-0.2533826231956482,-0.1836654841899871
0.769638916015625,0.1601100440658628,1.697054677286744,0.1848001025557518,-0.3451823890209198,-0.1673174798488617,-0.1744108945131302
0.7796669921875,-0.0805376179181039,1.679065577740222,0.0262795196384191,-0.3196565210819244,-0.0743265450000763,-0.1527929604053497
0.789695068359375,-0.1209533610671758,1.4925672929644584,-0.1627361547857523,-0.2756368219852447,0.1205941438674926,-0.1270369440317154
0.799722900390625,-0.2572298173420131,1.258102265138179,-0.4524550139307975,-0.2399563193321228,0.3271901905536651,-0.1124180480837822
0.80975,-0.5449374827951192,1.1073488090910018,-0.5943079551637173,-0.2184635996818542,0.5119475722312927,-0.1129083931446075
0.81977783203125,-0.7304249830931425,1.0757895954839884,-0.5108721315860748,-0.1892934739589691,0.6583729982376099,-0.1163124442100524
0.82980615234375,-0.7277497725345194,1.079575178437307,-0.5794102457612753,-0.1358193606138229,0.741587221622467,-0.1268597841262817
0.839833984375,-0.7063562713719904,1.0357461927786469,-0.6366536434620619,-0.0710938945412635,0.7639018893241882,-0.1390437483787536
0.849862060546875,-0.662072308487445,1.0539965005446226,-0.5054366625338792,-0.0308430157601833,0.7225056290626526,-0.1446925401687622
0.859889892578125,-0.6103071960672736,1.160215160751343,-0.3246989871114492,-0.0323937721550464,0.6276409029960632,-0.1445849537849426
0.869917724609375,-0.462211853313446,1.2533093317732211,-0.0612438655138015,-0.07399183511734,0.5256845355033875,-0.124463714659214
0.879945068359375,-0.3155164404854178,1.2579817074984312,0.1746077943652868,-0.1401346325874328,0.4558401703834533,-0.0953718796372413
0.889972900390625,-0.2927705018006265,1.2333759662911294,0.2676291924118995,-0.2018724232912063,0.4489312767982483,-0.0728152692317962
0.9000009765625,-0.4943479900255799,1.125970142126456,0.1267483110815286,-0.296319842338562,0.5127608180046082,-0.1437040865421295
0.91002880859375,-0.62902913993299,0.942387525601685,-0.2072252848535776,-0.3542300462722778,0.4614749252796173,-0.2320926338434219
0.92005712890625,-0.6332213309258222,1.0742140897955743,-0.2654506793290376,-0.3498563468456268,0.3515534996986389,-0.283358484506607
0.9300849609375,-0.4153140546686947,1.3898591981619597,-0.23836627304852,-0.3516537249088287,0.2802566587924957,-0.3157151937484741
0.940113037109375,-0.1992141200944781,1.491394011401385,-0.3325257352143526,-0.3383786678314209,0.1836880445480346,-0.3092841804027557
0.950139892578125,-0.2417113456927239,1.4777800581991671,-0.553791235858202,-0.3079009056091308,0.0617410466074943,-0.2886188328266144
0.96016796875,-0.2237415353685617,1.404604347351193,-0.8460825758397579,-0.2992309927940368,-0.0003857100382447,-0.2727445363998413
0.970196044921875,-0.1999973794266581,1.313389560335129,-1.0679764375150202,-0.314817875623703,-0.0028369198553264,-0.261845052242279
0.980223876953125,-0.3088170889772474,1.2261449921242893,-1.259768590915203,-0.327261745929718,0.0241627395153045,-0.2497697174549102
0.990252197265625,-0.4170370790690183,0.9793966751776636,-1.4921826775610445,-0.3346465826034546,0.1365999579429626,-0.2485883980989456
1.00027978515625,-0.5068558816820383,0.5950543165516108,-1.8262229089915751,-0.3283050656318664,0.3569182157516479,-0.2769089937210083
1.01030712890625,-0.659711424575001,0.3115116618234664,-2.0131646997511385,-0.3243792057037353,0.5757208466529846,-0.3493095338344574
1.0203349609375,-0.972936393122375,0.1565600964993238,-1.9030021972894668,-0.31939697265625,0.7787602543830872,-0.4580791592597961
1.03036328125,-1.0697177282243966,-0.027107787156105,-1.637779481497407,-0.2986346781253814,0.9124326705932616,-0.5741393566131592
1.040390869140625,-1.0015591879513115,0.0504209312696009,-1.1804542311817408,-0.2540656328201294,0.941329836845398,-0.6670589447021484
1.050418701171875,-0.7933150814440101,0.257465818054974,-0.6073182433843612,-0.1811229586601257,0.874457597732544,-0.7275680899620056
1.060447021484375,-0.5594412975091487,0.4096118975043296,-0.1602379082292318,-0.1231195777654647,0.7026978135108948,-0.7640595436096191
1.070474853515625,-0.4309274380598217,0.4798646335776895,0.3697609486311674,-0.1197941228747367,0.4535213410854339,-0.7869136333465576
1.080502197265625,-0.14106427507326,0.5708788565203547,0.9019763124972582,-0.1851984411478042,-0.0296764876693487,-0.8163588643074036
1.09052978515625,-0.1001036113925278,0.418032665977627,1.8692565795540808,-0.2538798153400421,-0.5042831897735596,-0.787256121635437
1.10055810546875,0.1179981645233929,0.3111161596998572,1.9669114826202392,-0.2960139513015747,-0.6470978260040283,-0.6597527861595154
1.1105859375,1.1071082783333956,0.9762452254094184,0.7416781985133886,-0.3378166258335113,-0.6849943399429321,-0.5310724973678589
1.120614013671875,0.860796672303602,0.923195406940952,0.5089794497072696,-0.3525233864784241,-0.7592171430587769,-0.4188043177127838
1.13064208984375,0.3275409325391054,0.1633449343338608,0.577836712834239,-0.334406316280365,-0.6948147416114807,-0.3061008155345917
1.140669921875,0.411451972413063,-0.0188280345886945,-0.0162444478362798,-0.3013280034065246,-0.538114070892334,-0.2438619136810302
1.150697021484375,0.3703435708247125,-0.2626546919349581,-0.3929635450422764,-0.253964751958847,-0.3259063065052032,-0.2248536944389343
1.160724853515625,0.22548837903589,-0.5860488069929182,-0.5075917947411537,-0.1812519580125808,-0.120068185031414,-0.2193033993244171
1.170753173828125,0.0692930241957306,-0.7348722448255867,-0.5583487530320882,-0.0920557752251625,0.0380450151860713,-0.2364775836467743
1.18078076171875,0.0281992356546223,-0.8273379086855799,-0.5042039058685303,-0.0097369300201535,0.1442486941814422,-0.2655087113380432
1.190808837890625,0.1092526941403746,-0.8681199278637767,-0.3294149097174406,0.0594590120017528,0.1764695644378662,-0.2935322821140289
1.2008369140625,0.2457981766149401,-0.8702890155311673,-0.0617032997190952,0.0902640670537948,0.1441076397895813,-0.3312362730503082
1.210864990234375,0.3424490172050893,-0.8934920503336936,0.2302268057346344,0.0825839042663574,0.0648437440395355,-0.3655924201011657
1.22089208984375,0.4469026405006647,-0.9118084090732036,0.4990846631586551,0.0394891649484634,0.0057005281560122,-0.3865219354629516
1.230919921875,0.5525104022674262,-0.8683351049844175,0.5414607465952634,-0.0191961582750082,-0.0354325100779533,-0.38067427277565
1.240947998046875,0.619541034489125,-0.7733938447911292,0.4697136072456836,-0.0870612263679504,-0.0790036842226982,-0.3355419337749481
1.25097607421875,0.7541540875963866,-0.6302527634438126,0.3940659533262252,-0.1471363455057144,-0.1206278577446937,-0.2667191922664642
1.26100390625,0.7859944562323391,-0.5720191125966608,0.2657417712301015,-0.1759932935237884,-0.1190067827701568,-0.1865348815917968
1.271031982421875,0.724375766056776,-0.5676913125254214,-0.007709843724966,-0.1667719483375549,-0.059560727328062,-0.1200606599450111
1.28105908203125,0.5528787971884012,-0.611504369962588,-0.3346066331416368,-0.1181247755885124,0.0293654128909111,-0.0813774466514587
1.2910869140625,0.3315734029255807,-0.7241887921173125,-0.6008551848500967,-0.0351611822843551,0.1324957907199859,-0.0669489726424217
1.301114990234375,0.2204736196137964,-0.7652752010695636,-0.7640864296764135,0.0642636716365814,0.229158416390419,-0.0614990815520286
1.31114306640625,0.1640880077861249,-0.7343548698879778,-0.8020815215498208,0.1592368185520172,0.3041482269763946,-0.0543741695582866
1.3211708984375,0.1058420089140534,-0.6716882050294428,-0.6533820754230022,0.2295567840337753,0.364825963973999,-0.0424013957381248
1.331198974609375,0.1833205315224826,-0.5571263716302812,-0.3791027774721384,0.2673706412315368,0.4189481139183044,-0.0270404871553182
1.34122705078125,0.2266457323774695,-0.4846600511606782,0.0011392331629991,0.2803751230239868,0.4644306600093841,-0.0075722471810877
1.351254150390625,0.2491762747459113,-0.4310940267983824,0.3670119421839714,0.2790852189064026,0.4946872293949127,0.0137154106050729
1.36128173828125,0.2383751870073377,-0.3949770768217742,0.7048714396417141,0.2549822628498077,0.4770560562610626,0.0234599169343709
1.371309814453125,0.2604319743841886,-0.3516358016148209,1.040102926683426,0.2142859548330307,0.4528102278709411,0.028262585401535
1.381337890625,0.2058199481002986,-0.329477088233456,1.3004998297542334,0.1668585240840912,0.4190900921821594,0.0297638084739446
1.391365966796875,0.1389347156986594,-0.2839230323478579,1.469246038609743,0.1268945187330246,0.370116651058197,0.0353058613836765
1.40139404296875,0.1324181003462523,-0.2480773005280643,1.554036783927679,0.0924547985196113,0.2991918921470642,0.0424564480781555
1.4114208984375,0.2075312089975923,-0.1585987627200782,1.6374463040202856,0.0596575811505317,0.2301387339830398,0.0431208349764347
1.421448974609375,0.2625365454480052,-0.0840955295953899,1.6466227131664752,0.049122117459774,0.1893833130598068,0.0319217108190059
1.43147705078125,0.1772613045487552,-0.0806359637260437,1.4992495472073557,0.0582992285490036,0.1414758861064911,0.0317578092217445
1.4415048828125,0.2423146453481167,0.008313216445595,1.3747785334080458,0.0857170075178146,0.110059916973114,0.0350295044481754
1.451533203125,0.3453473689951002,0.1471473943792283,1.2295271819084883,0.1292690187692642,0.0925743952393531,0.0501437410712242
1.461560791015625,0.3651847998220473,0.2362470889374613,1.0226765755861995,0.1815697699785232,0.084710881114006,0.0689046457409858
1.471589111328125,0.3520632332466542,0.2774845967981964,0.8931564617037773,0.2240490466356277,0.0878956243395805,0.0881640166044235
1.481615966796875,0.3679006346520036,0.360801250975579,0.8284627479970454,0.2488800883293151,0.0857927948236465,0.1072679385542869
1.49164404296875,0.3655035834476351,0.4265535338245332,0.8200532315701246,0.2552105784416199,0.0930263772606849,0.1256334036588668
1.501672119140625,0.3296545636922121,0.4184536678686738,0.7602817766964435,0.2389959096908569,0.1248703226447105,0.1311879605054855
1.511699951171875,0.2031215027965605,0.3776223296560347,0.6581348229080438,0.2013316005468368,0.1336764693260193,0.1311465948820114
1.52172802734375,0.1849985477373003,0.4038907433785498,0.6181932731419801,0.1465719491243362,0.1251287907361984,0.1276410818099975
1.531755859375,0.1800689823806285,0.4285635219400748,0.6254957051098347,0.0857255905866622,0.1008389145135879,0.1237037703394889
1.5417841796875,0.1750331801705062,0.4720199479592963,0.5941898817420005,0.029450599104166,0.109820157289505,0.1135728359222412
1.551810791015625,0.1373104024324566,0.5221066423058509,0.4786725742489099,-0.0153452008962631,0.1342587918043136,0.106362372636795
1.5618388671875,0.0393551281802356,0.5408983269395307,0.2880038719207048,-0.0381325408816337,0.1499221622943878,0.1047809943556785
1.571866943359375,0.0250012433309108,0.5908309632355347,0.1505477043420076,-0.0448175556957721,0.1464952826499939,0.1093482822179794
1.58189501953125,0.0390842753496021,0.6285781812950968,0.0498959575474262,-0.0376733615994453,0.1582645922899246,0.11078692227602
1.591923095703125,0.0072488020844757,0.667094812824577,-0.1119219133496284,-0.0262271836400032,0.181787222623825,0.1063092127442359
1.601950927734375,-0.0540633063599467,0.7184991291083395,-0.3011193740814924,-0.019839059561491,0.1913780570030212,0.0984283909201622
1.611978271484375,-0.0827626735564321,0.7351976043224334,-0.3902326587736606,-0.0294647626578807,0.1887669116258621,0.090479739010334
1.622006103515625,-0.1266784607157111,0.722106067559123,-0.4350859459787607,-0.0548082031309604,0.1832344532012939,0.0825898572802543
1.6320341796875,-0.1842163843836635,0.6969672423884272,-0.4734457795113325,-0.091717779636383,0.1820122599601745,0.0717147514224052
1.642062255859375,-0.2224344713579863,0.657592532724887,-0.5625736772507429,-0.1313173770904541,0.1625384241342544,0.0655655115842819
1.652090087890625,-0.2186377824887633,0.611188691609539,-0.6663216364949941,-0.1656005829572677,0.1387318223714828,0.063779093325138
1.6621181640625,-0.2151771937061101,0.5947547490831464,-0.820856364646554,-0.1876422315835952,0.1179935112595558,0.055925965309143
1.67214599609375,-0.2753865285404026,0.6114408762723207,-0.9888532164394856,-0.1872159242630005,0.0844389945268631,0.0569726042449474
1.68217333984375,-0.3061454586151987,0.6512515662003309,-1.22098205640316,-0.1683143973350525,0.0373934544622898,0.0756711959838867
1.692200927734375,-0.2485493750192224,0.6272182180535048,-1.4538853878706692,-0.1351140588521957,-0.0178833119571208,0.1289423704147339
1.702229248046875,-0.1034369205337017,0.6298129107218235,-1.6719284193366766,-0.0775591507554054,-0.0890158116817474,0.2252454757690429
1.712257080078125,0.1541747357327491,0.6044091510046273,-2.0090677858263253,0.0026318684685975,-0.152004063129425,0.3381225764751434
1.722285400390625,0.3744196611572056,0.6060727003026753,-2.4642501788944005,0.097631886601448,-0.1779296696186065,0.4372963011264801
1.732313232421875,0.399013858057186,0.5023544055443256,-2.9046897608608004,0.1629205197095871,-0.1576418131589889,0.4905866086483001
1.742341064453125,0.2398331307306885,0.1740321864344179,-3.0254022989094254,0.1624872237443924,-0.0659052357077598,0.4781315326690674
1.7523681640625,-0.0730051765866577,-0.269921248871833,-2.7991233540177345,0.0963433906435966,0.0869196727871894,0.4124360680580139
1.76239599609375,-0.3912613442342728,-0.7343329503171145,-2.394535422155261,-0.0030095586553215,0.2654601037502289,0.3191617727279663
1.77242431640625,-0.5413668577667325,-1.069082572126016,-1.976350342094898,-0.1211443245410919,0.4116756021976471,0.2228525727987289
1.7824521484375,-0.6134741356655955,-1.1861570459332316,-1.433475637048483,-0.2439642548561096,0.5023282766342163,0.1189376413822174
1.792480224609375,-0.745257372174412,-1.2674983083844185,-0.7152917113691568,-0.3658754825592041,0.5241864919662476,0.0316997542977333
1.802508056640625,-0.9174902541019022,-1.2504668018236755,0.0097732059955596,-0.4794318675994873,0.4636147618293762,-0.034165546298027
1.812535400390625,-0.938133375288546,-1.1089634777460249,0.763995828783512,-0.5701744556427002,0.3302664160728454,-0.0707546472549438
1.822563232421875,-0.8395912410590797,-0.9241926012847572,1.3617887034535407,-0.5952068567276001,0.1606345027685165,-0.0854813978075981
1.832591064453125,-0.8245064115867018,-0.771507373457402,1.6065321103185417,-0.5513925552368164,-0.0016483808867633,-0.0873357504606247
1.842619140625,-0.8461455580733716,-0.686715239899978,1.609832320907712,-0.451728343963623,-0.1363657116889953,-0.0864893943071365
1.85264697265625,-0.8951659748952835,-0.6162039259556681,1.5271511150896548,-0.3051804304122925,-0.2411679476499557,-0.08133065700531
1.86267529296875,-0.9419628704488276,-0.5723486368119717,1.3931290136128662,-0.1440336108207702,-0.3201676607131958,-0.0646488815546035
1.872703125,-0.9283765359058976,-0.4812916707061231,1.3060720769286156,0.0084572806954383,-0.383289098739624,-0.0248480811715126
1.882730224609375,-0.9002494887046515,-0.3219962309587746,1.2884873203992844,0.1379998326301574,-0.4126459062099457,0.0425535961985588
1.892758056640625,-0.8584142341464758,-0.2319825633607804,1.244343058246374,0.2329396307468414,-0.3865200281143188,0.125116765499115
1.902786376953125,-0.8153488532714546,-0.1784935497574508,1.1847796931654213,0.3059083819389343,-0.3297390341758728,0.2165271043777465
1.912814208984375,-0.7344905520316213,-0.091050536365062,1.1027210031598806,0.3533961474895477,-0.2538396716117859,0.2961607873439789
1.92284228515625,-0.6687813046067953,0.0181673787228763,1.0239695380061864,0.3604809641838074,-0.207935020327568,0.3688275516033172
1.9328701171875,-0.5695857479698956,0.1098410154223442,1.1229776092469692,0.3363536298274994,-0.1809826344251632,0.4168868958950043
1.94289697265625,-0.5458149962820112,0.1256605889100581,1.242623979368806,0.3026790022850036,-0.1831392496824264,0.4420084953308105
1.95292529296875,-0.5766332553286105,0.0604657207481563,1.2748141843557357,0.2732320129871368,-0.1736511588096618,0.4314861595630646
1.962953125,-0.5817226143568753,-0.0642881285805255,1.188096270367503,0.2401233315467834,-0.1561485975980758,0.3873405158519745
1.972981201171875,-0.6660551675785332,-0.2127737858261913,1.1106067879736423,0.2099594622850418,-0.1347626745700836,0.3211998045444488
1.983009033203125,-0.7612959221750497,-0.3474441951438784,1.1007856511831282,0.1845981776714325,-0.1129662916064262,0.2412119954824447
1.993037109375,-0.796867732424289,-0.4594075364824384,1.0859235976159571,0.1526974588632583,-0.0956804528832435,0.1516619771718979
2.003064208984375,-0.7465573488570749,-0.4487560863476246,1.1392021833389996,0.1114490926265716,-0.0931041091680526,0.065914586186409
2.013092041015625,-0.6356864058651029,-0.3514153637971728,1.2736772892802952,0.0615175552666187,-0.0914718359708786,-0.0190101731568574
2.0231201171875,-0.594927548366785,-0.2756467138465494,1.4112334101021289,0.0114525221288204,-0.0869676321744918,-0.0862254276871681
2.033148193359375,-0.5360569878555834,-0.1568819488648325,1.535287659794092,-0.0371740572154521,-0.0824992358684539,-0.1312644928693771
2.04317626953125,-0.4487511179115623,0.0192930948171764,1.6330091983556747,-0.0702920630574226,-0.0796507149934768,-0.1452388912439346
2.053204345703125,-0.3171406076211482,0.2138050285700708,1.695723136422038,-0.0781032964587211,-0.0740941390395164,-0.1372333616018295
2.063232177734375,-0.2231865318343043,0.3990509021319449,1.659008732008934,-0.0577162727713584,-0.0704109892249107,-0.11735500395298
2.073259033203125,-0.2338107286360114,0.5421785394757985,1.5438012211173773,-0.0209713764488697,-0.0709742754697799,-0.0902069807052612
2.083287109375,-0.2131529944021254,0.6676512045983225,1.4450246205449104,0.0232299081981182,-0.0830519720911979,-0.0604357719421386
2.093315185546875,-0.1998393393207341,0.7625390541039406,1.3927104959398506,0.0705204755067825,-0.0988078117370605,-0.0327599309384822
2.10334326171875,-0.262461288254708,0.8330684882268309,1.3104746958017348,0.1074212342500686,-0.1193682178854942,-0.0070947795175015
2.11337109375,-0.2767544558927416,0.8687879633184522,1.2268337050408125,0.1402198225259781,-0.1342379450798034,0.0195004660636186
2.123399169921875,-0.2802517234239727,0.906366291084513,1.1064029065430163,0.1550805270671844,-0.1465785056352615,0.0431248322129249
2.13342626953125,-0.3172929486386477,0.9309533275913446,0.9549550384908914,0.1566514670848846,-0.1427005678415298,0.0625574812293052
2.1434541015625,-0.3527622483614832,0.9291350991882384,0.778988815253973,0.1466550230979919,-0.1291298866271972,0.0749153494834899
2.153482421875,-0.438559028916806,0.9023407618954776,0.588247047689557,0.1321416348218917,-0.1052939891815185,0.0879031419754028
2.163510009765625,-0.4883379359558224,0.8619281605515628,0.3873474587261676,0.114914171397686,-0.0592905469238758,0.089310884475708
2.1735380859375,-0.5229273841042071,0.8234184702195226,0.2409714871108531,0.0914649367332458,0.0045961863361299,0.0753795653581619
2.183566162109375,-0.5788483010295778,0.7883287443988025,0.0817453862726688,0.076783463358879,0.0712708234786987,0.0586314722895622
2.19359423828125,-0.6374095033306628,0.7850286068748682,-0.033359248766303,0.0603340715169906,0.1242125928401947,0.0364196114242076
2.20362109375,-0.6563314998131246,0.7898002051908523,-0.0807294872283935,0.0403521098196506,0.1554184556007385,0.0106996037065982
2.213649169921875,-0.6799085555598139,0.8060145501498133,-0.0507008441895246,0.0123748825863003,0.1759110987186432,-0.0164643134921789
2.22367724609375,-0.6715115332882851,0.8495330085545778,-0.0159580321103334,-0.0218656454235315,0.1894287765026092,-0.0448243170976638
2.233705322265625,-0.7096843198161572,0.8449353785660118,-0.0268687177032232,-0.0554194785654544,0.2008901685476303,-0.0790312513709068
2.243733154296875,-0.7700757332190871,0.7728776388972998,-0.0459650478392839,-0.087858110666275,0.2197328358888626,-0.1243193745613098
2.25376123046875,-0.8607815477997064,0.7470576265294104,-0.0869271728247404,-0.1206758916378021,0.2250628620386123,-0.1724757254123687
2.2637880859375,-0.9152917211443186,0.7503598829451948,-0.1274029755979776,-0.1495139449834823,0.2182102799415588,-0.2181923389434814
2.273816162109375,-0.9511978779144584,0.7506222602084278,-0.1817109043687582,-0.1816518455743789,0.1988923102617263,-0.2575853168964386
2.28384423828125,-0.9845505508095024,0.7179314852882176,-0.2456751347571611,-0.2203108221292495,0.1563238203525543,-0.2816038131713867
2.2938720703125,-0.9127932553920894,0.7497733152288943,-0.2820399950802326,-0.2616020739078522,0.1119244396686554,-0.295955091714859
2.303900146484375,-0.8834455803547054,0.8028758137326687,-0.346889191609621,-0.2946846783161163,0.07020815461874,-0.301299512386322
2.313927978515625,-0.8802798098001628,0.8394465718913823,-0.4767787233263253,-0.319896399974823,0.0412164814770221,-0.2955480217933655
2.323955322265625,-0.8329985647957772,0.8945099221393465,-0.6628688656926155,-0.3347808122634887,0.0314562618732452,-0.2781067192554474
2.3339833984375,-0.7771186374679208,0.9908473128661512,-0.8812123414099216,-0.3350633978843689,0.0231545381247997,-0.2524809539318084
2.344010986328125,-0.7335960143446922,1.066522804640606,-1.1243868915230035,-0.3234669268131256,0.0004529552534222,-0.2209936082363128
2.3540390625,-0.6067304335590452,1.1036359991129487,-1.3798030835717916,-0.3118241131305694,-0.0517761670053005,-0.1827283501625061
2.364067138671875,-0.4363420835196971,1.0352566556960343,-1.6352841575503347,-0.3065308034420013,-0.0948277711868286,-0.1493437588214874
2.37409521484375,-0.3650185764096677,0.8577683374583721,-1.90633455658257,-0.3034646213054657,-0.1164352148771286,-0.1168664470314979
2.384123291015625,-0.3301923968959599,0.6395977340899407,-2.197123090785741,-0.2907043397426605,-0.1243005990982055,-0.0872470363974571
2.394150146484375,-0.2817010454494505,0.4062701127957552,-2.474068977597356,-0.2544379532337188,-0.1380399167537689,-0.0584831200540065
2.40417822265625,-0.2517372112751007,0.2318079374462366,-2.774416198262572,-0.1967642903327942,-0.1597199141979217,-0.0312427096068859
2.414206298828125,-0.1883662706047296,0.0966075129050761,-3.0396564497113228,-0.1357729882001876,-0.1423609554767608,-0.0104244770482182
2.424234130859375,-0.1797684650640934,-0.0563834929358214,-3.24246333360076,-0.0813400968909263,-0.0634959712624549,0.0070194946601986
2.434262451171875,-0.2290903490506112,-0.2260944551702588,-3.342058849340677,-0.0531981214880943,0.0749942436814308,0.0125607242807745
2.4442900390625,-0.2634456231169402,-0.4143537582691758,-3.244443109241128,-0.0532346069812774,0.2293729037046432,0.0001770248345565
2.454317138671875,-0.2695512465156615,-0.6128074153851717,-2.872918658068776,-0.0767729431390762,0.3716233968734741,-0.0312748327851295
2.46434521484375,-0.2147975467387586,-0.8096055603791028,-2.269609065803885,-0.1054333448410034,0.5032066702842712,-0.0905994027853012
2.474373291015625,-0.2572932379670441,-0.9818460410911588,-1.6599807919114826,-0.1197160929441452,0.6070754528045654,-0.1668101102113723
2.484401123046875,-0.3185374322744086,-1.1073040931664406,-1.0953501821309328,-0.1268317997455597,0.6996173858642578,-0.2534605860710144
2.494428955078125,-0.2957050208825618,-1.1435454001750796,-0.4666296697556972,-0.1344548761844635,0.7469155788421631,-0.3482166230678558
2.504457275390625,-0.29363468088191,-1.1364433861501515,0.2354594456911087,-0.1465381681919098,0.7225727438926697,-0.4391736984252929
2.514485107421875,-0.2230584484752267,-1.096179618692398,0.9865595525443552,-0.1704780161380767,0.6270782947540283,-0.514006495475769
2.52451220703125,-0.0653042833531275,-1.0533657283604143,1.6455641440242528,-0.1913335025310516,0.480025976896286,-0.5779836177825928
2.5345400390625,0.0138179148091003,-1.0023452968277036,2.162206091183424,-0.1949584484100341,0.306858092546463,-0.6344329714775085
2.544568115234375,0.0905158267001621,-0.9245500364203004,2.426016017568111,-0.1741762012243271,0.1514227092266082,-0.6813544034957886
2.55459619140625,0.1992940169302746,-0.7964514067083597,2.47275614143312,-0.1351128369569778,0.0242170393466949,-0.7171275019645691
2.5646240234375,0.3157271240940317,-0.6681690179273486,2.4428777205199004,-0.0882611647248268,-0.0880937874317169,-0.727298378944397
2.57465234375,0.4977819465296342,-0.5443490884479135,2.3794851525396106,-0.0445415303111076,-0.1927098631858825,-0.711212158203125
2.58467919921875,0.6678615594133734,-0.4722084928013384,2.312792373970151,-0.0043562976643443,-0.2754547894001007,-0.6761550903320312
2.59470703125,0.7378139973659068,-0.4213495354406535,2.1649866618126627,0.035708948969841,-0.3286998271942138,-0.6249606609344482
2.604735107421875,0.7918628368090838,-0.3888959302771836,1.9829706370174884,0.0821131989359855,-0.3668461441993713,-0.5666470527648926
2.61476318359375,0.8250036935843527,-0.3827767167445272,1.7898732462376354,0.1380199193954467,-0.3986061215400696,-0.5067594647407532
2.624791015625,0.7838076867777853,-0.4197308481976389,1.5299766939043995,0.2026969045400619,-0.4208254218101501,-0.4504794478416443
2.634819091796875,0.7550378116283565,-0.4516866599068045,1.2224170576423403,0.2599915862083435,-0.4413870871067047,-0.4027782678604126
2.64484619140625,0.7374257287006825,-0.516545208786428,0.96142920294106,0.2929657697677612,-0.4359214603900909,-0.3592550158500671
2.654874267578125,0.7237674979653209,-0.5923322711765766,0.7408259655982256,0.3094557523727417,-0.3972716331481933,-0.3059351742267608
2.664902099609375,0.7010987892352044,-0.6506051580555736,0.5237018025428056,0.3126704692840576,-0.3393401503562927,-0.253772884607315
2.674929931640625,0.7287845954749733,-0.6840820418521761,0.3665905019015074,0.2997377812862396,-0.2747145295143127,-0.2118772715330124
2.6849580078125,0.7176607055228204,-0.663738926525414,0.2918196308165788,0.2759650647640228,-0.1924212425947189,-0.1896382719278335
2.694986083984375,0.714682493429631,-0.6558682662155478,0.2164963865458965,0.2544704377651214,-0.0965776741504669,-0.1732284873723983
2.705012939453125,0.6860682472333312,-0.6801741476934403,0.1419260064691305,0.2326399534940719,-0.0092744566500186,-0.1668946892023086
2.715041015625,0.6378890304759144,-0.6746472009655088,0.1653805318146944,0.2067471593618393,0.0528897903859615,-0.1717401444911956
2.725069091796875,0.590096694144234,-0.6545515575937927,0.2974216886073351,0.1742248982191085,0.0945141911506652,-0.184638112783432
2.73509716796875,0.5682037190269679,-0.588172155822441,0.487098457288742,0.1294677853584289,0.1166159585118293,-0.1926588267087936
2.745125,0.5734424233980476,-0.502632491833344,0.6895271555155515,0.0903547331690788,0.1328484565019607,-0.2014930695295334
2.7551533203125,0.5779025446120649,-0.4365336605690419,0.8137661141246557,0.0624737180769443,0.1369818449020385,-0.2096774578094482
2.765180908203125,0.5577693457089364,-0.3295915083933621,0.8550047179639338,0.0372860729694366,0.1322954893112182,-0.2164389491081237
2.7752080078125,0.5161621277529747,-0.209938050943613,0.914087606051564,0.0165545549243688,0.1208334267139434,-0.2143620699644088
2.785236083984375,0.5125506592575461,-0.0992220793176442,0.978676690340042,-0.0118949301540851,0.1033564358949661,-0.2016545236110687
2.79526416015625,0.5160534066814929,-0.0189739458654075,1.0897253279864787,-0.0358258485794067,0.0815534517168998,-0.1777223050594329
2.8052919921875,0.5500595750492066,0.0567111174549907,1.1321043340325354,-0.0413777381181716,0.0641438364982605,-0.1457183063030243
2.815320068359375,0.5513049720004201,0.1398901897925883,1.069769166150689,-0.0341527797281742,0.0503103323280811,-0.1026755049824714
2.82534814453125,0.5711252324968576,0.2521631816022098,0.9644026657938956,-0.0071557834744453,0.0396302565932273,-0.0566558204591274
2.835375244140625,0.6056382544081658,0.3049305298674851,0.8560539347559213,0.0270273089408874,0.0183063372969627,-0.0106567647308111
2.8454033203125,0.5887604040391743,0.3377301719896495,0.778177498871088,0.0579761713743209,-0.0129437260329723,0.0316440872848033
2.855430908203125,0.54883178681992,0.3384171313405036,0.7559212433993816,0.0710460469126701,-0.0482378937304019,0.0651424303650856
2.865459228515625,0.4603102574758231,0.2912425615809857,0.6833043354779481,0.0677945986390113,-0.0873312354087829,0.0876448154449462
2.875487060546875,0.3407408981129526,0.2543477590996772,0.6029699850469827,0.0501581951975822,-0.1252809166908264,0.1048818156123161
2.885515380859375,0.2488205201108008,0.1608889194838702,0.4976560916602611,0.0205140151083469,-0.1475460231304168,0.119055688381195
2.8955419921875,0.2070372149355709,0.1208862141150981,0.349509603241086,0.0011493924539536,-0.1527069956064224,0.130468413233757
2.905570068359375,0.1848288171935826,0.1240169864214956,0.0984708956241607,-0.0010290732607245,-0.1402143836021423,0.1488953530788421
2.91559814453125,0.1589048329945653,0.1192925151828676,-0.2309621342718601,0.0068462593480944,-0.1175142526626586,0.1627152413129806
2.9256259765625,0.1182767622690647,0.1330965110644698,-0.495707295680046,0.0086883679032325,-0.1002753376960754,0.1787573248147964
2.935654296875,0.100367084634304,0.1665774134490638,-0.6381523575872182,0.0016063803341239,-0.0963902920484542,0.2020561099052429
2.945681884765625,0.1206043284337967,0.240249529511854,-0.6972001743614673,-0.0137978754937648,-0.0992201715707779,0.227487176656723
2.955708984375,0.1118278783906251,0.2611189337350428,-0.7426169406682253,-0.0263494420796632,-0.0992254987359047,0.2561950981616974
2.965737060546875,0.0991983331158757,0.2707406754959374,-0.8620324246436357,-0.0301942471414804,-0.0967152044177055,0.2796287834644317
2.97576513671875,0.0398197500173002,0.1899730482142418,-1.0150959111988545,-0.0272772163152694,-0.0931252464652061,0.2945401072502136
2.98579296875,-0.0254237065266817,0.1441018892034888,-1.1197779364228249,-0.0267573669552803,-0.0853235125541687,0.3020265102386474
2.99582080078125,-0.0713293523289263,0.1221364333719015,-1.1613345201700924,-0.0319869294762611,-0.0573778860270977,0.3058866262435913
3.00584912109375,-0.1232410336129367,0.0627132804792374,-1.2166390587627889,-0.0499861687421798,-0.0179266165941953,0.3047747611999511
3.015876953125,-0.1557017261043191,0.0104134035952389,-1.1893301960766314,-0.0716495811939239,0.0185704305768013,0.2975919246673584
3.025904296875,-0.1676621399458497,0.0204978674970567,-1.1369891834646462,-0.0945058986544609,0.0395353697240352,0.2825887501239776
3.035931884765625,-0.2017815594296902,0.0556803861677646,-1.1102671807557345,-0.1075150445103645,0.0162238702178001,0.2596440315246582
3.045960205078125,-0.232951773719117,0.1017124348286539,-1.098790677973628,-0.1166230589151382,-0.0356063023209571,0.2421808987855911
3.055988037109375,-0.2571539756268263,0.1084358247995376,-1.1333733310550451,-0.1197064667940139,-0.1055068299174308,0.245772436261177
3.06601611328125,-0.232407656905055,0.1088956243310123,-1.2073667880266905,-0.0998459383845329,-0.2066361010074615,0.2737883329391479
3.076044189453125,-0.0933455884996801,0.1498424786821007,-1.382913324546814,-0.0525863021612167,-0.3288014233112335,0.3315812051296234
3.086071044921875,0.1571145155116915,0.2649681565091014,-1.6667489708721637,0.0153280338272452,-0.4328628182411194,0.4063044488430023
3.09609912109375,0.3840803466890007,0.3355471288621425,-2.039018687453866,0.0928086936473846,-0.4796477556228637,0.4865231812000274
3.106126953125,0.46689263154082,0.2625831610687077,-2.443259997835755,0.1631622165441513,-0.4328610599040985,0.5534465909004211
3.1161552734375,0.3681716336131095,0.0765372231703251,-2.7844384105831383,0.1890435218811035,-0.2891503870487213,0.6136489510536194
3.126182861328125,0.3016406945418566,-0.1962612616382539,-2.820816714909673,0.15658038854599,-0.0538499727845191,0.6428489089012146
3.136211181640625,0.1554354763835668,-0.536463011373207,-2.5784599109202624,0.0873108878731727,0.2361356019973755,0.6340151429176331
3.146238037109375,-0.1333608610890805,-0.966293667172268,-2.263103921693564,0.0071124574169516,0.5069319605827332,0.5719360709190369
3.156266357421875,-0.5019804576653987,-1.4080691008523103,-1.6804530865758656,-0.0617825165390968,0.6914853453636169,0.480588287115097
3.166294189453125,-0.7433850024312734,-1.6552447033002973,-0.9058107760936022,-0.1050045564770698,0.8017423152923584,0.3600565493106842
3.17632177734375,-0.901607479184866,-1.7817162432670592,-0.176726101693511,-0.1411377787590026,0.8497069478034973,0.2248233556747436
3.18635009765625,-1.049379289072752,-1.7700445101737976,0.5841442885458469,-0.1844085603952407,0.8310208916664124,0.1074482500553131
3.1963779296875,-1.0934689714942127,-1.7165405912622809,1.3902327076494694,-0.2302388399839401,0.7460250854492188,0.0107258344069123
3.2064052734375,-1.0589057537656277,-1.5826152281582355,2.096436272677779,-0.2785885334014892,0.5993136763572693,-0.0693159997463226
3.216432861328125,-1.037753660143539,-1.398659175211191,2.67484815505147,-0.3252373039722442,0.4015544354915619,-0.1297734677791595
3.226461181640625,-1.0270633393030613,-1.1977457038529216,3.053626522874832,-0.3583084344863891,0.1704485267400741,-0.1728817820549011
3.236489013671875,-1.0583617830820382,-1.0301486650325358,3.2272908989101645,-0.3721511363983154,-0.0742522627115249,-0.1931563168764114
3.24651708984375,-1.0828683016985654,-0.8874703058261424,3.166933168581128,-0.3588710129261017,-0.2996057569980621,-0.1816858053207397
3.256545166015625,-1.0414287684597074,-0.7266608813192695,2.857586064380407,-0.3019838631153106,-0.4828590452671051,-0.1338547021150589
3.266572021484375,-0.9437352869488298,-0.5287270102936774,2.3597978707730767,-0.2282422631978988,-0.6370760202407837,-0.0572083964943885
3.27660009765625,-0.8059225610174238,-0.3098573187451809,1.9028893845647568,-0.150671973824501,-0.7433680295944214,0.0430047139525413
3.2866279296875,-0.6136415281217545,-0.1231375732384622,1.492223009571433,-0.0681198462843895,-0.7745392918586731,0.156397596001625
3.29665625,-0.425601786057651,-0.011893997541815,1.013023196578026,0.0217967219650745,-0.7185389995574951,0.2736210823059082
3.30668408203125,-0.2838802161194383,0.0375029244422912,0.4460644361108541,0.1117905229330062,-0.5720499157905579,0.3731037080287933
3.316712158203125,-0.2439876200616359,0.0213240161228924,-0.08993044629395,0.1971307843923568,-0.3694200813770294,0.4538428783416748
3.326739013671875,-0.2511266050960868,-0.0537350973188877,-0.5186211382776499,0.2725176513195038,-0.1449542492628097,0.5109535455703735
3.336767333984375,-0.2901674796953797,-0.1367246384337544,-0.7345002697080373,0.3172276020050049,0.0628997981548309,0.5284186005592346
3.346795166015625,-0.4212489976756274,-0.2942811986245214,-0.6374801574140787,0.3170667290687561,0.2214899808168411,0.5015201568603516
3.356822998046875,-0.5610509246628731,-0.4543404623512178,-0.2441004327863454,0.2672145962715149,0.3223747611045837,0.4277281165122986
3.36685107421875,-0.6539915856234729,-0.5595481188844889,0.2910948236733675,0.1822419315576553,0.3666002750396728,0.3302739858627319
3.376879150390625,-0.6645039195485413,-0.5917739797066897,0.7994991038411855,0.0916346907615661,0.3499990701675415,0.2209283858537674
3.3869072265625,-0.6224268921237438,-0.5694716200709342,1.1693255189239975,0.0089528588578104,0.2990615963935852,0.1208787485957145
3.396933837890625,-0.5942484069962054,-0.5049422300804406,1.4180717316895723,-0.0568705983459949,0.2227168381214141,0.0428032018244266
3.406962158203125,-0.502587410582602,-0.3555672227796166,1.561502297502756,-0.0989368259906768,0.1478303521871566,-0.0107883857563138
3.416989990234375,-0.3601134148418903,-0.154340009297058,1.6301187376111743,-0.1218297630548477,0.0756677016615867,-0.0478185378015041
3.42701806640625,-0.3018047990623861,0.0246111480347812,1.6218237874746322,-0.12703837454319,0.023100096732378,-0.0679818615317344
3.437046142578125,-0.2582238698806613,0.1746636892709881,1.5419640688180922,-0.1102720350027084,0.0026084508281201,-0.0726509541273117
3.44707421875,-0.2655154881935566,0.2934296963617205,1.4155074341595173,-0.0803791210055351,0.0159844439476728,-0.0629820823669433
3.45710107421875,-0.2795711207486689,0.3526965627141297,1.2662556148469448,-0.0372268855571746,0.0418929271399974,-0.0481281168758869
3.46712890625,-0.3006978607337922,0.4187311696358025,1.1464216131985188,0.0085866749286651,0.0647047609090805,-0.0390888154506683
3.4771572265625,-0.3419355147249996,0.4816926527224481,1.0840747548788785,0.0491241551935672,0.0770124346017837,-0.0359147675335407
3.48718505859375,-0.3893015154033899,0.5280407815951854,1.1099819340735673,0.0813262984156608,0.0698589161038398,-0.0367552638053894
3.497212890625,-0.4652558971844613,0.5584611273653804,1.1405682109951971,0.1043157204985618,0.0370187275111675,-0.0441340245306491
3.507240966796875,-0.516400685749203,0.5853637473382055,1.1580413238435985,0.1059042960405349,0.0036618346348404,-0.0563475452363491
3.517268310546875,-0.5606920282226056,0.6244205501589923,1.1084984175175427,0.0906184464693069,-0.0267485007643699,-0.0672719776630401
3.527296142578125,-0.6090902214929461,0.6845403800789266,1.0414613555550574,0.0645586177706718,-0.0532605350017547,-0.0727205350995063
3.537323974609375,-0.6170759595498442,0.7528127559900283,0.9497451948881148,0.0343964248895645,-0.0562473498284816,-0.0724878683686256
3.54735205078125,-0.6520063300903887,0.7870159812998027,0.7822083618223666,0.0107131991535425,-0.041707556694746,-0.0701472163200378
3.557380126953125,-0.6976756098534912,0.8510377140291034,0.5692676219314337,-0.0021051180083304,-0.013666208833456,-0.0650437176227569
3.567408203125,-0.7182265957772731,0.9316277927868069,0.3211106072306632,-0.0136192943900823,0.0247719939798116,-0.0558595396578311
3.57743505859375,-0.7104135839387774,0.9960068875864148,0.167386026418209,-0.0211944207549095,0.0689540207386016,-0.0469420291483402
3.587463134765625,-0.6945121773865074,1.015862000200525,0.0447130019515752,-0.0252357684075832,0.1151694506406784,-0.0412117056548595
3.597490966796875,-0.70936648603864,1.0176619622945784,-0.0522848985105752,-0.0253367815166711,0.1553886234760284,-0.0418722331523895
3.60751904296875,-0.7490116832066327,0.9987767906911672,-0.1356587627679109,-0.0304050408303737,0.1763061583042144,-0.048259824514389
3.617547119140625,-0.7852487524315714,0.9592820348445326,-0.1203390285611152,-0.0432182997465133,0.1742703020572662,-0.0585552603006362
3.6275751953125,-0.779035284744203,0.8953663197729737,-0.0610597411185502,-0.0688304528594017,0.1420159488916397,-0.0804174169898033
3.63760205078125,-0.7862387133169919,0.8556980339903384,-0.0456055668771266,-0.1014875993132591,0.1015225201845169,-0.1090017706155777
3.647630126953125,-0.8364630991011858,0.8334882480088621,-0.0518932688444852,-0.1397660225629806,0.0639093592762947,-0.1338661164045334
3.657658203125,-0.8402110534578562,0.8173778018157929,-0.1063935053169727,-0.175080344080925,0.0344797298312187,-0.1441085487604141
3.66768603515625,-0.7910007400870323,0.8160267525330186,-0.2468511927992105,-0.2004751861095428,0.0205953400582075,-0.1463562548160553
3.6777138671875,-0.728055331352353,0.8263945634208619,-0.4198994827628135,-0.2078982591629028,0.0214729271829128,-0.142011359333992
3.687741943359375,-0.6575168371401727,0.8393633505873381,-0.5940168632626533,-0.2022643536329269,0.0324315689504146,-0.1380331367254257
3.697769287109375,-0.6254181098289787,0.8202700891911983,-0.7653671171367168,-0.1891073733568191,0.068729817867279,-0.1345449835062027
3.707797119140625,-0.6048959846735,0.8104943989776074,-0.8648077345758676,-0.1800228059291839,0.1353458613157272,-0.1335974335670471
3.7178251953125,-0.6082968426255508,0.7957759916648268,-0.9016992491215466,-0.1771382987499237,0.2186320424079895,-0.1267786026000976
3.72785302734375,-0.5560767164468765,0.77725979950428,-0.8803472490131854,-0.1867374032735824,0.3004230558872223,-0.1264185309410095
3.737881103515625,-0.4239431686630472,0.7792914514623582,-0.7511755101770162,-0.1945230662822723,0.3417866230010986,-0.1325663775205612
3.7479091796875,-0.3187729580633342,0.7926920541748405,-0.5876835685878992,-0.1866387873888015,0.3277547061443329,-0.129141554236412
3.75793603515625,-0.19234156744387,0.7326362294018268,-0.4727922840386628,-0.1545496433973312,0.2898303568363189,-0.121820330619812
3.767964111328125,-0.0029289661239832,0.6677836718715727,-0.480317418846488,-0.1232029199600219,0.2253504395484924,-0.1302295327186584
3.777991943359375,0.1036042399246245,0.605162818916142,-0.5278355413466692,-0.1006558462977409,0.1231418550014495,-0.1437571048736572
3.78802001953125,0.1739633224492892,0.5050339269518852,-0.5818307509064674,-0.0723240748047828,-0.0308812651783227,-0.1507987678050995
3.798048095703125,0.3313526728469878,0.432918246550858,-0.7597399249047041,-0.0342638716101646,-0.20815509557724,-0.152140200138092
3.808076171875,0.4334396766090765,0.3596986965611576,-1.161425121062994,0.0006094225682318,-0.3606447875499725,-0.1510951817035675
3.81810302734375,0.3996803591419011,0.1904091746091842,-1.6750842530190944,0.0251929238438606,-0.4394894540309906,-0.160769835114479
3.828131103515625,0.2307806767577305,-0.0803825734868645,-2.172223042806983,0.0328993126749992,-0.4137659966945648,-0.1738336980342865
3.8381591796875,0.1147054065883159,-0.3622841830097139,-2.584437816286087,0.0204054787755012,-0.2683058977127075,-0.1930955946445465
3.848187255859375,-0.0106905765688046,-0.5899035827249288,-2.8752070612668987,-0.0069244136102497,-0.0334768742322921,-0.2032978981733322
3.858215087890625,-0.1134795545877888,-0.8146120634295045,-2.988517214104533,-0.0219069272279739,0.2686187028884887,-0.2232969552278518
3.868242919921875,-0.2583530126856639,-0.9856623114436864,-2.9086662632763383,-0.0256598554551601,0.5542690753936768,-0.2592288553714752
3.87827001953125,-0.4059738697955384,-1.1273112545371056,-2.5015502742409703,-0.0328450612723827,0.7492207288742065,-0.304593414068222
3.888298095703125,-0.4491706950305029,-1.2677718646287917,-1.604973774960637,-0.0534254387021064,0.8463054895401001,-0.3638151884078979
3.898326171875,-0.5038599147364496,-1.284922613655031,-0.4867418989360332,-0.0898784175515174,0.8472893834114075,-0.4414348304271698
3.90835400390625,-0.6216346457675099,-1.2558962795265018,0.5908820723682642,-0.1261195093393325,0.7677791118621826,-0.5127955675125122
3.918382080078125,-0.6334873614508658,-1.1740703753635289,1.4380208792626856,-0.1553016901016235,0.6259568929672241,-0.5724813938140869
3.928409912109375,-0.5905950355878099,-1.107512182959169,2.1286738239377736,-0.15853051841259,0.4351065456867218,-0.6109597682952881
3.93843701171875,-0.4824108474617823,-1.001327205826342,2.535858202034235,-0.1213610917329788,0.2509342432022095,-0.638572633266449
3.94846533203125,-0.3728100705360993,-0.8379185586065053,2.5917881790488955,-0.0481710359454155,0.0894337743520736,-0.6444281339645386
3.958492919921875,-0.2436080644258297,-0.6573968640223146,2.4299048417001963,0.0525025762617588,-0.0421114675700664,-0.6362777948379517
3.96852099609375,-0.0768643453659955,-0.5154506915479898,2.161529214835167,0.1630375981330871,-0.1392979323863983,-0.6041864156723022
3.978549072265625,0.0730685424127615,-0.4019109677381813,1.8031337098270652,0.250357449054718,-0.2166926562786102,-0.5535003542900085
3.991710205078125,0.2360623800203204,-0.320022958124429,1.5211965905994176,0.3050196468830108,-0.3107128739356994,-0.4704280495643616
4.001737060546875,0.2919579433087259,-0.28087460456267,1.4220248532295223,0.3242805302143097,-0.3763993978500366,-0.3889849185943603
4.01176513671875,0.3348769014503807,-0.3485802134364843,1.184867955970764,0.3400909304618835,-0.428449809551239,-0.306976318359375
4.02179296875,0.3704109369724989,-0.4811414485804736,0.8161386884748936,0.3664654493331909,-0.4890848100185394,-0.231795072555542
4.031821044921875,0.4078783517099916,-0.5481979458957911,0.4460071529656648,0.3977027237415313,-0.5335065722465515,-0.1709274500608444
4.04184912109375,0.4642571684706956,-0.6227881997168063,0.0416875166505575,0.4174928069114685,-0.5416993498802185,-0.1301070302724838
4.051876953125,0.4808409312639385,-0.7357721893399953,-0.3343354149848223,0.4089491367340088,-0.5015116930007935,-0.1114486530423164
4.061904296875,0.4734271844087168,-0.8737793418649583,-0.6370908658355474,0.3682136237621307,-0.4022791683673858,-0.1128806099295616
4.071931884765625,0.443471716203913,-0.9926092810373752,-0.8282184178471564,0.3123578131198883,-0.2379040569067001,-0.132735013961792
4.081960205078125,0.4110196454104036,-1.09059495042786,-0.9518295999467372,0.2607866525650024,-0.0241943839937448,-0.1717303842306137
4.091988037109375,0.2685223053267225,-1.1559740891154855,-1.0719237138360738,0.2255061268806457,0.1711269170045852,-0.2228452265262603
4.102016357421875,0.1441170502400025,-1.1660152983974663,-0.9578829086363316,0.2025814205408096,0.2995362281799316,-0.2786180675029754
4.112044189453125,0.1216866437777876,-1.070407171793282,-0.5603519095480441,0.1861009895801544,0.3680750727653503,-0.3310040533542633
4.122071044921875,0.1643187112694606,-0.8868710247587412,0.0167944829344749,0.1670785546302795,0.3904065787792206,-0.3675901889801025
4.13209912109375,0.2177063468575477,-0.6344347983688116,0.535812511575222,0.143058180809021,0.3655675649642944,-0.3884624540805816
4.142126953125,0.2541454779932275,-0.4272606591805815,1.0306494541615248,0.1199899017810821,0.3052079081535339,-0.3949041664600372
4.1521552734375,0.2600640178546309,-0.2386613104723393,1.4769599739879369,0.0923881009221077,0.2150641679763794,-0.3851575553417206
4.162182861328125,0.2445056160537526,-0.0543733221571892,1.7921172257721425,0.0726075917482376,0.1070069000124931,-0.3698765635490417
4.172211181640625,0.275871864371933,0.1158121257212013,2.0089736778020857,0.05796580016613,0.0066754980944097,-0.3486700654029846
4.182238037109375,0.2592966502113267,0.261292975127697,2.0634820975810286,0.0562280789017677,-0.0825991109013557,-0.3155907690525055
4.19226611328125,0.277101150438562,0.3703141255345195,1.9570956065267324,0.0621522814035415,-0.1649930626153946,-0.2732672691345215
4.202294189453125,0.3178295762659981,0.4278385321337729,1.822327655118704,0.0710812211036682,-0.223684549331665,-0.2317404747009277
4.212322021484375,0.3532897793669253,0.4374476336088031,1.6957634684324263,0.0812353193759918,-0.2595163285732269,-0.1978179216384887
4.22235009765625,0.3721628586737439,0.4953646927874535,1.4739321505993603,0.094035729765892,-0.2800812721252441,-0.1617858707904815
4.2323779296875,0.4116806666024029,0.5452147653665393,1.264448273164034,0.1091267988085746,-0.2980749309062958,-0.1263730227947235
4.2424052734375,0.4442502993609756,0.6073728231158108,1.0242121145904064,0.1178518161177635,-0.3086047768592834,-0.0882301703095436
4.252432861328125,0.4633271576115861,0.6351226345025003,0.7937415632277727,0.1166661828756332,-0.3107640743255615,-0.0464734025299549
4.262461181640625,0.4546094154857099,0.6287299377907067,0.6054717387348413,0.1000482738018035,-0.301044225692749,-0.0010556443594396
4.272489013671875,0.4773261280760169,0.6063199530620128,0.4160065669775009,0.0839446708559989,-0.2821291387081146,0.0370565839111804
4.282517333984375,0.479335275941342,0.5479564652901142,0.2393091068565845,0.0694489479064941,-0.2681326866149902,0.063805416226387
4.292545166015625,0.3996018870782107,0.5074535553142429,0.0249345347702503,0.0530364103615284,-0.257986307144165,0.0789167284965515
4.302572021484375,0.3236253665305674,0.4726454229138791,-0.1668207937508821,0.0291270110756158,-0.2401716411113739,0.0892319679260253
4.31260009765625,0.2653914234224707,0.4256515434835106,-0.3069061407893896,-0.0008391437586396,-0.2123360186815261,0.0956413969397544
4.3226279296875,0.1684627888042479,0.3800196000561118,-0.4442085791110992,-0.0390508770942688,-0.170540377497673,0.0992507562041282
4.33265625,0.1003107513371854,0.3404926224403083,-0.5651654473096132,-0.0726711526513099,-0.1218253150582313,0.105535551905632
4.34268408203125,0.0767018391475081,0.3387795349121094,-0.667442749479413,-0.0959845706820488,-0.0754703134298324,0.1163794323801994
4.352712158203125,0.0522284190829843,0.3400566421758383,-0.7179635609269142,-0.1027109175920486,-0.0515873581171035,0.133981317281723
4.37214111328125,0.078551120276004,0.3881594326961785,-0.7238023500829934,-0.0785538330674171,-0.0372759103775024,0.1796111911535263
4.3821689453125,0.0719363783113658,0.3642139089632779,-0.6799468417435884,-0.0648240000009536,-0.0379033386707305,0.2044789642095565
4.392197265625,0.0426125956062227,0.2818275213733315,-0.6393114644944667,-0.0567556880414485,-0.0413183085620403,0.2203772366046905
4.402224853515625,-0.0391641356527805,0.1546221141740679,-0.6230600023955106,-0.0589840486645698,-0.0416019484400749,0.2226490825414657
4.412252197265625,-0.1264176178224384,0.0550214838676154,-0.5622860924810171,-0.0710321888327598,-0.0423502959311008,0.2139674425125122
4.422280029296875,-0.163705438209325,0.0110219639476388,-0.5100713365972042,-0.0884872004389762,-0.0521372109651565,0.2005969136953354
4.432308349609375,-0.2046784499149769,-0.0210995597172528,-0.4648953933089971,-0.1091293618083,-0.0738281235098838,0.1880944371223449
4.442336181640625,-0.2455119070194661,-0.1329453390907496,-0.426388844782114,-0.1319350749254226,-0.0971560850739479,0.1711021363735199
4.452364013671875,-0.2821060460537672,-0.1979630240548402,-0.414042573428154,-0.1617313176393509,-0.1108609810471534,0.1462535113096237
4.46239208984375,-0.2842559175640344,-0.2435821080006658,-0.4734767591714858,-0.1790370345115661,-0.1404078900814056,0.1274630278348922
4.472419189453125,-0.2354664599537849,-0.2562493549373,-0.5420692338824272,-0.1762380599975586,-0.1904976814985275,0.1270337253808975
4.482447265625,-0.1988670602224767,-0.3159372962459921,-0.7202677462160587,-0.1550146490335464,-0.2420549541711807,0.130925565958023
4.492474853515625,-0.2191843835208564,-0.4338368227005004,-0.9267916048020124,-0.1213150098919868,-0.277435302734375,0.1437023431062698
4.502503173828125,-0.2324465276107191,-0.4990386320598423,-1.09973818795681,-0.0734069421887397,-0.300174742937088,0.1650430709123611
4.512531005859375,-0.2174737071454525,-0.4820419045515358,-1.2851228124022482,-0.0102546038106083,-0.314411461353302,0.193800687789917
4.52255908203125,-0.2091059109684079,-0.4297369861662387,-1.437885854706168,0.0574719496071338,-0.3265025913715362,0.2270074486732483
4.5325859375,-0.1910707803230732,-0.3741211166020483,-1.5447832178920506,0.1269274652004242,-0.326671153306961,0.2713541388511657
4.542614013671875,-0.1410510502655059,-0.3512495787762105,-1.5900678822517391,0.1797771453857422,-0.3136334717273712,0.3274645507335663
4.55264208984375,-0.0568879353266209,-0.2969630581196397,-1.5531740296185017,0.217591643333435,-0.2989650368690491,0.3883164525032043
4.562669921875,-0.0085099811267107,-0.2337945812188089,-1.4216612806141375,0.2295719683170318,-0.2705215811729431,0.4393585324287414
4.5726982421875,-0.0458272468037903,-0.287212356216833,-1.3256956458091735,0.2226501405239105,-0.2151746898889541,0.4715228676795959
4.582725830078125,-0.1363322050500661,-0.4303635936319828,-1.2270774506688118,0.2022521048784256,-0.1317687481641769,0.4778317809104919
4.592753173828125,-0.2596006381265819,-0.6034297845784574,-1.0877052203357218,0.1766657829284668,-0.0256289970129728,0.4579254388809204
4.60278125,-0.419100806665793,-0.768258966120705,-0.827527512973547,0.1404256969690323,0.0884077623486518,0.4093731045722961
4.612809326171875,-0.5475728728000074,-0.914332228462398,-0.4514999051630496,0.0988700091838836,0.1817211955785751,0.3431514799594879
4.622837158203125,-0.5535863609358668,-0.9251412072464824,-0.0056985039025545,0.048556350171566,0.2596647143363952,0.2768378555774688
4.632864990234375,-0.5006160374443978,-0.8142605465780943,0.5263198760867118,-0.0116603830829262,0.3199935555458069,0.207081139087677
4.64289306640625,-0.4113843140043318,-0.6552047608055174,1.042288454028964,-0.0697444453835487,0.3388401865959167,0.1453715860843658
4.652920166015625,-0.2835832059342414,-0.5011545282352715,1.4537860191494223,-0.1117307767271995,0.3097933530807495,0.1096332967281341
4.6629482421875,-0.2122518077787011,-0.379599621078372,1.695979157009721,-0.1253432929515838,0.2458807379007339,0.0988553166389465
4.67297607421875,-0.2671827638186514,-0.3101940033536404,1.7831296171963211,-0.1154547110199928,0.1638604402542114,0.0978587642312049
4.683004150390625,-0.4061065197318792,-0.2371660304132848,1.8138877435535192,-0.1003537848591804,0.0723858997225761,0.0947968289256095
4.6930322265625,-0.4971413470711558,-0.1463077286846935,1.8385627506047488,-0.0875114873051643,-0.0144363474100828,0.0970882102847099
4.70306005859375,-0.4506971374128014,-0.0331382994920015,1.7746125487416982,-0.0784245207905769,-0.0882342606782913,0.1209798827767372
4.713087158203125,-0.3821128460083157,0.0919308993961662,1.6547925756186246,-0.0695186480879783,-0.1388809233903885,0.1697269082069397
4.723114990234375,-0.3016070845331997,0.2136934579543769,1.4444874449282885,-0.0472140237689018,-0.1696717739105224,0.2292655557394027
4.73314306640625,-0.1853467035878449,0.3040261283736676,1.1543301943659785,-0.0042151557281613,-0.1908452361822128,0.3041752278804779
4.743171142578125,-0.09725764737688,0.3566865821983665,0.8660065889716148,0.0537078380584716,-0.1965630948543548,0.3829956352710724
4.75319921875,-0.1091517179839312,0.340005569575727,0.6241992355585098,0.1149227246642112,-0.1833687275648117,0.4453620910644531
4.76322607421875,-0.1665187420643866,0.2279411790154874,0.4226356297284364,0.16640006005764,-0.1525520086288452,0.4903540313243866
4.773254150390625,-0.214050820024684,0.0915837664589285,0.2803285149872302,0.1988392323255539,-0.1043216213583946,0.5124375224113464
4.7832822265625,-0.286695273540169,-0.0427414096176624,0.2346896303623914,0.203917309641838,-0.0321770831942558,0.5068036317825317
4.793310302734375,-0.4089154396727681,-0.2069656110040843,0.2850035210609435,0.1787624210119247,0.0488304197788238,0.4798716008663177
4.80333837890625,-0.5207561044797301,-0.3859396377548575,0.4197042524516582,0.1359013020992279,0.1236438453197479,0.4287169575691223
4.813365966796875,-0.5823002681143582,-0.4730528346709907,0.6005348668545484,0.0808055698871612,0.1848395466804504,0.3537923693656921
4.82339306640625,-0.6091382253531367,-0.4726718725293874,0.8007412128567695,0.0232318677008152,0.2201186865568161,0.2670363187789917
4.833421142578125,-0.577545255606994,-0.4045920235157013,0.9471090011656284,-0.0258027873933315,0.2393874526023864,0.181044191122055
4.84344921875,-0.5547803199607878,-0.2848345211695879,1.107182074221969,-0.0680112168192863,0.2458212375640869,0.1034346893429756
4.853477294921875,-0.5179269454684108,-0.118006859286502,1.255178925037384,-0.0967131704092025,0.2325738668441772,0.0394458509981632
4.863505126953125,-0.4166583819497376,0.0645974867906421,1.382681853878498,-0.1125161424279213,0.2062784135341644,-0.0018599415197968
4.873533203125,-0.3542698033802211,0.2326240030694752,1.4726847808867691,-0.1194057390093803,0.1789077818393707,-0.0313206277787685
4.883560302734375,-0.3666096449933946,0.3679414050538093,1.4984955139696596,-0.1135749369859695,0.1475449502468109,-0.0503837391734123
4.893588134765625,-0.3507422137759626,0.4617373676694929,1.4816080920547243,-0.100837841629982,0.113168865442276,-0.0589133128523826
4.903615966796875,-0.31944523130171,0.5561598646856845,1.4188134899675846,-0.0819627493619918,0.0875433459877967,-0.0612655021250247
4.91364404296875,-0.3785662594426423,0.6052382953051477,1.304696696922183,-0.0610662549734115,0.0660068914294242,-0.0673489570617675
4.923672119140625,-0.4647912022821605,0.6293607099749148,1.2104022101998329,-0.0413765683770179,0.0574896521866321,-0.0722158253192901
4.9337001953125,-0.4940858319580554,0.6522401388462633,1.1135288129001857,-0.0276064295321702,0.0553420782089233,-0.0729662999510765
4.94372705078125,-0.5530434862308203,0.6578733954928815,0.985241455683112,-0.0120566617697477,0.0594160258769989,-0.0713089480996131
4.953755126953125,-0.6234829770479351,0.6783343650456517,0.8945300881445407,-0.006309294141829,0.0749979168176651,-0.0715251937508583
4.963783203125,-0.6627616789910942,0.7004679439857602,0.8199298974514007,-0.0101396236568689,0.0855962187051773,-0.0727025419473648
4.973811279296875,-0.6708719932757318,0.7199794307939708,0.7670458640038966,-0.0173842217773199,0.0951399207115173,-0.0709174275398254
4.98383935546875,-0.6395611284065992,0.7372394123483449,0.7001321361601353,-0.0173238422721624,0.1046119555830955,-0.0654802992939949
4.9938671875,-0.6508467847917229,0.7441286604054271,0.5977934591919183,-0.0156111624091863,0.1073763146996498,-0.064320757985115
5.00389404296875,-0.663069722026959,0.7075387591548263,0.5002607212007045,-0.0088169975206255,0.1052892133593559,-0.0667045935988426
5.013922119140625,-0.6529722525130957,0.6803062496405095,0.3909615575700998,0.0025978435296565,0.0966693609952926,-0.0697667002677917
5.0239501953125,-0.7147810584332793,0.6543493860851973,0.2686819163352251,0.0153219113126397,0.0858603417873382,-0.0866089984774589
5.033978271484375,-0.7742937162403016,0.6048563102502376,0.1615215182989835,0.01998271048069,0.0744803845882415,-0.1125963926315307
5.044006103515625,-0.7943382870119065,0.5884954694926738,0.0784860922157764,0.010508207604289,0.0604859516024589,-0.1451476663351059
5.054033203125,-0.8049954362351447,0.573695886702463,-0.038622283861041,-0.0046896538697183,0.0346357114613056,-0.1730996668338775
5.064061279296875,-0.8171811832651495,0.5472645375031978,-0.1637228277355432,-0.0276606045663356,0.0138452658429741,-0.1952018141746521
5.07408935546875,-0.8237154804047196,0.5464107702180743,-0.3026584202170372,-0.0575220957398414,-0.0013565896078944,-0.2149401009082794
5.084116943359375,-0.8647404414933174,0.5280700076896697,-0.4748346035212278,-0.0868715867400169,0.0079237800091505,-0.2336158156394958
5.094145263671875,-0.9009270226400344,0.461320457431674,-0.6660463266849518,-0.1132014617323875,0.0291587617248296,-0.2498246133327484
5.104173095703125,-0.9082711017925292,0.4297661391954869,-0.7889315325975418,-0.1312181949615478,0.0594522282481193,-0.2619271874427795
5.1142001953125,-0.8962962210342288,0.4712563797082751,-0.8502408645629882,-0.1416971981525421,0.0918477177619934,-0.271597683429718
5.124228271484375,-0.8710150647833943,0.5118501828379929,-0.8719429932832717,-0.1451322883367538,0.1203950271010398,-0.2729375660419464
5.134256103515625,-0.8047978678364306,0.5297562802761793,-0.8684954831779003,-0.14581298828125,0.1537351459264755,-0.2637528479099273
5.1442841796875,-0.7477356719214469,0.5751737772352993,-0.8256541203171014,-0.1507684886455536,0.1948214173316955,-0.2535092830657959
5.15431201171875,-0.7112191281680017,0.5617124573115259,-0.7077402730762958,-0.1687429696321487,0.237938791513443,-0.2593096494674682
5.16434033203125,-0.6410745286442339,0.5804783133842051,-0.552442743858695,-0.1932200789451599,0.2784482836723327,-0.2741805911064148
5.1743671875,-0.5168892729837448,0.6368399598143994,-0.4093424329131841,-0.2175315469503402,0.2831085324287414,-0.2926618456840515
5.18439501953125,-0.3372085592683404,0.6627562721636145,-0.3523620700627565,-0.2158859372138977,0.2307584434747696,-0.2947443723678589
5.194423095703125,-0.1523041926205158,0.717123749101907,-0.411978042113781,-0.1907270550727844,0.1449268907308578,-0.2813310921192169
5.204451171875,-0.051853667486459,0.7743099367227405,-0.5394371318131685,-0.1645976305007934,0.0651090517640113,-0.2649162113666534
5.214479248046875,-0.002982961333543,0.7545821037501096,-0.7200333529382944,-0.140051007270813,-0.0221470277756452,-0.2396952658891677
5.224506103515625,0.1034002052525058,0.700580537514761,-0.9554074584335088,-0.1113653928041458,-0.1528873443603515,-0.1990751922130584
5.2345341796875,0.203131037809886,0.6189275787658989,-1.23457803555727,-0.085726074874401,-0.3174134492874145,-0.1471853703260421
5.244562255859375,0.170666326730512,0.4681755109582096,-1.609093485239148,-0.0725139752030372,-0.4613056182861328,-0.1000556498765945
5.25459033203125,0.0049276656605303,0.168799692608416,-2.079722453764081,-0.0807119831442833,-0.5107799768447876,-0.0658143162727356
5.2646181640625,-0.142297031738609,-0.1619040878757834,-2.47976748149991,-0.1036045178771019,-0.4346303343772888,-0.0492815822362899
5.274646240234375,-0.219236917425692,-0.4878024408396333,-2.7731191441893577,-0.1302691549062729,-0.2514336109161377,-0.0431025177240371
5.284673095703125,-0.241787260473147,-0.7124394637431949,-2.8700907411664724,-0.1451213359832763,-0.0110971331596374,-0.0450324043631553
5.294701171875,-0.2365265634659677,-0.9042593088679016,-2.7510037584930656,-0.1346122473478317,0.2336423099040985,-0.0503091923892498
5.304729248046875,-0.2135124753642827,-1.05837698065117,-2.387854336956144,-0.1028608083724975,0.4541969299316406,-0.0703599229454994
5.314757080078125,-0.194198849215731,-1.1381224252782762,-1.669725356334448,-0.0836407765746116,0.616905689239502,-0.1052574589848518
5.32478515625,-0.1730582999009638,-1.1432564271658658,-0.7157908930629492,-0.0769589021801948,0.682289183139801,-0.151225596666336
5.33481298828125,-0.1181343581236898,-1.1208875050999223,0.1661211210489273,-0.0832170620560646,0.6497868895530701,-0.2027135491371154
5.34484033203125,-0.0334644627064466,-1.0564748002916573,0.8707663507193326,-0.0930628851056099,0.5509770512580872,-0.2512350380420685
5.354868408203125,-0.0302630728492513,-1.0626558270141482,1.3864783235520124,-0.1034297719597816,0.4156737923622131,-0.3033807873725891
5.364896240234375,0.0014684651173651,-1.1074335647650062,1.7288836477458476,-0.1159490719437599,0.2735489904880523,-0.3394563198089599
5.374924072265625,0.0998828813139349,-1.1169589334793388,1.9126392096847296,-0.123437613248825,0.1391419023275375,-0.3608303070068359
5.3849521484375,0.1906008247237652,-1.15143622649014,1.9154273790985343,-0.1139699667692184,0.033469770103693,-0.3753571808338165
5.394979248046875,0.2531409040605649,-1.135920969711244,1.7764263201653956,-0.0802069455385208,-0.0418390966951847,-0.3862361907958984
5.405007080078125,0.3480819450581446,-1.0942552265010774,1.5970266153484582,-0.0268634799867868,-0.1014033555984497,-0.397706538438797
5.41503515625,0.4255279901690781,-1.1139710037097337,1.4172931485325098,0.0371887385845184,-0.1512840986251831,-0.4007332324981689
5.425063232421875,0.492176418140158,-1.1324861729569733,1.2882593568623064,0.0947306379675865,-0.1979314684867859,-0.400731474161148
5.43509130859375,0.5523220766210928,-1.0988663735583424,1.1488836193978786,0.1435285359621048,-0.2564102113246918,-0.39830482006073
5.445119140625,0.5956393498979509,-1.0542442647606134,0.9967945308327676,0.1815224885940551,-0.3283881843090057,-0.3859418034553528
5.45514599609375,0.6514686430171132,-1.0001206065155566,0.753010908910632,0.2108130007982254,-0.4080750346183777,-0.3630524575710296
5.465174072265625,0.7114264142431318,-0.9281769216805696,0.4888695586144924,0.232786938548088,-0.4729540348052978,-0.3370272219181061
5.4752021484375,0.7108631543371826,-0.8904515135940164,0.1831874066621065,0.2429122775793075,-0.5056840181350708,-0.3118749856948852
5.485230224609375,0.6998851756617427,-0.8679946209836751,-0.1651689348906278,0.2442184686660766,-0.4918256103992462,-0.2886054217815399
5.495258056640625,0.6723333710651844,-0.8655974236488342,-0.456148607751727,0.2386881560087204,-0.4326110184192657,-0.2714447975158691
5.5052861328125,0.5989269202012568,-0.8383304273430258,-0.6951444108754397,0.2233467698097229,-0.3402060270309448,-0.2656702399253845
5.515313232421875,0.5568339645549655,-0.7963242731973529,-0.7821148383200168,0.2012153565883636,-0.2245923429727554,-0.2629788517951965
5.52534130859375,0.5325521946050227,-0.7386926798965782,-0.7831804217249154,0.1730641722679138,-0.0959017649292945,-0.2648253440856933
5.535369140625,0.4623221818201243,-0.6727144793372601,-0.6322673912018537,0.1442935019731521,0.0258172135800123,-0.2668866217136383
5.545397216796875,0.4306556353811174,-0.600374927052483,-0.3885837225228548,0.1186743229627609,0.115588791668415,-0.2618615627288818
5.555425048828125,0.4297464115817099,-0.487669242914021,-0.0370814841598272,0.1018577888607978,0.1778598874807357,-0.2522408962249756
5.5654521484375,0.4259480422120541,-0.3090086660265922,0.252120657634735,0.0902401208877563,0.2144651859998703,-0.2405009865760803
5.575480224609375,0.3891484437335282,-0.1962105543643236,0.5838257241159677,0.0805880203843116,0.2236687988042831,-0.2199293971061706
5.585508056640625,0.4010849652428179,-0.1051954546388238,0.8636316765338182,0.074930302798748,0.2137643545866012,-0.1932146102190017
5.5955361328125,0.3482378297396004,-0.019184812137112,1.111131104108691,0.0672657266259193,0.1784601658582687,-0.1690296381711959
5.605564208984375,0.2852784655448049,0.0668969228394329,1.2900573461949825,0.0498903095722198,0.1293418705463409,-0.1487812250852584
5.61559228515625,0.213088404733315,0.1061951332006603,1.4357985270380973,0.0306569617241621,0.085807166993618,-0.1268173307180404
5.625619384765625,0.1667543043859302,0.0854351807013154,1.514108678165078,0.0088201472535729,0.0375617854297161,-0.1013073697686195
5.635647216796875,0.1797205342691391,0.1106969015993177,1.5588386312514542,-0.002541963243857,-0.0067151333205401,-0.0754552707076072
5.645675048828125,0.1989605106595903,0.129208052258566,1.5340776994824408,-0.0025721727870404,-0.0434927940368652,-0.047959242016077
5.655703125,0.26271635899432,0.1670930348210036,1.4488327806562185,0.0110331177711486,-0.0730624049901962,-0.0166963916271924
5.665731201171875,0.3242903332453221,0.2336079726055264,1.3599965593397616,0.0326723679900169,-0.0937080308794975,0.0155920377001166
5.67575927734375,0.3306595029510557,0.2497443569574504,1.2740361857205629,0.0577694624662399,-0.1241516917943954,0.043741650879383
5.6857861328125,0.322669746306166,0.2682222629342228,1.199264145591855,0.0730707943439483,-0.1522229164838791,0.0682478547096252
5.695814208984375,0.3179371648263186,0.2960390751425176,1.1045715994626284,0.0760870948433876,-0.1829161196947097,0.0889446139335632
5.70584228515625,0.3079294194225221,0.3026335780367255,1.0505454102426768,0.0619130358099937,-0.2124711126089096,0.1057811602950096
5.7158701171875,0.300355038645491,0.2674214679453521,0.9427876308351756,0.0322792455554008,-0.2346286028623581,0.1226275190711021
5.725898193359375,0.3392312242023647,0.2359001021306961,0.7872177144169807,-5.01226168125e-05,-0.2494386881589889,0.144063264131546
5.73592529296875,0.3655342708468437,0.2318828293133527,0.554192217874527,-0.0213290452957153,-0.2504591941833496,0.1687635630369186
5.745953125,0.4005899482674896,0.248268146925047,0.2987906388729811,-0.0178204048424959,-0.2351076006889343,0.1973937004804611
5.755981201171875,0.4393560975786298,0.2719252821706235,0.0590191752016544,0.0027192253619432,-0.2184788137674331,0.2286387085914611
5.766009033203125,0.4325606652848422,0.3006018530134111,-0.1118476790696382,0.0301457047462463,-0.2000590413808822,0.2572868168354034
5.776037109375,0.3962870634417981,0.2695187324855476,-0.2127291429668664,0.0488514825701713,-0.1745456904172897,0.282040387392044
5.786065185546875,0.3378640275023877,0.1832694589223712,-0.2762988210797309,0.0521883890032768,-0.1441310197114944,0.3041872382164001
5.79609228515625,0.2873040530882775,0.1353146985705942,-0.3444295234978198,0.0443033017218112,-0.1170442774891853,0.3231156468391418
5.806120361328125,0.2532669781256467,0.0940961876712739,-0.3813303903937339,0.0257840640842914,-0.0942491516470909,0.3311891257762909
5.816148193359375,0.2452327978171408,0.0297218421120196,-0.4388327312916517,0.0094548929482698,-0.0709166675806045,0.3333745300769806
5.826176025390625,0.2672870279107243,0.0335869200423359,-0.5238099390923977,-0.0027630829717963,-0.0474649593234062,0.3406120836734772
5.836204345703125,0.2579362851109355,0.0344255628235638,-0.6082663378894329,-0.0085658440366387,-0.0139099285006523,0.3506903052330017
5.846232177734375,0.2607284731127322,0.0129465022694319,-0.6602402707546949,-0.0042331116273999,0.0168954767286777,0.3618732690811157
5.856259033203125,0.2733427477531135,0.006030366205424,-0.6877683291494846,0.0054914215579628,0.0426775403320789,0.3798415958881378
5.866287109375,0.2048524182423949,-0.040794586398825,-0.6702127987146377,0.0130631504580378,0.0725865736603736,0.3856695890426636
5.876315185546875,0.0937923093538731,-0.1333625415895134,-0.627013123935461,0.0120556773617863,0.1126580908894538,0.3726648390293121
5.88634326171875,0.0340197585016489,-0.1661533428180962,-0.6038970367640256,0.0090064527466893,0.1318137794733047,0.3499149084091186
5.89637109375,-0.0065240680065006,-0.1377468210883438,-0.6366898838192224,0.0163322761654853,0.1260184794664383,0.3309478759765625
5.906398193359375,-0.0721875035282224,-0.1595624201204627,-0.7726204492658376,0.0347341857850551,0.1025610789656639,0.31973597407341
5.916426025390625,-0.0981134604886174,-0.1659403576545417,-0.9488193122148512,0.0627431869506836,0.0775601267814636,0.3264849483966827
5.9264541015625,-0.071931263744831,-0.116601522533223,-1.1158546254992483,0.0972100049257278,0.0349892303347587,0.3451737761497497
5.936482177734375,0.0508691864937543,0.0123163146071135,-1.324127958101034,0.1475155055522918,-0.0373230502009391,0.3902935981750488
5.94651025390625,0.3526388411775231,0.1845084261327982,-1.6257009211689233,0.223140999674797,-0.1470279097557068,0.4732871353626251
5.9565380859375,0.5200060167647897,0.2983589694574475,-1.94941674246192,0.3009231388568878,-0.2588966786861419,0.5658388733863831
5.966565185546875,0.5440093350995332,0.2582586489330977,-2.204464101198316,0.3484088182449341,-0.319785326719284,0.6522672772407532
5.97659326171875,0.5161153660017996,0.0774058957636356,-2.3711919559687376,0.3451376557350158,-0.2931734323501587,0.7242953777313232
5.986621337890625,0.3911580299902707,-0.265898934553191,-2.412717560055852,0.2947553694248199,-0.1814258992671966,0.76031893491745
5.996649169921875,0.1120557688623666,-0.692799309054017,-2.369381691676378,0.2133651822805404,0.0004174052737653,0.7445325255393982
6.006677001953125,-0.1957147336713969,-1.096128107700869,-2.2094898204058406,0.1337040215730667,0.2117231041193008,0.6838639378547668
6.0167041015625,-0.4541287923619151,-1.4190249407611786,-1.895062051939964,0.0661920830607414,0.4190661609172821,0.5942826271057129
6.026732177734375,-0.6604276830855756,-1.6251814273394642,-1.367709910196066,0.0153653156012296,0.5837300419807434,0.4818867743015289
6.036760009765625,-0.814737004983425,-1.6563015188768504,-0.6565519376307726,-0.029174456372857,0.7090208530426025,0.3551080524921417
6.0467880859375,-0.90347897214517,-1.520699746993184,0.1754980212032794,-0.0811547860503196,0.7656577825546265,0.2336901575326919
6.056816162109375,-0.8700958310466259,-1.3153300268784165,1.062304821619391,-0.1385307312011718,0.7531617283821106,0.1271780878305435
6.06684423828125,-0.8517959850504994,-1.1512640847936273,1.8528525572419168,-0.1928354352712631,0.6515561938285828,0.0442476905882358
6.076871337890625,-0.9433452647179364,-1.0423881150111556,2.4407085597872733,-0.2401068210601806,0.4620776176452636,-0.0219960417598485
6.086899169921875,-1.060486227890104,-0.9160814102172852,2.8039614416986702,-0.2822771370410919,0.2300324887037277,-0.0689530819654464
6.096927001953125,-1.129222787246853,-0.7633431370284408,2.931234068915248,-0.3182772099971771,-0.0044034495949745,-0.0931473672389984
6.106955322265625,-1.1548116212073714,-0.5546343356188387,2.7661908062309024,-0.3349672555923462,-0.2132631838321685,-0.0931867808103561
6.116983154296875,-1.1054945595264434,-0.3379069167960435,2.4452736757457254,-0.330155998468399,-0.3858168721199035,-0.0613292530179023
6.127010009765625,-0.9805170575097204,-0.1394972449522465,2.1289801134079696,-0.3058971464633941,-0.53139728307724,-0.0007632323540747
6.1370380859375,-0.7630996836613864,0.0579553453624248,1.7423580463469028,-0.2592100501060486,-0.6472594141960144,0.0898726657032966
6.147066162109375,-0.579733486366272,0.1954346015557646,1.2135171273499727,-0.1838853806257248,-0.7082167863845825,0.1989657282829284
6.15709423828125,-0.4423010649893432,0.23284122601673,0.5862374614328145,-0.0878789648413658,-0.6922439336776733,0.3102760314941406
6.167122314453125,-0.3747092917535454,0.1888905867397785,-0.0005681552767753,0.0217855516821146,-0.6037489175796509,0.4182506501674652
6.177150390625,-0.3392481753371655,0.0407855263095349,-0.4677437684774398,0.1310276091098785,-0.4583595097064972,0.512972354888916
6.18717724609375,-0.3418202908474951,-0.1410232854757458,-0.7550830390095711,0.2299521565437317,-0.2861508429050445,0.5837975144386292
6.197205078125,-0.3998103421971201,-0.3121095546513796,-0.8179507063329219,0.2954350113868713,-0.10231763869524,0.6138403415679932
6.207233154296875,-0.5084965615611523,-0.5002820562496781,-0.6532464663445949,0.3101481199264526,0.0537609085440635,0.6021789908409119
6.21726123046875,-0.6496146126482636,-0.6864829655140638,-0.316642521905899,0.2758772373199463,0.1662381738424301,0.5482752919197083
6.2272890625,-0.7360244105353951,-0.8611677706383168,0.1290524963706731,0.2009966671466827,0.2369684278964996,0.4611964225769043
6.237316162109375,-0.7524302594784646,-0.9171176944624632,0.5769733740031718,0.1042570695281028,0.2544305026531219,0.3550694584846496
6.24734423828125,-0.7422787216898054,-0.8967550707176327,0.9223328718274832,0.0051176217384636,0.235107809305191,0.2392363548278808
6.257372314453125,-0.752550963248685,-0.798048174380511,1.147847846609354,-0.0771570056676864,0.208430677652359,0.1251183003187179
6.267400146484375,-0.6563713203668594,-0.6170253253411502,1.2625824792921545,-0.1281125247478485,0.180617943406105,0.0310057997703552
6.277427978515625,-0.5361315143965184,-0.3739469290789216,1.3201806817799806,-0.1446014940738678,0.1581872105598449,-0.0354339443147182
6.287456298828125,-0.4740040709812194,-0.1427085351489484,1.4098235433042048,-0.1379500478506088,0.1316595524549484,-0.0832809880375862
6.297483154296875,-0.4111848459094762,0.0853089970383793,1.4554191733092068,-0.1153499335050582,0.1058460623025894,-0.1128692403435707
6.307510986328125,-0.3799523800387978,0.2770271353542805,1.4592337631613015,-0.0816531851887703,0.0828907638788223,-0.1316732168197631
6.3175390625,-0.3907195655077695,0.4434573223523795,1.445914262861013,-0.0399629920721054,0.0568868666887283,-0.1377657353878021
6.327567138671875,-0.4092833231370896,0.5786031671620905,1.3928782537221909,-0.0058084134943783,0.0373650044202804,-0.1409565657377243
6.33759521484375,-0.4990446964744478,0.6591803133729844,1.3247738547891377,0.021722812205553,0.0179971661418676,-0.1438705921173095
6.347622314453125,-0.5774000749826431,0.7079625375248492,1.2651070293337106,0.0284563489258289,-0.0024156980216503,-0.1464762389659881
6.357650146484375,-0.6185558959092945,0.7490846753776073,1.2400000606060029,0.0175578948110342,-0.0186742972582578,-0.1509242504835128
6.36767822265625,-0.604083280051127,0.7906408207334578,1.157320023831725,-0.0007457488682121,-0.0308647714555263,-0.146968737244606
6.377706298828125,-0.5817002563945949,0.8192769134353846,1.0064315432280302,-0.0141627546399831,-0.0428207665681839,-0.145902931690216
6.387734130859375,-0.5860105208091437,0.8263460481040179,0.8278174358308314,-0.0172410942614078,-0.0603049769997596,-0.1484753787517547
6.397762451171875,-0.6125916537426411,0.7931370945286005,0.6281827522367238,-0.0068489061668515,-0.0709922388195991,-0.1500735431909561
6.4077890625,-0.5890614328123629,0.7619857310701161,0.3460410503476858,0.0112194223329424,-0.0733228027820587,-0.1502262651920318
6.417817138671875,-0.5826200746532529,0.7077914918068796,0.0934802477300167,0.028838362544775,-0.0539640225470066,-0.1531749218702316
6.42784521484375,-0.5990736351955682,0.6477620435841381,-0.0867576614767313,0.0304585937410593,-0.010631013661623,-0.1690820604562759
6.437873291015625,-0.5888466940831393,0.59992126500085,-0.2295955220937728,0.0237716622650623,0.0319065898656845,-0.1856141686439514
6.4479013671875,-0.5609256908480078,0.5243741488464176,-0.3317781317174434,0.0173221342265605,0.0753130093216896,-0.1990652978420257
6.457928955078125,-0.5644482389509677,0.4334098294600844,-0.3568558743506669,0.0060359248891472,0.1087055876851081,-0.2164333760738372
6.4679560546875,-0.6578372282009571,0.3042931818120181,-0.3353331938505172,-0.0110743883997201,0.1354085952043533,-0.2519037425518036
6.477984130859375,-0.7347729491695761,0.1892028675593435,-0.2760211731821298,-0.034243356436491,0.1491028368473053,-0.2968533635139465
6.48801220703125,-0.7913452426757663,0.1026150096915662,-0.241758838096261,-0.0598527342081069,0.1540576517581939,-0.3524276912212372
6.4980400390625,-0.8272994033060967,0.0047555970292538,-0.1542547421663999,-0.0967348515987396,0.1566395908594131,-0.4106579720973968
6.508068115234375,-0.8345090424239635,-0.0438198525041341,-0.0876449657052755,-0.1304656863212585,0.1529651284217834,-0.4606639742851257
6.51809521484375,-0.8516949358288198,-0.0630748803332447,-0.0260866274148225,-0.1618893891572952,0.1510966569185257,-0.5037752389907837
6.528123291015625,-0.8246858598068356,-0.0168107764821499,0.0393196184754371,-0.1870472431182861,0.1498390585184097,-0.5351589322090149
6.538151123046875,-0.807213623741269,0.0212491973210126,0.166388247552514,-0.204910933971405,0.1487112045288086,-0.5544415712356567
6.54817919921875,-0.7844876318659633,0.0526512476049363,0.2252203757494688,-0.209708571434021,0.1549473255872726,-0.561593770980835
6.558207275390625,-0.7829273968119174,0.0918314576096832,0.2506780576109886,-0.2016122937202453,0.1560645252466201,-0.5631765127182007
6.568235107421875,-0.7478921045921743,0.1470413036562502,0.2853758615046739,-0.1879900097846985,0.1641568541526794,-0.5655399560928345
6.578261962890625,-0.6928467283923179,0.2073549756478518,0.3402414241582155,-0.1827800720930099,0.1723261028528213,-0.5698391199111938
6.5882900390625,-0.6653205696936696,0.2824508409034461,0.3602794190585613,-0.1826418042182922,0.1717441529035568,-0.5702264308929443
6.59831787109375,-0.517056080918014,0.3307030498318374,0.4366951347410678,-0.1886781156063079,0.1434275507926941,-0.5587383508682251
6.608345703125,-0.3967458035273477,0.3585742225758731,0.3920341552376747,-0.1929235905408859,0.1013075932860374,-0.5449032783508301
6.6183740234375,-0.2737436201715841,0.4203231880676001,0.2315589311212301,-0.1855527609586715,0.0568834021687507,-0.5281136631965637
6.628400634765625,-0.2213466395886615,0.4368523711293935,-0.0427279656141996,-0.1632010638713836,0.0130675379186868,-0.5098289251327515
6.6384287109375,-0.1078881643215194,0.4421234434001147,-0.3631552667558193,-0.1340738087892532,-0.0649130120873451,-0.4840143620967865
6.648456787109375,0.0063621554430574,0.3981713428184389,-0.6900853739202022,-0.113739401102066,-0.1550007462501526,-0.4501243531703949
6.65848486328125,0.1465636031419038,0.2922938241995871,-1.0582710360586642,-0.1192920953035354,-0.2533541917800903,-0.4074629247188568
6.668512939453125,0.1756064500138163,0.0894790492646396,-1.4913117399454117,-0.1420936584472656,-0.3088864088058471,-0.3599035441875458
6.678539794921875,0.1359847798518836,-0.2083094268284737,-2.105923647469282,-0.0580445602536201,-0.2356404364109039,-0.3404832482337951
6.68856787109375,0.081884794743359,-0.4415371679447591,-2.7478818270802496,0.0996063575148582,-0.1640051901340484,-0.3731832206249237
6.698595703125,-0.0089809596393257,-0.6579340396389365,-2.876139958202838,0.2535370886325836,-0.0439834408462047,-0.4209025204181671
6.7086240234375,-0.0120849900692701,-1.0011249612525104,-2.5245044488489627,0.3165057599544525,0.1122925728559494,-0.4384697675704956
6.718651611328125,0.0682431498166173,-1.2571024404458702,-1.786461391967535,0.2757284939289093,0.2795801162719726,-0.4368236660957336
6.728679931640625,0.0772450791787356,-1.2982355380840598,-1.0199334143579006,0.1798772662878036,0.3828698396682739,-0.4351862370967865
6.738706787109375,0.0258679431628435,-1.2819590876743197,-0.3767991767048835,0.0443990640342235,0.4354259967803955,-0.4497353732585907
6.74873486328125,-0.014937603021413,-1.348329356291145,0.1598486166507005,-0.1134276613593101,0.4607206583023071,-0.4689662754535675
6.7587626953125,0.0157715696275234,-1.4225488771036263,0.6007230829030274,-0.2934387028217315,0.460241287946701,-0.4754199087619781
6.76879052734375,0.0541247907562181,-1.5142771665997805,0.8378069149255752,-0.4565986394882202,0.435905784368515,-0.4771815836429596
6.77881884765625,0.0562135797290131,-1.622689464393258,0.8499813368439674,-0.5454022288322449,0.3883973956108093,-0.4830527901649475
6.788845947265625,0.1141289584072306,-1.6494224268876014,0.6322498555451631,-0.5210546255111694,0.3097161948680877,-0.4918891787528991
6.7988740234375,0.1008182259352877,-1.5602803544923662,0.4404746532797813,-0.4293446838855743,0.2277800440788269,-0.5081847310066223
6.808901611328125,0.1699171523310244,-1.4299664598837494,0.514985996645689,-0.3120251893997192,0.1412692070007324,-0.5052618980407715
6.818929931640625,0.4494300766190514,-1.3203272506438195,0.6329056891053915,-0.1700869798660278,0.0266249198466539,-0.4795557260513305
6.828957763671875,0.6330905441530048,-1.2957342227876183,0.6562567540764809,-0.0152422413229942,-0.1086126714944839,-0.4505736827850342
6.83898583984375,0.5611474073072895,-1.169576132684201,0.5458709642529487,0.1184774711728096,-0.2528899610042572,-0.4070126116275787
