seconds_elapsed,ax,ay,az,gx,gy,gz
0.05870458984375,0.1926506699256598,0.2943847868631594,0.4874164371967315,-0.0483775436878204,0.0283786933869123,0.0153829222545027
0.068732666015625,0.3059776277676224,0.2707307020911946,0.4562561597794294,-0.0447307042777538,0.0257517024874687,0.0253571756184101
0.078760498046875,0.2009911397043615,0.3301620017576963,0.2974877395808696,-0.022729268297553,0.0390432737767696,0.0323272012174129
0.088788330078125,0.2329205017980188,0.3932487917244434,0.3304828312098979,-0.0031572601292282,0.0215806607156991,0.0423135347664356
0.098816650390625,0.2099018836516887,0.4113626866944134,0.2391337502896785,0.020056715235114,0.0462125018239021,0.0472220070660114
0.108844482421875,0.1353479432530701,0.4004754185097292,0.1935480571568012,0.0353716313838958,0.0291543714702129,0.0470620989799499
0.11887255859375,0.1738930702246725,0.3774444888710975,0.1970703860640525,0.0409967601299285,0.0226786285638809,0.0540233328938484
0.128900390625,0.1256223027262836,0.3791236741296946,0.1121153900951147,0.0381922349333763,0.0093138720840215,0.0665115267038345
0.138927734375,0.1584383845265954,0.3703795189209282,0.1009656350493431,0.0277491807937622,-0.0102917868643999,0.0853888094425201
0.14895556640625,0.189856655292958,0.3739315853793173,0.0660965662419796,0.0156439542770385,-0.0221721474081277,0.1095825731754303
0.158983642578125,0.176814145303145,0.3721426561359316,0.0566144521474838,0.0020530440378934,-0.0300686843693256,0.1401588469743728
0.169011474609375,0.1430346252981573,0.3739914988730102,0.0482248094648122,-0.0080478377640247,-0.0154127245768904,0.1617689281702041
0.179039306640625,0.09599405718185,0.4095237808294594,0.0012198971837759,-0.0181183144450187,0.0010637207888066,0.1772954165935516
0.189067626953125,0.0359678238295018,0.464993446855992,0.0337964711397886,-0.0304704494774341,0.015736136585474,0.1877070069313049
0.199095458984375,-0.0318942177150398,0.509915342317894,-0.0019143091887235,-0.0401009730994701,0.0213617980480194,0.1902069300413131
0.20912353515625,-0.0627818887360393,0.5425980069968849,-0.0177291334360837,-0.0505039058625698,0.011946409009397,0.1908712983131408
0.2191513671875,-0.0789411425068974,0.5506826753836125,-0.0048807577788829,-0.0517180413007736,1.9974540919e-05,0.1861436516046524
0.229179443359375,-0.1727194964006543,0.5009468768339603,-0.003905190744996,-0.0430496707558631,-0.0046641579829156,0.1690277159214019
0.23920751953125,-0.0695176267318427,0.5356363147580996,0.0193821613401174,-0.0370985716581344,-0.0315876491367816,0.1600294262170791
0.249235595703125,-0.0726993255078792,0.5443654915934428,0.0395943437635898,-0.0357402265071868,-0.0230135470628738,0.1495883613824844
0.259263427734375,-0.219402921642363,0.5472739629186689,0.0973755016028881,-0.042265236377716,-0.0326944030821323,0.1279648244380951
0.269291748046875,-0.2232886039692908,0.5239231536759064,0.1260755263864994,-0.0474859252572059,-0.0377677269279956,0.103362813591957
0.279318359375,-0.2317112721387297,0.4840857584040611,0.1131400569677352,-0.0553888566792011,-0.0515080392360687,0.0858847573399543
0.2893466796875,-0.1763312571570277,0.4480155701786279,0.1573632295757532,-0.055373627692461,-0.0746317356824874,0.0739298164844513
0.29937451171875,-0.186080424689874,0.3787989356873557,0.1064648169875144,-0.0459689423441886,-0.0795324817299842,0.0693891271948814
0.30940283203125,-0.191413456280902,0.3408140364143997,0.1307411801099777,-0.0335763730108737,-0.0931283980607986,0.0737515166401863
0.319430419921875,-0.1137263324230909,0.2541684570100158,0.1188560965269804,-0.02309550344944,-0.10271817445755,0.0944698452949523
0.329458984375,-0.0175615217842161,0.2235405694363638,0.1934656395703554,-0.0198470298200845,-0.124922014772892,0.1241622343659401
0.3394873046875,0.0070592708617448,0.1644142988647334,0.2913958524465561,-0.019130639731884,-0.1449452638626098,0.1531723141670227
0.34951513671875,-0.0333533304821699,0.1395832884010393,0.351749491122365,-0.0127095179632306,-0.1595606356859207,0.1696906238794326
0.359543212890625,-0.056343526251614,0.1851152694521471,0.4014320981800556,-0.0067621460184454,-0.1490102559328079,0.1877465993165969
0.3695712890625,-0.0551972788259387,0.2278003092400729,0.4890817400604486,0.0068860528990626,-0.1237051635980606,0.1987638622522354
0.37959912109375,-0.1043367919828742,0.2805584512855857,0.4635790500134229,0.0221960321068763,-0.0733860656619072,0.2093965411186218
0.389627197265625,-0.1082495815124362,0.3132483494229615,0.4709042783349752,0.0336545035243034,-0.030315775424242,0.2230408191680908
0.3996552734375,-0.0537746986769139,0.3148066847808659,0.4886304891616105,0.0348278954625129,0.0182853173464536,0.2389939427375793
0.409682373046875,-0.0022820465225726,0.2495833029105328,0.4325082044452428,0.0322717539966106,0.0638675540685653,0.2542245090007782
0.41971044921875,-0.0280382729392498,0.2529287408809177,0.3785235162794589,0.0249014552682638,0.1053966209292411,0.2634430229663849
0.429738037109375,-0.1324856856897473,0.3081162472315132,0.2792816362828016,0.0251254271715879,0.153194785118103,0.2661112546920776
0.439766357421875,-0.1515975056558847,0.296837367647048,0.1377367380857467,0.028480477631092,0.1964304000139236,0.2648465037345886
0.449794189453125,-0.1155778785739094,0.2709093465937301,-0.0212245743364095,0.043965246528387,0.1921742409467697,0.2545711994171142
0.459822509765625,-0.1679083697918802,0.2605744698611087,-0.1846592327803373,0.0611841790378093,0.1860774606466293,0.2418389022350311
0.469850341796875,-0.2742571591842919,0.2387702690058387,-0.2825684028685092,0.0754611119627952,0.1500874459743499,0.2309613823890686
0.4798779296875,-0.2072289381153881,0.2074470926444046,-0.2271978133022785,0.0837880223989486,0.0887990593910217,0.2243327796459198
0.48990625,-0.1938079502020031,0.1516351616519969,-0.2370937688946723,0.0925899967551231,0.0237171538174152,0.2246742248535156
0.49993408203125,-0.2209839072234928,0.1026888786453753,-0.2267904015451669,0.1105048134922981,-0.0345091335475444,0.2375506162643432
0.50996240234375,-0.1086472025278955,0.1204153634666465,-0.1031979241460561,0.1286396980285644,-0.0823566019535064,0.2717276513576507
0.519990234375,-0.0287199715930968,0.2168487619138322,0.0818231276839971,0.122679553925991,-0.0854575857520103,0.3220374286174774
0.53001806640625,-0.1389920719090849,0.3627341917995363,0.3521335220038891,0.0897864028811454,-0.0434493124485015,0.3598436117172241
0.540046142578125,-0.3215769095681607,0.4623638655373826,0.5490957715183497,0.0446812361478805,0.0032867672853171,0.3771333694458008
0.5500732421875,-0.3537335045464336,0.6273338072571903,0.6288473536252975,5.26041258126e-05,0.0495652072131633,0.3793928623199463
0.560101318359375,-0.4448110019836575,0.8212463868774473,0.5707610753595829,-0.0303449835628271,0.099292017519474,0.3648344278335571
0.57012939453125,-0.6545822449930012,0.9598398879230022,0.4607780211180448,-0.0248952209949493,0.1384518295526504,0.3207301497459411
0.5801572265625,-0.7626716675076634,1.0377809134766458,0.2770703899741172,0.0067796185612678,0.1683418154716491,0.2660131156444549
0.590185302734375,-0.806275100782141,1.130249353815615,0.1124497366160154,0.0427708216011524,0.1868375688791275,0.2076687812805175
0.600213134765625,-0.8550601014129817,1.2189302384398877,0.0803898800104856,0.0598384886980056,0.1876458376646042,0.1364625096321106
0.610241455078125,-0.9107721248280256,1.169263267342746,-0.0111398181736469,0.067831739783287,0.1840291619300842,0.0611257329583168
0.620269287109375,-0.8555801797643303,1.044143653441593,-0.0863093331873416,0.0666429027915,0.1705687493085861,0.0076646404340863
0.630297119140625,-0.7073609914351254,0.9328837111320346,-0.1213981822252273,0.0652104839682579,0.1354230195283889,-0.0210927221924066
0.6403251953125,-0.5978431435525416,0.8372120177723467,-0.2063262901872396,0.0731107518076896,0.0785501450300216,-0.0290699545294046
0.65035302734375,-0.4675087176125496,0.7341344320703297,-0.2129834099888801,0.0806430205702781,-0.0015447391197085,-0.0231509171426296
0.66038134765625,-0.4104206931365654,0.695114381063357,-0.1228495500773191,0.0812709927558898,-0.069664143025875,-0.0109051689505577
0.6704091796875,-0.4908586866050958,0.6948886094834655,-0.009539397239685,0.0807457491755485,-0.1045958697795867,-0.0115658193826675
0.680436279296875,-0.5826772116679698,0.7393128576215356,0.100189974501729,0.0751736164093017,-0.114047423005104,-0.0086959972977638
0.690464111328125,-0.5386754267256707,0.804018919353187,0.3056611091643572,0.0587694123387336,-0.1154850497841835,0.0013069522101432
0.700492431640625,-0.4578251626618206,0.8124621919192373,0.439682626119256,0.0388638824224472,-0.1014227569103241,0.0073568550869822
0.710520263671875,-0.4534221784625202,0.7802903263065963,0.5021697696924209,0.02768618427217,-0.0798613280057907,0.0091861048713326
0.72054833984375,-0.4883017686638981,0.8098367387864738,0.5112397958546877,0.024028331041336,-0.0563075318932533,0.0073152333498001
0.730576171875,-0.4799033581528812,0.8587386437952518,0.5090829100817441,0.0252064261585474,-0.0357299819588661,0.0036221717018634
0.740604248046875,-0.4620840622153133,0.8836350385122,0.5031161106318235,0.0380774810910224,-0.0260107740759849,-0.0005771006690338
0.75063232421875,-0.4633086355742067,0.8288948558039962,0.48160044439435,0.0561434887349605,-0.0191817358136177,-0.0043180016800761
0.760660400390625,-0.4185694762680679,0.7830944239418953,0.4823609073728322,0.0765867084264755,-0.0124260960146784,-0.0025147753767669
0.770688232421875,-0.4179549976315349,0.7960030053537338,0.5249070866793394,0.0839532315731048,0.0048357690684497,0.0029021990485489
0.780716064453125,-0.4637615669734776,0.8295118186585605,0.575966242787242,0.0744164511561393,0.025777269154787,0.0023040531668812
0.790744140625,-0.5789196857653558,0.8380034604109823,0.5700497122198342,0.0593216456472873,0.0513343997299671,-0.0030236258171498
0.800772216796875,-0.6737373195789754,0.8230174151379615,0.5083621945917606,0.0502453260123729,0.0747331976890564,-0.0128003563731908
0.81079931640625,-0.6912145971458404,0.8171194431405514,0.3920060981869697,0.0526163019239902,0.0824998840689659,-0.0186814796179533
0.8208271484375,-0.6730564246427267,0.8114391324818134,0.2671066298425197,0.0776092708110809,0.0867460295557975,-0.0231683738529682
0.830855224609375,-0.7079824112690984,0.7995676390327513,0.1677349859863519,0.1048339083790779,0.0929237008094787,-0.0290085077285766
0.840883056640625,-0.7943179748762399,0.8169565807290374,0.1078080482900142,0.1282598823308944,0.1016695201396942,-0.0391074791550636
0.850911376953125,-0.8505706810392439,0.7780962503284216,0.061453708872199,0.1428083926439285,0.105591244995594,-0.0440831966698169
0.860939208984375,-0.8023439718782901,0.7370476161032915,0.0433358683794736,0.1359243839979171,0.1010995581746101,-0.0402168184518814
0.870967529296875,-0.7568002181909977,0.7102336242619901,0.0096411040484905,0.119447611272335,0.095353789627552,-0.0367730744183063
0.8809951171875,-0.7421588216371834,0.6991573728438466,-0.034532384198904,0.0977058336138725,0.0817735269665718,-0.0266402792185544
0.891023193359375,-0.6999047571450472,0.6645950318980962,-0.0691793346881866,0.08530293405056,0.0627713426947593,-0.0095159243792295
0.90105126953125,-0.6555256633229554,0.6763309893339872,-0.131591074937582,0.0755408480763435,0.0416831038892269,0.0111901527270674
0.911079345703125,-0.6466264636829495,0.7307986387111246,-0.1043085157364606,0.0682403147220611,0.0238712448626756,0.0260895434767007
0.921107421875,-0.6330331879425793,0.7808198300734162,-0.1028355205744504,0.0650767534971237,0.0133142080157995,0.0314627364277839
0.93113525390625,-0.6217152367230504,0.8560627756495028,-0.0579804798036813,0.0601996555924415,0.0138319265097379,0.0250128358602523
0.9411630859375,-0.6971513667836785,0.9816243611644953,-0.0314741656720638,0.0458175204694271,0.01881336979568,0.0048830658197402
0.951190185546875,-0.645588645067811,1.0572876510445028,-0.0313362185060977,0.0263028107583522,0.0309338420629501,-0.0127211790531873
0.96121826171875,-0.5499298477223142,1.0960141989976169,-0.0589151303052902,0.015009943395853,0.0379683151841163,-0.032095942646265
0.97124609375,-0.5249964819958434,1.1566755884483455,-0.1059744031220674,0.0073641771450638,0.0617205165326595,-0.0498999543488025
0.981274169921875,-0.5499284229502082,1.2176391026508062,-0.1525584596425294,0.0032104449346661,0.0934944301843643,-0.0686877593398094
0.99130224609375,-0.534377364205569,1.225680808678642,-0.2131640272527933,-0.0027269371785223,0.1277657449245453,-0.0917288437485694
1.001330322265625,-0.5359991201885044,1.2157239166792482,-0.2518833417475223,-0.0242937486618757,0.1503972858190536,-0.1183274313807487
1.011358154296875,-0.5405129078185186,1.1843218663953243,-0.319283391803503,-0.056450393050909,0.170610249042511,-0.1532311588525772
1.021386474609375,-0.4934765409532934,1.105871868406236,-0.4175011894494295,-0.0873640924692154,0.1693742871284485,-0.1786203980445861
1.0314140625,-0.3668001625968143,1.0402993260383606,-0.5267389782816171,-0.1133503839373588,0.1605332791805267,-0.1916250884532928
1.0414423828125,-0.2356156226335093,0.989729487817362,-0.6403191802322864,-0.1307336390018463,0.1485514491796493,-0.1885813623666763
1.05147021484375,-0.1087466443143785,0.984879636633396,-0.6415162810623646,-0.1527870446443557,0.1499873548746109,-0.1721487343311309
1.061498291015625,-0.0216937992833554,1.070117102805525,-0.663981210848689,-0.1841558814048767,0.1819945573806762,-0.1721697598695755
1.0715263671875,-0.09807349380441,1.1221518259473144,-0.66992872107625,-0.223713219165802,0.2157144993543625,-0.2121753543615341
1.081552978515625,-0.3455778898153454,1.1175906555116175,-0.7979530434429645,-0.2547105550765991,0.2562139928340912,-0.2972119450569153
1.091581298828125,-0.6440992832928896,1.0946849962204694,-1.0828531041294336,-0.2643834054470062,0.2931760549545288,-0.4113549292087555
1.101609130859375,-0.8893826422534883,1.0741967733345923,-1.3789093496024607,-0.2442546933889389,0.3046662807464599,-0.5279728770256042
1.111637451171875,-0.8898891304709017,1.0002596496600658,-1.6780460254341365,-0.2071489542722702,0.2836016118526459,-0.617739737033844
1.1216650390625,-0.6758137605268508,0.7503663857512176,-1.8760750273972748,-0.1704993396997451,0.2126227915287017,-0.6618055105209351
1.131693115234375,-0.3776438108354806,0.3825074713490903,-1.895968645390868,-0.1464622020721435,0.1030493080615997,-0.6532458066940308
1.14172119140625,-0.1379297947061248,0.0118536472651176,-1.6791671384185551,-0.1523472666740417,-0.0199242793023586,-0.6098410487174988
1.151749267578125,0.0037248292094096,-0.2521966089477762,-1.2534475712001325,-0.1755695194005966,-0.1309037506580352,-0.5300866961479187
1.16177734375,0.1744932646075263,-0.4218850670894608,-0.8737146791309118,-0.2009491771459579,-0.1890666484832763,-0.4337082207202911
1.171805419921875,0.1866911952656693,-0.4977959750549867,-0.4604284770280122,-0.2207649946212768,-0.1969103366136551,-0.3494514524936676
1.1818330078125,0.0895398943400941,-0.4324200877703726,-0.154131408047676,-0.2353106588125229,-0.1527340859174728,-0.2887859940528869
1.191861328125,-0.0147842756232246,-0.3274523044075816,0.1319382809400558,-0.2566465735435486,-0.0805266425013542,-0.2421964555978775
1.20188916015625,-0.0264766313794069,-0.221448017603904,0.4527595498353242,-0.293041855096817,-0.0056792967952787,-0.2108896672725677
1.211916259765625,-0.0152868000515736,-0.1566062006633728,0.7005845561027526,-0.3344813287258148,0.0638156235218048,-0.1961754113435745
1.221944091796875,0.0214553326186724,-0.1671597251153551,0.8577999016404152,-0.3765893578529358,0.0995914712548255,-0.1965703666210174
1.23197216796875,0.1204384886139072,-0.2035144476369023,0.9472907874733208,-0.389414370059967,0.0970629006624221,-0.1991361081600189
1.242000244140625,0.1530943931501358,-0.2555112499210983,0.9251111043691634,-0.3662459254264831,0.0723080188035965,-0.2052230238914489
1.252028076171875,0.2426361323874443,-0.3072256550673395,0.9290484438180924,-0.3129999041557312,0.0184910204261541,-0.1964947432279586
1.262056396484375,0.3637658729348331,-0.3667620590761303,1.0014771356910466,-0.2469987720251083,-0.0339596718549728,-0.1771149188280105
1.272083984375,0.4178657849781215,-0.4033752681370824,1.155938214084506,-0.185115247964859,-0.073278047144413,-0.1516505628824234
1.2821123046875,0.4170956043232232,-0.3925210619717836,1.3817372665047645,-0.1421920210123062,-0.0793806761503219,-0.125696450471878
1.29214013671875,0.4441769418638199,-0.3450239091943949,1.6197154170185326,-0.126976653933525,-0.0471077486872673,-0.0962324291467666
1.302168212890625,0.385643139026314,-0.2661346978041343,1.791522767010331,-0.1315501034259796,0.0078758737072348,-0.0748448446393013
1.3121962890625,0.264713304965198,-0.2325959277524612,1.8310621657162904,-0.1405221670866012,0.0828081667423248,-0.0697571262717247
1.322224365234375,0.2160706719471141,-0.2109528540093451,1.722804620093107,-0.143676683306694,0.166233018040657,-0.0635429099202156
1.332251953125,0.181891412034817,-0.1201839110646396,1.5612930386662482,-0.1414692848920822,0.2404863089323043,-0.0579822808504104
1.34227880859375,0.141646513674315,-0.0487913755727,1.2710773359149694,-0.1329253315925598,0.315698504447937,-0.0489640198647975
1.35230712890625,0.1367124548056162,-0.0529086198994889,0.97148181039989,-0.1256318539381027,0.3593415915966034,-0.0459866262972354
1.3623349609375,0.1023260732149705,-0.0689372878269292,0.7397381703615188,-0.1265061646699905,0.3628306090831756,-0.0554597564041614
1.372363037109375,0.0379760035804472,-0.1465381399070844,0.4487380392342806,-0.1165806278586387,0.3468291759490967,-0.0802273452281951
1.382390869140625,-0.0910175200114492,-0.2049003307710401,0.0876075563043355,-0.0854184478521347,0.3259215056896209,-0.122502364218235
1.3924189453125,-0.2588670814213343,-0.2126701975875534,-0.2626163326859474,-0.0332957208156585,0.2886664271354675,-0.1605729907751083
1.402447021484375,-0.3190890017425641,-0.2485527360200881,-0.5354354949563741,0.0231726132333278,0.2241947501897812,-0.1890975832939148
1.41247509765625,-0.2305849349899217,-0.3817679780934006,-0.6699135235071182,0.0757858157157898,0.1259269267320633,-0.1938297301530838
1.4225029296875,-0.0645827641455456,-0.5884142209500074,-0.6762257753938437,0.1132479682564735,-0.0004480527713894,-0.1677834838628769
1.432531005859375,0.1769928263382986,-0.7855285922862589,-0.5461836834639311,0.1293029189109802,-0.1203825995326042,-0.101709172129631
1.442558837890625,0.4088421187082305,-0.8720413390912115,-0.3177180421829223,0.1259886175394058,-0.1982310563325882,0.0023535811342298
1.452587158203125,0.5912010751895607,-0.8530282302591949,-0.0224830499649047,0.0916284620761871,-0.2347415089607238,0.1269805431365966
1.462614990234375,0.6748640585865825,-0.7515870866525918,0.3593564589947461,0.0297552365809679,-0.2508816123008728,0.2464739084243774
1.472641845703125,0.6452364706292748,-0.5674109612140804,0.7143465394735335,-0.0436813347041606,-0.2330165803432464,0.3309951722621918
1.482669921875,0.4998192975761368,-0.331864640957117,0.950507411432266,-0.1036178991198539,-0.1814338117837906,0.3696893155574798
1.492697998046875,0.3061492580074816,-0.0320954576418735,1.027968836775422,-0.1328090280294418,-0.1312921345233917,0.3740919232368469
1.50272607421875,0.2581230398546904,0.2428723340298049,1.012955976560712,-0.1248669549822807,-0.0921034514904022,0.3641341030597687
1.51275390625,0.2958056317128241,0.4355194785578176,0.94460666295588,-0.0868300423026084,-0.0743997246026992,0.3453425168991089
1.522781982421875,0.2915701861001551,0.5688637903708964,0.935651203083992,-0.0313795618712902,-0.0654650852084159,0.3123869597911834
1.532809814453125,0.2196827614970505,0.6862463802792131,0.8930448180228471,0.0231444668024778,-0.0518646910786628,0.2624647915363312
1.542838134765625,0.1272703256616368,0.7939183810994028,0.8502987322300672,0.0623709633946418,-0.0321692824363708,0.2005670368671417
1.552865966796875,0.1448476112705655,0.8669629398483782,0.8369833235830068,0.0780499354004859,-0.0144052505493164,0.1461889147758484
1.56289404296875,0.1923879273362457,0.86367734230645,0.7863052757471799,0.0769077092409133,0.004988420754671,0.1025985553860664
1.572921875,0.2381424559636972,0.8230797397844493,0.6913333281546831,0.0664560496807098,0.0117286127060651,0.0764348283410072
1.582949951171875,0.2983445573396049,0.76680650229007,0.5327256514757871,0.0562904998660087,-0.0068927411921322,0.0674751549959182
1.59297802734375,0.3560146742861718,0.7387306007541715,0.3942465705901384,0.049623005092144,-0.0398214980959892,0.0711471959948539
1.6030048828125,0.3269542186923325,0.7073257739912718,0.2874240262061357,0.0472474656999111,-0.0698294714093208,0.0732470974326133
1.613033203125,0.2404709719765,0.6907444223508238,0.2183954981654882,0.0458368360996246,-0.0930641591548919,0.0729907304048538
1.623060791015625,0.2057064777884632,0.6814381032146513,0.1952420015931129,0.0415906943380832,-0.1229133978486061,0.0768717527389526
1.6330888671875,0.2454881242850795,0.6803336491040886,0.1936941876292228,0.0341749377548694,-0.1519876271486282,0.0871460884809494
1.643116943359375,0.2741958939837292,0.6645180211391299,0.1925122843682765,0.0231710206717252,-0.1613928377628326,0.0990072786808013
1.65314501953125,0.2425300781970843,0.6844921570230275,0.2187859587877988,0.0066564884036779,-0.1740428954362869,0.1158434078097343
1.663173095703125,0.3076381083257496,0.708383247154951,0.3145323978841304,-0.0156778469681739,-0.186507299542427,0.1415631622076034
1.673200927734375,0.3438182597316801,0.6749975487731397,0.3416308326900005,-0.0358614102005958,-0.1952336728572845,0.1642000377178192
1.683228759765625,0.3213841269424185,0.6280050575822591,0.3424538395106792,-0.0489841364324092,-0.1988795399665832,0.1904268413782119
1.693257080078125,0.3889474047360941,0.6513724161010235,0.364457581526041,-0.0624180026352405,-0.1947647929191589,0.2226127684116363
1.703284912109375,0.4803033903211355,0.7284818862013518,0.4048182334870099,-0.0827400460839271,-0.1793392300605774,0.2565630078315735
1.713313232421875,0.4938692665979265,0.7642484883703291,0.4363268859505653,-0.1032597124576568,-0.1554204225540161,0.2783019542694092
1.7233408203125,0.4420941077077761,0.7794044103175402,0.447929645460844,-0.1227386072278022,-0.1343162059783935,0.2856176495552063
1.7333681640625,0.432077119551599,0.8126660439282655,0.4418593856364488,-0.1383730918169021,-0.118987001478672,0.2881173491477966
1.74339599609375,0.3989170100865885,0.8047728795256465,0.3784574653059244,-0.1435223072767257,-0.1110851392149925,0.2854802906513214
1.753424072265625,0.3716574299022555,0.7980757930397987,0.2867892354339361,-0.1350343376398086,-0.097927413880825,0.2707815170288086
1.7634521484375,0.306954108116962,0.7863234689909965,0.1492570800095796,-0.1229465156793594,-0.0746207609772682,0.2498330771923065
1.773479736328125,0.2690541837137192,0.7413027893297374,0.0772457367658615,-0.1050698533654213,-0.0517596527934074,0.2324465960264206
1.783508056640625,0.2939540490293875,0.6419439318899065,0.0084925185352563,-0.0884075239300727,-0.0395666360855102,0.2208993881940841
1.793535888671875,0.2726753698855638,0.5594939775444567,-0.0585533112555742,-0.0866618901491165,-0.0370873995125293,0.2112539410591125
1.80356396484375,0.2296830542467534,0.5166507515201345,-0.0888783068925142,-0.1058683395385742,-0.0595879107713699,0.2006867825984954
1.813592041015625,0.2412771555265411,0.3841970318712294,-0.1355652392655611,-0.128238245844841,-0.0882125794887542,0.1912262588739395
1.823619873046875,0.1756236203443258,0.248652835393697,-0.2197597722560167,-0.1423101276159286,-0.1287570744752884,0.1921823322772979
1.83364794921875,0.1750027850322425,0.1872666387997567,-0.2878092261314391,-0.1462840139865875,-0.1951256543397903,0.2181216478347778
1.843676025390625,0.1355839804986491,0.1678114487560466,-0.3405897992044687,-0.1487777978181839,-0.2294330298900604,0.2509512305259704
1.853703857421875,-0.0092102018179371,0.1587283439164981,-0.2905015339553356,-0.1535470783710479,-0.2556921541690826,0.2910470366477966
1.86373095703125,-0.0173475502399727,0.1762679826624691,-0.1919698480546474,-0.1611373573541641,-0.2581998109817505,0.329758733510971
1.8737587890625,-0.1015357630874961,0.2503975236365571,-0.1662467932552099,-0.1766963750123977,-0.2371756285429,0.3485075831413269
1.883787109375,-0.2958759935352951,0.3596311477502807,-0.1551619201391935,-0.1953973621129989,-0.1850908547639846,0.3417104184627533
1.89381494140625,-0.4957541304964571,0.4011575920876115,-0.2182552129119634,-0.2115578800439834,-0.1139841452240943,0.3177221119403839
1.90384326171875,-0.6301869316659867,0.3926631007909774,-0.3259866888344288,-0.2195684015750885,-0.0579544305801391,0.2721676826477051
1.91387109375,-0.7668556751940399,0.3800059003243222,-0.4931850837260484,-0.2130258828401565,-0.009700084105134,0.2042562365531921
1.923898681640625,-0.8979884849701076,0.2278832382831722,-0.8204109589666128,-0.1723764538764953,0.0426683165132999,0.1104956567287445
1.933927001953125,-0.96818254965879,0.0055650137159973,-1.1898819847404956,-0.1110503450036048,0.0856824219226837,0.012134313583374
1.943954833984375,-0.950358650611341,-0.1542346126938238,-1.479552328568697,-0.0485672540962696,0.0843154191970825,-0.0645463466644287
1.953983154296875,-0.8209943848777562,-0.4472204377455636,-1.6189859337002035,0.0047681145370006,0.0175798404961824,-0.1074297577142715
1.964010986328125,-0.6848291338924318,-0.8306536821700632,-1.606782870209217,0.0467176921665668,-0.1025558859109878,-0.1153220310807228
1.974038818359375,-0.5783052071288227,-1.1369354074507951,-1.4673077640235423,0.0833752825856208,-0.2322460114955902,-0.0911164358258247
1.98406689453125,-0.5023853852044791,-1.2971139867082238,-1.2670137397378682,0.1129368990659713,-0.331185907125473,-0.037405002862215
1.994093994140625,-0.2093810015827417,-1.3053880401872098,-0.8727999023735523,0.1094002127647399,-0.372723639011383,0.0616209879517555
2.0041220703125,0.1448854407966137,-1.221721914985031,-0.3795861770749092,0.0650588497519493,-0.3554815351963043,0.1694278866052627
2.01414990234375,0.2715386940058321,-1.0883896224033087,0.1208867255717515,-0.0191703643649816,-0.3022453486919403,0.2658696472644806
2.024177978515625,0.187417153186351,-0.8411109249070287,0.6492021593898535,-0.1344711184501648,-0.2552536129951477,0.3289500772953033
2.0342060546875,0.0042277006976306,-0.5454247548554092,0.9793412917286156,-0.2328066080808639,-0.2409498244524002,0.3461260497570038
2.04423388671875,-0.2510603349268436,-0.3777549430597573,1.0122463669866324,-0.2742643058300018,-0.2461187541484832,0.3102820217609405
2.05426220703125,-0.6282529679287224,-0.2242190897524356,0.9114163410156964,-0.2448891252279281,-0.2593414485454559,0.2348608374595642
2.0642900390625,-0.8410910511627793,-0.1082774193674325,0.8007792067795991,-0.1520300209522247,-0.2683927118778229,0.1575103849172592
2.07431787109375,-0.850175982633233,-0.0634876989178359,0.7899076841533184,-0.0362902320921421,-0.2767101526260376,0.1083434298634529
2.084345947265625,-0.7374409993350506,-0.0957774918217212,0.9064654406100512,0.0681405737996101,-0.2630777060985565,0.0888163298368454
2.094373779296875,-0.6578820171907543,-0.1824034897428005,1.0618377886295318,0.1239894554018974,-0.2031408697366714,0.085835725069046
2.104402099609375,-0.5757195745497942,-0.2732818844113499,1.2530927664130926,0.1179579272866249,-0.1031530201435089,0.0936707407236099
2.114429931640625,-0.507974510448426,-0.3341321474976837,1.406943019431829,0.0617432594299316,0.0086979884654283,0.111272856593132
2.12445703125,-0.5498711398050189,-0.4200026508763432,1.339309160619974,-0.0071583129465579,0.1161693185567855,0.123853899538517
2.13448486328125,-0.6713190063908696,-0.5416652561914176,1.0148118335604668,-0.0431326739490032,0.1981031149625778,0.1287461966276168
2.14451318359375,-0.7222289632864296,-0.6156831169519573,0.5233247859239578,-0.0305505692958831,0.2460067272186279,0.1284250169992447
2.154541015625,-0.7820224838614463,-0.6272873377669602,0.0121744219183921,0.0250164959579706,0.2835555970668793,0.1301281899213791
2.16456884765625,-0.8574079797133803,-0.6271291515305638,-0.4168552927613258,0.0898388996720314,0.3019393980503082,0.125593364238739
2.174596923828125,-0.893184445689246,-0.7292029670175164,-0.6584773527354002,0.1389534920454025,0.2929498553276062,0.1243839114904403
2.184625,-0.7624623356059194,-0.9790859287280588,-0.770517924028635,0.1588220000267028,0.2351392805576324,0.1508714407682418
2.194653076171875,-0.4790803513322025,-1.237416473853588,-0.8475368663012981,0.1532865762710571,0.1440468579530716,0.2163712680339813
2.20468115234375,-0.2503901075150817,-1.4146831121645866,-0.8424562020361424,0.1311378628015518,0.016905153170228,0.3183564841747284
2.214708984375,-0.099529757027328,-1.4349763970002531,-0.7305980015724897,0.1114103123545646,-0.1123743802309036,0.4335537254810333
2.224737060546875,-0.0518809208195656,-1.3525257850676775,-0.6202694948941468,0.1098198667168617,-0.2062438875436782,0.5320501923561096
2.234764892578125,-0.1110669039554893,-1.132043836016953,-0.3852344120949506,0.1180171966552734,-0.2546474635601043,0.6094778776168823
2.24479296875,-0.2113987711459398,-0.742191262602061,-0.0083031334429979,0.118840642273426,-0.2659744322299957,0.6601179242134094
2.254820068359375,-0.3406411640655249,-0.3956086527235806,0.3116664870589971,0.1240404695272445,-0.2292789816856384,0.6785632371902466
2.264847900390625,-0.3663076663721352,-0.14098733737953,0.5645394243657589,0.12177624553442,-0.1614493429660797,0.6808308959007263
2.2748759765625,-0.3490658780615777,0.0772301008053124,0.8010790665090084,0.1141789481043815,-0.0794014036655426,0.6826446652412415
2.28490380859375,-0.2834261887416243,0.2859362718664109,0.9301374080985784,0.0925532802939415,-0.0077498531900346,0.6831312775611877
2.29493212890625,-0.2939180644005537,0.3868749093109742,0.9865326645374296,0.0616539195179939,0.044074036180973,0.6721592545509338
2.3049599609375,-0.3273400031395256,0.4211002733873203,0.9478045822143554,0.0483010932803154,0.0700190812349319,0.6533178687095642
2.31498828125,-0.4312655839730054,0.5225192416947335,0.8262070780247449,0.0583461783826351,0.0959737673401832,0.6306646466255188
2.325015625,-0.5555210553254932,0.6890845263145864,0.6897393369615078,0.0733621418476104,0.1118874922394752,0.604659914970398
2.335043701171875,-0.6515840860903263,0.7826238107554614,0.6083335579067468,0.088881991803646,0.1153427809476852,0.5768023729324341
2.34507177734375,-0.7759887566551565,0.774980383330211,0.556191282737255,0.0995088070631027,0.1196397915482521,0.5464780330657959
2.355099853515625,-0.9501539948847144,0.775639212565124,0.536302925440669,0.1042022183537483,0.1351426392793655,0.5212361812591553
2.3651279296875,-1.075793248745799,0.8265840946435928,0.535262476477027,0.0993328914046287,0.1639465987682342,0.5000137090682983
2.375154541015625,-1.1774697354782373,0.8367650777224451,0.4974076698571443,0.0856559127569198,0.1956560462713241,0.4855149388313293
2.385182861328125,-1.118134553129971,0.7625563705649226,0.4616939669191837,0.0633135959506034,0.2172811925411224,0.4814938306808471
2.395210693359375,-1.0918982881113886,0.6826100696034729,0.3572130172252655,0.0361645296216011,0.2255281955003738,0.4739075303077698
2.405239013671875,-1.1726418769303708,0.6243836522147059,0.2115688670158386,0.0198974106460809,0.219330757856369,0.4613065421581268
2.4152666015625,-1.2329328986987471,0.5864936281509697,0.0483323614925146,0.0034761722199618,0.197241261601448,0.4521265923976898
2.425294677734375,-1.1886436751171945,0.5372778348874301,-0.0923053587317466,-0.0113363303244113,0.1577234119176864,0.4525942504405975
2.43532275390625,-1.0865999625075609,0.456049129432626,-0.1429763923048973,-0.0287729557603597,0.0999912619590759,0.4742424488067627
2.445350830078125,-0.970459481614828,0.3935720323294401,-0.1433838040620088,-0.0470694005489349,0.0389649234712123,0.5072643160820007
2.45537890625,-0.9332174000658094,0.3623623262798413,-0.0985685107797384,-0.0546055808663368,-0.0173483099788427,0.5330628752708435
2.46540673828125,-0.9619429976820946,0.376113495995663,-0.0727753133535385,-0.0550902783870697,-0.0622513368725776,0.5540520548820496
2.4754345703125,-0.8971979191143065,0.440793729166314,0.0185223296403884,-0.0495738126337528,-0.0855620428919792,0.575204074382782
2.485462890625,-0.8241193119652569,0.4404882068810984,0.1533206761866807,-0.041862629354,-0.0885644853115081,0.6076512336730957
2.49549072265625,-0.7373232181742787,0.4813607173543423,0.3239391086548566,-0.0403684191405773,-0.0736214369535446,0.6459910273551941
2.505517578125,-0.6923904359921813,0.5715073636822402,0.4699859944462776,-0.0516895167529583,-0.0349653922021389,0.6763699650764465
2.515545654296875,-0.7237441901549696,0.6404477750480174,0.5804132853239774,-0.0714585408568382,0.0071768453344702,0.6830629110336304
2.52557373046875,-0.8673421484243125,0.7463752702884375,0.5805623384058475,-0.0858358815312385,0.0567779541015625,0.656491219997406
2.535601806640625,-0.9203058960445224,0.789979288084805,0.5312520717918873,-0.0827149301767349,0.0992769449949264,0.6206791996955872
2.545629638671875,-0.9165393831178544,0.7886750005532056,0.3996013756215572,-0.0619604103267192,0.1303578317165374,0.5862628221511841
2.555657958984375,-0.8605513192404061,0.795181679033488,0.2519265963673591,-0.0267098154872655,0.1494185775518417,0.560219407081604
2.565685546875,-0.8104394539199768,0.7411674725122749,0.1010913072556257,0.0105531327426433,0.1567931324243545,0.544000506401062
2.5757138671875,-0.7594679030302911,0.6702268272399902,-1.22749596834e-05,0.0390577912330627,0.1501741111278534,0.5358783602714539
2.58574169921875,-0.6409123238198459,0.5965435321960598,-0.0253244108706712,0.0544846877455711,0.1428799778223037,0.544601559638977
2.595769775390625,-0.5800662254519761,0.5086480257958174,-0.030022797819972,0.0538977980613708,0.1271143853664398,0.557421088218689
2.6057978515625,-0.6332064256176352,0.4732178159743547,0.0277057530492544,0.0413894653320312,0.123078353703022,0.5658822059631348
2.61582568359375,-0.6641530602842569,0.4638770100466907,0.0242313549369573,0.017803244292736,0.1235200762748718,0.5755220651626587
2.625853759765625,-0.6693607119299471,0.415864528158307,-0.0052735564887523,0.0047942358069121,0.1157116889953613,0.5820265412330627
2.635880615234375,-0.7448171541262417,0.3836622674074024,-0.1234638825833797,0.007881392724812,0.1000000983476638,0.5848742723464966
2.645908935546875,-0.7015552277658135,0.3529249646425247,-0.2365782205879688,0.0270415060222148,0.0770114213228225,0.5981493592262268
2.6559365234375,-0.6815193517573177,0.3170323249410837,-0.2324181782990693,0.0367978811264038,0.0377481803297996,0.6183497309684753
2.665964599609375,-0.6969118589393795,0.2552934424519539,-0.1725561225324869,0.0316041819751262,0.0040189768187701,0.6457509398460388
2.67599267578125,-0.7260778207343072,0.2369732112549245,-0.1193283902138471,0.0192844811826944,-0.0376098528504371,0.6808907389640808
2.686020751953125,-0.757117394381389,0.308002484658733,-0.0556914920836687,0.0124918213114142,-0.07117260992527,0.7158492803573608
2.696048828125,-0.9055016370791942,0.4707911002840846,-0.0705406861692667,0.0102951768785715,-0.0568681843578815,0.7298756837844849
2.706076904296875,-1.1138771148812026,0.612298735210672,-0.1621802744686603,0.0082685109227895,-0.0006957249715924,0.7274413108825684
2.7161044921875,-1.0680853777822106,0.6387807186186313,-0.1635954019635915,-0.0012754155322909,0.0287388116121292,0.728695809841156
2.7261328125,-1.0179480857595802,0.5989377338562161,-0.2176204221397638,-0.0246483832597732,0.0961769670248031,0.7071599364280701
2.73616064453125,-1.2796037567198275,0.5617531546480954,-0.3076385467171669,-0.0404622629284858,0.1579206883907318,0.6646110415458679
2.74618896484375,-1.46499042699188,0.4895945849534124,-0.5248778605848551,-0.0362938828766346,0.2062288373708725,0.6180073022842407
2.756216796875,-1.5135148039251565,0.4838326604258269,-0.7877788554310798,-0.0147818922996521,0.2134089469909668,0.5800684094429016
2.76624365234375,-1.513311244177073,0.4038954195536672,-1.002865959700942,0.0151584297418594,0.1754389256238937,0.5567201972007751
2.776271728515625,-1.498672039580345,0.2048516145247965,-1.18256260163784,0.0667228922247886,0.0906840413808822,0.5484290719032288
2.786299560546875,-1.4070695684209464,0.0174089615710079,-1.3216133449316023,0.1225046664476394,-0.0232973843812942,0.5607141852378845
2.796327880859375,-1.2557324672669172,-0.1332891840923577,-1.1871271330744029,0.1430849432945251,-0.110832080245018,0.6061274409294128
2.80635546875,-1.1707627121202646,-0.291249575843662,-0.8757949925363063,0.1225407794117927,-0.1517978906631469,0.6736907958984375
2.8163837890625,-0.9861334360867738,-0.4454210967060178,-0.4118903638303279,0.0618330538272857,-0.1699449867010116,0.7736079692840576
2.82641162109375,-0.7283244306173176,-0.4838475657340139,0.0547767153263092,-0.0161392409354448,-0.1844413727521896,0.8835110068321228
2.836439697265625,-0.5886962527617812,-0.5006462133869528,0.3610059797674417,-0.081065647304058,-0.1744166016578674,0.9838660359382628
2.8464677734375,-0.5751710007563233,-0.463850779626891,0.5754916110128164,-0.1190918534994125,-0.1566485315561294,1.069918155670166
2.856495849609375,-0.533746592021361,-0.342854748461768,0.7251748074799775,-0.1344337910413742,-0.1452418863773346,1.1325440406799316
2.866523681640625,-0.3439945296140387,-0.2881169769063592,0.8630056535899638,-0.1330739855766296,-0.1279291957616806,1.1853619813919067
2.8765517578125,-0.1978484577644616,-0.2819140306130051,1.0336825382471084,-0.1223119422793388,-0.1057827398180961,1.2276248931884766
2.886578857421875,-0.1358500475563109,-0.2013795545000583,1.2061176647484302,-0.1168284937739372,-0.0861302092671394,1.2543044090270996
2.896606689453125,-0.1710545588631183,-0.1160528756745159,1.2967670729666947,-0.1086051762104034,-0.0782948061823844,1.2571663856506348
2.906634521484375,-0.3057921151328832,-0.0906456088259816,1.2357996863067149,-0.0822984650731086,-0.0787259712815284,1.227678298950195
2.91666259765625,-0.451666713097319,-0.1061531937550753,1.073230704781413,-0.0168583374470472,-0.0928674563765525,1.1711524724960327
2.926690673828125,-0.5377691620683297,-0.0474062596235424,0.9463689964532852,0.0672448277473449,-0.0942240729928016,1.1136759519577026
2.93671875,-0.6051717694075778,0.0896368701748549,0.8897451919555663,0.1461066901683807,-0.0670792236924171,1.057428002357483
2.946746826171875,-0.7214151626855134,0.0878322319056838,0.8822703260302543,0.2114657312631607,-0.0070971180684864,1.0039503574371338
2.9567744140625,-0.779861141109094,0.0072130001187324,0.8855302046090364,0.2492411136627197,0.0729067474603653,0.9647229313850404
2.966802734375,-0.7541293915465473,-0.0473629319384694,0.8136024479955435,0.2644312679767608,0.1574192494153976,0.9446226954460144
2.97683056640625,-0.743279496230185,-0.1456827286541462,0.6371025562733411,0.2631264328956604,0.2270817160606384,0.9464185833930968
2.98685888671875,-0.7194919395379722,-0.247115104432404,0.4095306489616632,0.2481211125850677,0.2705770134925842,0.9582086801528932
2.99688671875,-0.691428605222702,-0.3349266588762402,0.1188023205131292,0.2336765825748443,0.2946265637874603,0.9748489856719972
3.006914794921875,-0.6896477131552994,-0.395642774188891,-0.1571902110964059,0.216757521033287,0.2851347923278808,0.9992430210113524
3.016941650390625,-0.737384666037932,-0.4435335293937474,-0.3824386438965797,0.2003592848777771,0.2434111088514328,1.023855209350586
3.0269697265625,-0.800365365281701,-0.4915383394323289,-0.5887813006967306,0.193751186132431,0.165142148733139,1.0435620546340942
3.036997802734375,-0.8663878433741629,-0.5470203534837812,-0.7108902615398168,0.2042164802551269,0.0538017675280571,1.0602853298187256
3.047025634765625,-0.8003910111796111,-0.5582893509950488,-0.7526689636051654,0.2372474074363708,-0.0746970847249031,1.0903780460357666
3.0570537109375,-0.676653572351858,-0.5249768639799207,-0.6325070451766253,0.2783229947090149,-0.2035317569971084,1.1427584886550903
3.06708154296875,-0.5771069007223472,-0.4316745301000774,-0.3115431529402733,0.3084505498409271,-0.2937228977680206,1.1982182264328003
3.077109619140625,-0.5953376635376364,-0.2797391342593356,0.1435217512279749,0.3161207139492035,-0.32683065533638,1.2428025007247925
3.0871376953125,-0.687136680182442,-0.0752312186056748,0.6040653790682554,0.3058252036571502,-0.3249808251857757,1.2610100507736206
3.097165771484375,-0.7694612545825541,0.0944816433249041,0.925852278125286,0.2934932708740234,-0.2949478924274444,1.2608630657196045
3.10719384765625,-0.7531383346825837,0.2571669812388718,1.1481716717362402,0.2851040661334991,-0.2411073148250579,1.260616898536682
3.1172216796875,-0.7221811055567116,0.4302518038205802,1.3194459377646446,0.2810490727424621,-0.175696462392807,1.265224814414978
3.12724951171875,-0.6747019998926669,0.562965014655888,1.4271610470741989,0.2723698019981384,-0.1041008383035659,1.2686357498168943
3.13727783203125,-0.6454507709670811,0.6497279368296265,1.4740180753171443,0.2620999813079834,-0.0525302663445472,1.2687208652496338
3.1473046875,-0.6623073593523353,0.723977560519427,1.4762842666834592,0.2438200414180755,-0.0140779465436935,1.2585108280181885
3.157332763671875,-0.711775446876511,0.81450648416318,1.3609183503597977,0.2304367274045944,0.0117739411070942,1.2395257949829102
3.167360595703125,-0.7508044849075377,0.8751823405306786,1.2519535332500933,0.2270537167787552,0.0166675001382827,1.2180732488632202
3.177388916015625,-0.7846279171194881,0.968287909729406,1.1323194380879402,0.2327921539545059,0.0147302653640508,1.1910748481750488
3.187416748046875,-0.8857516653399914,1.0436379689417778,0.9803414086818696,0.2462480366230011,0.0197916030883789,1.1570532321929932
3.19744482421875,-0.962285965900868,1.1070455883607269,0.861121739539504,0.2621996700763702,0.0285438634455204,1.1155120134353638
3.20747265625,-1.00011629566662,1.15087625451982,0.8033803291887044,0.2653549909591675,0.0434802025556564,1.0798085927963257
3.21750048828125,-1.059572327915579,1.147596209935844,0.7578782226860523,0.2512142062187195,0.0658516660332679,1.0474979877471924
3.22752880859375,-1.1000437467746436,1.0895797820359467,0.6631114422768354,0.2282945215702057,0.0897655189037323,1.0167571306228638
3.237556640625,-1.0997266436494886,1.0419492852024734,0.5304407554090023,0.203171506524086,0.0985853597521781,0.9977115988731384
3.247584716796875,-1.0506593920111655,0.9660425419554114,0.3751145846188068,0.1817996501922607,0.0922600924968719,0.9975560903549194
3.25761279296875,-0.9836537481002507,0.9010822132017464,0.2219593281269073,0.1575913727283477,0.0751875862479209,1.0027484893798828
3.267640625,-0.9724857998106629,0.8337244679175316,0.0983645126402378,0.1259639412164688,0.0550506301224231,1.012899398803711
3.277667724609375,-0.9928948930457234,0.7958153007619082,0.0221381820499897,0.082192376255989,0.0261841937899589,1.0224615335464478
3.28769580078125,-1.0081853280927986,0.7438098767798393,-0.0492196657210588,0.0319824665784835,-0.0146479252725839,1.0250988006591797
3.297723876953125,-1.0301906044781208,0.6624353696461767,-0.1540250250637531,-0.0029317231383174,-0.067517839372158,1.0197834968566897
3.307751708984375,-0.9550358486421404,0.5764692238733172,-0.2405208207339048,-0.0181271880865097,-0.1216929256916046,1.0229945182800293
3.317779541015625,-0.7822494244851171,0.5307022924220189,-0.263377964708209,-0.0176569279283285,-0.1741876751184463,1.0447094440460205
3.32780859375,-0.6271539206456392,0.497709758076258,-0.2026905640333891,-0.0158060304820537,-0.2046459764242172,1.0678144693374634
3.33783642578125,-0.5339636688381433,0.4976410767542198,-0.0367372007668018,-0.0311806537210941,-0.2124950587749481,1.0861291885375977
3.347864501953125,-0.4775994651246815,0.5426467049768194,0.1186947684854269,-0.0625356435775756,-0.2029095441102981,1.0861412286758425
3.357892578125,-0.47597975496836,0.5994584697946905,0.2700403452068567,-0.1088576689362526,-0.1989632695913314,1.067071557044983
3.36792041015625,-0.4940577018421143,0.6203380300857126,0.2978758621156215,-0.1440446823835373,-0.1894395351409912,1.0373462438583374
3.377948486328125,-0.4488765709221363,0.582845371309109,0.1730290007412433,-0.15411277115345,-0.1875703185796737,1.0085176229476929
3.3879765625,-0.3878843420818448,0.5420427842669189,0.0505021067470312,-0.1399138569831848,-0.1977582424879074,0.986548662185669
3.398003662109375,-0.2940035507269203,0.4899023357283323,-0.0332101956844329,-0.1121522858738899,-0.2199113219976425,0.976645290851593
3.40803125,-0.283115917216055,0.4233181320998817,-0.0582061052531003,-0.0874725058674812,-0.2346788197755813,0.9729602336883544
3.418059326171875,-0.3177056210927665,0.3754596717294305,-0.0081435589671134,-0.0798654556274414,-0.2332590967416763,0.9764477014541626
3.42808740234375,-0.2947439207654446,0.3443107924889773,0.0686421590715646,-0.1015345305204391,-0.2304188311100006,0.9925302267074584
3.438115478515625,-0.217730714113824,0.2840013034821488,0.1310831254154443,-0.1421076506376266,-0.2416981160640716,1.0303486585617063
3.4481435546875,-0.2243643069094046,0.2893583735358901,0.1600906087130308,-0.1801474392414093,-0.2559510767459869,1.0669461488723757
3.458171630859375,-0.529814732465148,0.4015640174640342,0.0226057995617389,-0.1775170862674713,-0.2219772040843963,1.07682204246521
3.46819921875,-0.9754192959792912,0.6127081562617793,-0.2686123582303524,-0.1391744911670684,-0.1394596844911575,1.05311119556427
3.4782275390625,-1.3356339792385696,0.7926745185181499,-0.5645464386284351,-0.0819754153490066,-0.0375398658215999,1.0120221376419067
3.48825537109375,-1.487251066377759,0.7974301155474036,-0.7665063502997159,-0.0324214473366737,0.0559458769857883,0.9605854153633118
3.49828369140625,-1.6026511772319674,0.6433776910200715,-0.9452052133709192,-0.0019896305166184,0.1338825672864914,0.8993780016899109
3.5083115234375,-1.6715741990715265,0.3969092139281332,-1.1919576219707726,0.0048182080499827,0.1846610605716705,0.8443142175674438
3.51833935546875,-1.580202614058554,0.030184308524616,-1.4446487729698418,-0.0081441663205623,0.1714975535869598,0.8174741864204407
3.528366455078125,-1.3689445665575564,-0.3659839143104851,-1.6605255663126706,-0.0260765608400106,0.0770546719431877,0.8297327160835266
3.53839453125,-1.0808085926897824,-0.7230423254959285,-1.7786960186630487,-0.0434202663600444,-0.0831774994730949,0.8802480697631836
3.548422607421875,-0.8259123328618705,-1.005387660198286,-1.731820285719633,-0.0457811579108238,-0.2633901536464691,0.952472686767578
3.5584501953125,-0.6844704566478729,-1.1150599679902196,-1.569023925179243,-0.029986260458827,-0.4265001714229584,1.0350319147109983
3.568478515625,-0.5641605811160058,-1.0176904577367007,-1.1890882040143012,-0.0193450674414634,-0.5271772742271423,1.1022261381149292
3.57850634765625,-0.5605102053822949,-0.7825568829990923,-0.6250275030761957,-0.0141962431371212,-0.5478919744491577,1.148789405822754
3.588534423828125,-0.6927787046574055,-0.529267181584984,-0.0542675967603921,-0.0231194291263818,-0.5001758337020874,1.1703399419784546
3.5985625,-0.7392730370678007,-0.3045031347682699,0.524379847934842,-0.0556687712669372,-0.4205051362514496,1.1751763820648191
3.608590576171875,-0.7296543640468269,-0.1147459212617948,1.0291986708313223,-0.1019308045506477,-0.3330109715461731,1.1619971990585327
3.618618408203125,-0.7707420151080936,-0.0601333104560151,1.284753979089856,-0.1326344609260559,-0.2448055446147918,1.1251972913742063
3.628646484375,-0.8692503201331943,-0.0588980695726349,1.3366741359412668,-0.1290802061557769,-0.1613753736019134,1.077114462852478
3.63867431640625,-0.9014344607055188,-0.0225172444954514,1.2715537212550638,-0.0972056165337562,-0.0909129306674003,1.0318186283111572
3.64870166015625,-0.8708442382611333,-0.0048487552054226,1.1497434510976074,-0.0435365326702594,-0.0377778001129627,0.9967145323753356
3.6587294921875,-0.8677402808964252,-0.0060036243289709,1.0600701944351196,0.0117914602160453,0.0042132269591093,0.969205915927887
3.66875732421875,-0.9779013220533728,-0.0247991814201697,0.966004255771637,0.0570313744246959,0.0508446469902992,0.9325984120368958
3.678785400390625,-1.137180687448755,-0.081400262629427,0.9310767347753048,0.0818518549203872,0.0974253565073013,0.8866040110588074
3.6888134765625,-1.2627400079414248,-0.133958863514848,0.8999182109236716,0.0860825553536415,0.1306395083665847,0.840157151222229
3.698841552734375,-1.3527677771300075,-0.215092255369015,0.7926619512975216,0.092099130153656,0.1605554223060608,0.7920769453048706
3.708869384765625,-1.4191136419579389,-0.3389255557866766,0.5516887106209993,0.1150925979018211,0.1891314089298248,0.7531614899635315
3.7188974609375,-1.4910050120837983,-0.4402417578393593,0.2453331894516944,0.1557876169681549,0.2277222126722335,0.7293126583099365
3.72892529296875,-1.475388340757042,-0.5017524210631847,-0.0587193154722452,0.1934122294187545,0.2701050937175751,0.7265427112579346
3.73895361328125,-1.4982742724344134,-0.5527371602280066,-0.1972422354996204,0.1989001035690307,0.2897520363330841,0.729578971862793
3.7489814453125,-1.5430856201939285,-0.6753672588683665,-0.2727636326909065,0.1692652404308319,0.2729661464691162,0.7359894514083862
3.759009521484375,-1.5130698366366326,-0.8488658498827367,-0.3714735977679491,0.1215436235070228,0.2215213626623153,0.746507465839386
3.769037353515625,-1.3121854452423751,-0.9870251242294908,-0.4625181427836418,0.0852971971035003,0.1339475661516189,0.7736479640007019
3.779064697265625,-1.0965046128630638,-1.0551669325634836,-0.5049912568539381,0.0696719288825988,0.0084527619183063,0.8293905854225159
3.789092529296875,-0.7844657122951001,-1.086313765977323,-0.4940992759615182,0.0756917372345924,-0.1250576227903366,0.9050142765045166
3.79912060546875,-0.56706426666826,-1.046824782284349,-0.2899824785172939,0.0917545557022094,-0.2310009896755218,0.9708747267723083
3.8091484375,-0.5400287410307675,-0.87085972809121,0.0947854851096868,0.0971253514289856,-0.2858032584190368,1.0104917287826538
3.81917626953125,-0.6062117434471845,-0.5898978105712681,0.5933505083084106,0.0819252803921699,-0.283869057893753,1.011354684829712
3.82920458984375,-0.6956513374842703,-0.3542260373037308,1.0148585953116416,0.0594580583274364,-0.2365827709436416,0.9891936779022216
3.839232421875,-0.6707027011234313,-0.1970246472261846,1.319732353490591,0.0434251800179481,-0.1643111407756805,0.956750214099884
3.849260498046875,-0.6228760241307317,-0.0115607104668393,1.5091910955071448,0.0389508008956909,-0.0765599757432937,0.918498158454895
3.859288330078125,-0.6449311310071498,0.1430481423668563,1.5352227778643368,0.0527104921638965,0.0232561603188514,0.8749236464500427
3.86931640625,-0.6894742562845348,0.2939354173941537,1.491547886788845,0.0733382701873779,0.1125551462173461,0.824557900428772
3.879344482421875,-0.7461234874844551,0.3897292027635499,1.3897270962148904,0.0844485238194465,0.1841699928045272,0.7672183513641357
3.88937255859375,-0.8532811090417206,0.4378845271887257,1.252017830657959,0.0899748504161834,0.2332659065723419,0.7033038139343262
3.899399658203125,-1.0052100386090577,0.4492279416430741,1.0485948606967923,0.0975768864154815,0.2465134710073471,0.6345555186271667
3.909427490234375,-1.1434754767440258,0.4279000165300443,0.8130167570620774,0.1130216270685195,0.2533577978610992,0.5813084840774536
3.919455322265625,-1.2550330868259072,0.3898752601707353,0.5575321759521961,0.1264605075120926,0.2538389265537262,0.5392002463340759
3.929483642578125,-1.2894661023035645,0.3682820351850241,0.3675216452717781,0.1468057185411453,0.2375867217779159,0.5113617181777954
3.939511474609375,-1.3346478908106685,0.3200977038610726,0.1700964544206857,0.15802101790905,0.2309095859527588,0.4975406229496002
3.94953955078125,-1.3687828001245856,0.2804610553257167,0.0650637160629034,0.1550646424293518,0.2240985482931137,0.4949477612972259
3.9595673828125,-1.3970508632317185,0.2325714143657125,0.0243809925407171,0.132400244474411,0.2117133140563964,0.4981060922145843
3.96959521484375,-1.3819072162441908,0.146994103513658,-0.0253407774835824,0.0941785648465156,0.1833479851484298,0.5026257634162903
3.982756591796875,-1.3328943251416083,0.1282785893887281,-0.0566173747569322,0.0369474254548549,0.1258617937564849,0.5103353261947632
3.992784423828125,-1.2594687311857935,0.1191811089639551,-0.0864823516666889,0.0059723099693655,0.0686085075139999,0.5128174424171448
4.0028125,-1.1456321433212608,0.1698349904729053,-0.1125683945596218,-0.0136799542233347,0.00618960801512,0.5159416198730469
4.01284033203125,-1.037895991223678,0.2442619069583713,-0.0568570287317037,-0.013988615013659,-0.0480880104005336,0.5040604472160339
4.02286865234375,-1.0166460632503032,0.3214052793283015,0.0495984359055757,-0.0151478881016373,-0.0766416192054748,0.4760192334651947
4.032895263671875,-1.0415720493879168,0.3961926631566136,0.2405570610910654,-0.0209526810795068,-0.0687775686383247,0.4398271143436432
4.04292333984375,-0.980353391380608,0.4165376051142812,0.3986187943249941,-0.0356011316180229,-0.0454062037169933,0.3993279039859772
4.052951416015625,-0.8739598860636353,0.425502344271168,0.5022469265818595,-0.0509386360645294,-0.0183335226029157,0.3642390072345733
4.0629794921875,-0.7885681061126292,0.4641868066482246,0.5107441212922335,-0.066543161869049,0.0086909048259258,0.3332182466983795
4.073007568359375,-0.735521867840737,0.5136162426624447,0.4729004205882549,-0.0703631117939949,0.0302120670676231,0.3029173910617828
4.08303515625,-0.7792077187016606,0.5427823871204629,0.3971130659371614,-0.0657989904284477,0.0488813631236553,0.2597433030605316
4.0930634765625,-0.8799263932526111,0.5807736065363511,0.3077718177080154,-0.0579954460263252,0.0646770969033241,0.2022190243005752
4.10309130859375,-1.010030663698539,0.6007994360748679,0.1941068600833415,-0.0476200357079505,0.0791162252426147,0.1413546055555343
4.11311962890625,-1.037536291065812,0.563105372974649,0.0643248803943395,-0.0439626611769199,0.0867113545536995,0.0890818983316421
4.1231474609375,-0.9777167592667044,0.5006224671851843,-0.0534662172496318,-0.0478934869170188,0.0982215404510498,0.0520413219928741
4.133175537109375,-0.955660191085562,0.3810103646591306,-0.2022258691310882,-0.0550088696181774,0.1148846670985221,0.0273141283541917
4.143203369140625,-0.9416775507014244,0.267168771825917,-0.378954308912158,-0.0552461594343185,0.1234035864472389,0.0213800743222236
4.15323046875,-0.8504482967685908,0.2009384962016716,-0.5669260272413492,-0.0519992746412754,0.1100878417491912,0.029651690274477
4.163258544921875,-0.8205899687953293,0.2367552211226895,-0.7390449274003505,-0.0357915423810482,0.1110556349158287,0.0230619646608829
4.173286376953125,-0.980537808036804,0.2762573930907994,-1.0177519786655902,-0.0078902076929807,0.1466533988714218,-0.0244211461395025
4.183314453125,-1.285192370507121,0.296259257231839,-1.2866846548914908,0.0211987011134624,0.2118510454893112,-0.1019332483410835
4.19334228515625,-1.4489381407268345,0.2973217718968168,-1.5650304716289043,0.0424500443041324,0.2562293410301208,-0.1841700673103332
4.203370361328125,-1.4528595519542693,0.2119192513560876,-1.737124821868539,0.0429334081709384,0.2416362762451172,-0.2486995160579681
4.2133984375,-1.3473061507232489,0.0325580884512513,-1.887801705548167,0.038984190672636,0.1744067519903183,-0.2821658849716186
4.223426513671875,-1.066553638170287,-0.2348010548476129,-2.040604495340585,0.0336157903075218,0.0429230146110057,-0.2767349183559418
4.233454345703125,-0.6289836933560669,-0.4218232173670083,-2.052396639943123,0.0291089247912168,-0.146049827337265,-0.2211832255125045
4.243482421875,-0.1109057768433354,-0.630327070789039,-1.9672189411342145,0.0436773635447025,-0.3520232141017914,-0.1238087564706802
4.25351025390625,0.3640305882856249,-0.7935838884480297,-1.694481027406454,0.0715059116482734,-0.529377818107605,0.0038861073553562
4.26353857421875,0.6326745837632566,-0.7064007681008428,-1.1838602402329443,0.0838765650987625,-0.6274612545967102,0.1296807825565338
4.273565673828125,0.7459916047330946,-0.4610249816164374,-0.400066070523858,0.0565136633813381,-0.6249513626098633,0.2232825607061386
4.283593505859375,0.7195481997698545,-0.2269397834205999,0.4185480681538581,0.0028514992445707,-0.5432500839233398,0.2702205181121826
4.293621337890625,0.5903888089586049,0.0219913209252059,0.9883014277756214,-0.0630099847912788,-0.3949145078659057,0.2698083221912384
4.303649658203125,0.456648337434791,0.3126411407774314,1.3048077560812237,-0.1228085979819297,-0.2070431411266327,0.2386970072984695
4.313677490234375,0.3498937802530825,0.5614443809598684,1.4220587554991244,-0.1608570218086242,-0.0152388243004679,0.1916610598564148
4.32370556640625,0.2479747900016605,0.6216917097169905,1.336813836672902,-0.1762144118547439,0.1466126590967178,0.1335223913192749
4.3337333984375,0.2130965149745345,0.4884520273221656,1.1030682091623545,-0.1742931902408599,0.2478413879871368,0.074828915297985
4.34376123046875,0.2756546779572963,0.2732412601400166,0.8182441363215446,-0.1635550558567047,0.2832054793834686,0.0304878167808055
4.363190673828125,0.4746784631114453,-0.0686773765154182,0.3904536080479621,-0.1402413994073867,0.1968891620635986,-0.0239404812455177
4.373218505859375,0.3884102291194722,-0.2431002793004736,0.2200438498944044,-0.1152401641011238,0.1104642450809478,-0.0552778951823711
4.38324658203125,0.3111987599493935,-0.3982914620667696,0.0896732566624879,-0.0764413699507713,0.0168411917984485,-0.0857453271746635
4.3932744140625,0.2540632430698722,-0.4630534917693585,0.0654091684997081,-0.0321748331189155,-0.0637135729193687,-0.1069797798991203
4.40330224609375,0.2409483619635924,-0.5480756346903741,0.103653266698122,0.0124398134648799,-0.1111124753952026,-0.1092035993933677
4.41333056640625,0.2685235839683562,-0.6379726171061396,0.2179652900546789,0.047371432185173,-0.1259859651327133,-0.0865576788783073
4.4233583984375,0.3134182260971516,-0.6795487823367119,0.4217033173143863,0.0543527789413929,-0.1062390878796577,-0.0441289655864238
4.433386474609375,0.2994655789924785,-0.6799637198131531,0.6494540883243084,0.0272375401109457,-0.0609126165509223,0.0043650669977068
4.443414306640625,0.2957493349483236,-0.720630003657192,0.8010626998960971,-0.0163633562624454,-0.0161119699478149,0.0441711656749248
4.453441650390625,0.2557277056833729,-0.7772529313720762,0.7976286337941885,-0.0559941232204437,0.0241286605596542,0.0757266879081726
4.463469482421875,0.2305300995301455,-0.8000080032113939,0.6900362740814685,-0.0729067847132682,0.0368069633841514,0.105070024728775
4.47349755859375,0.294680975064449,-0.7741890868220478,0.5916729304850101,-0.0668233260512352,0.0179496519267559,0.1366889476776123
4.483525390625,0.3122774220315739,-0.7421094295375049,0.4823661680698394,-0.036336563527584,-0.0120614040642976,0.1595380008220672
4.493553466796875,0.2611543338419869,-0.71868924485296,0.4190302987128496,0.0035402798093855,-0.0466473437845706,0.1674441248178482
4.50358154296875,0.245308420336619,-0.6812229260940105,0.4636345795929432,0.0446939542889595,-0.0776897445321083,0.1759256869554519
4.513609619140625,0.2921373184636235,-0.5925794874032959,0.6037351242005825,0.0660101547837257,-0.0985316410660743,0.1894100755453109
4.523637451171875,0.328431488170661,-0.5244807510260492,0.7562649422705173,0.0760886818170547,-0.1030395701527595,0.1969843655824661
4.533665771484375,0.2889977052636444,-0.4469683626806363,0.8893664217710494,0.0730902254581451,-0.0861660465598106,0.1969982087612152
4.543693359375,0.302987250312604,-0.3427554528057575,0.9960323142886162,0.0670879557728767,-0.0677512511610984,0.1976455599069595
4.553721435546875,0.3267223461652174,-0.2224205889631062,1.0636790325820444,0.0629363507032394,-0.05270491912961,0.1994980573654174
4.56374951171875,0.2953375027444213,-0.1285371307270601,1.0651005898177623,0.0684286803007125,-0.0387734957039356,0.1944160014390945
4.573776611328125,0.2866003983309492,-0.013252901337482,1.0369774881392717,0.077995017170906,-0.0249849818646907,0.1870941668748855
4.583804443359375,0.3515593023125082,0.103618962569721,1.0393091459572317,0.0861078649759292,-0.0151839051395654,0.1887069046497345
4.593832275390625,0.4417296583095565,0.2039356687236577,1.0610030913710593,0.0873347818851471,-0.0032811728306114,0.1924635618925094
4.603860595703125,0.4740054957533255,0.3340274815468117,1.0789794775664805,0.071105346083641,0.012207131832838,0.1977760791778564
4.613888427734375,0.5018650511248037,0.4378681605758145,1.073743915000558,0.0464572608470916,0.024331972002983,0.187215581536293
4.623916748046875,0.4485871960541233,0.5184686145970597,1.0126567013531922,0.0275904163718223,0.0342760980129241,0.1585044115781784
4.6339443359375,0.3515740614902228,0.6052612012566998,0.8991542408138513,0.0176818612962961,0.0303141120821237,0.1164437755942344
4.643972412109375,0.3575521129865199,0.6800356890708208,0.7169155131787062,0.0274775587022304,0.0079401582479476,0.0785734504461288
4.65400048828125,0.4925912094861269,0.7305730132617055,0.5522574504196643,0.0460531078279018,-0.0274481941014528,0.0486176833510398
4.664028564453125,0.558973899193108,0.741016738929972,0.4905944827109575,0.0608068890869617,-0.0667736008763313,0.0260314624756574
4.674056640625,0.5998880568509921,0.7516583252578973,0.482822095143795,0.0622473955154418,-0.0977144762873649,0.015997203066945
4.684084716796875,0.6444418131202458,0.7830167555958032,0.53807285772264,0.0426869392395019,-0.1035094559192657,0.0183299351483583
4.6941123046875,0.6541855007603764,0.7725664540562778,0.6057879650771617,0.0069302725605666,-0.0995551943778991,0.0218034945428371
4.704139404296875,0.6350683470319957,0.7045975911363959,0.6286550459235907,-0.0253476966172456,-0.0910477191209793,0.0239063557237386
4.71416748046875,0.5986682327324524,0.6624259442307054,0.5812807158082723,-0.048119056969881,-0.0804030671715736,0.0288537107408046
4.724195556640625,0.6167427820727229,0.6783893101032823,0.5172878438472748,-0.0554248243570327,-0.071378044784069,0.0364892184734344
4.734223388671875,0.6271539937108754,0.68207464755252,0.4337093969285487,-0.0505669526755809,-0.0643973648548126,0.0392961911857128
4.74425146484375,0.5960169510386883,0.6692230570249259,0.359205652347207,-0.0368282757699489,-0.044920228421688,0.0328107960522174
4.754279541015625,0.5585456273110583,0.6646925739884376,0.3048907093137502,-0.0281290598213672,-0.0261705107986927,0.0254231877624988
4.764307373046875,0.618442425597459,0.6489884435739368,0.2603741067171096,-0.026704316958785,-0.0230349078774452,0.0290978252887725
4.774335693359375,0.6723349054351448,0.5833072166671976,0.2281318792819976,-0.0336929820477962,-0.0220492705702781,0.0372758619487285
4.78436328125,0.7052026443574577,0.4823158991873264,0.1576999141842126,-0.0417200177907943,-0.0177565217018127,0.0536654889583587
4.7943916015625,0.7595959863893688,0.4490148103490471,0.1201975742638111,-0.0592569336295127,0.001685086172074,0.0869627222418785
4.80441943359375,0.8126860638029872,0.4425837543882429,0.1129787289261817,-0.0852358415722847,0.03719924390316,0.1194023564457893
4.814446533203125,0.7524952144734561,0.3636163814615458,0.0407493590176105,-0.1102274730801582,0.0763344019651413,0.1387694031000137
4.824474609375,0.630141631219536,0.3232406415292993,-0.0579407323151826,-0.150053471326828,0.1051331236958503,0.1466065347194671
4.834502197265625,0.501026116082631,0.2986701542984694,-0.1648088694065809,-0.1896735876798629,0.1189237684011459,0.147925853729248
4.844530517578125,0.4397563854752108,0.2036021989855915,-0.3549409806400537,-0.2182452380657196,0.0994921848177909,0.153696671128273
4.854558349609375,0.4092570561846718,0.1092020233990624,-0.5779641386061907,-0.2219419777393341,0.0623988769948482,0.1578490734100341
4.864586669921875,0.2968478707747534,0.0948685968158766,-0.798347595718503,-0.2057819366455078,0.0185362379997968,0.1687004566192627
4.874614501953125,0.1424041453748941,0.1604751145185902,-0.910991978123784,-0.176237091422081,-0.0316827222704887,0.1791951805353164
4.884642333984375,-0.0658429568070918,0.1934021093474701,-1.038442884516716,-0.132190465927124,-0.0467564389109611,0.1744966953992843
4.89467041015625,-0.3517941339816898,0.1714213828815147,-1.157109011429548,-0.0845252051949501,-0.0217189956456422,0.149157777428627
4.904698486328125,-0.604146700676158,0.1686110381685197,-1.1941408112287522,-0.0513526275753974,0.0216608718037605,0.1185900494456291
4.9147265625,-0.7044673888854682,0.1446061854638159,-1.2118202603042123,-0.0358716733753681,0.0771787241101265,0.0824823752045631
4.924754638671875,-0.8629087690867483,0.0362135422188788,-1.4461001408219336,-0.0221868976950645,0.1561777144670486,0.0308283641934394
4.9347822265625,-1.036473995596543,-0.1083942872127518,-1.801940700650215,-0.0071027539670467,0.2302847057580948,-0.019612705335021
4.944809326171875,-1.0509949075758456,-0.2395888371134176,-2.119521380189061,0.0013227401068434,0.2593264877796173,-0.0430211015045642
4.95483740234375,-0.8941535099171102,-0.4376469190405681,-2.3346686902135607,0.0025912036653608,0.2094409465789795,-0.0358350947499275
4.964865478515625,-0.7588011827498674,-0.7028999203730374,-2.445255555567145,0.0135849323123693,0.1001174375414848,-0.0097714690491557
4.9748935546875,-0.7424957985065876,-0.8480566523917019,-2.4380536613643167,0.0341317541897296,-0.0958880186080932,0.026249649003148
4.98492138671875,-0.5949235663114115,-0.8104325127225369,-2.187884137797356,0.0603672787547111,-0.2945952117443084,0.0601323992013931
4.994949462890625,-0.6534085250385105,-0.7914551327910274,-2.040458364868164,0.0909182652831077,-0.4352732300758362,0.0832526311278343
5.004977294921875,-0.7341406426154077,-0.714254842602089,-1.5150181942254304,0.1110978424549102,-0.5428212285041809,0.1064837500452995
5.015005615234375,-0.6442606843996793,-0.6667726681981235,-0.909615429073572,0.1112882569432258,-0.5790303945541382,0.1433767825365066
5.025033447265625,-0.4730693108817562,-0.6379060546759515,-0.2735761181175709,0.0860586687922477,-0.5773380398750305,0.1983382701873779
5.0350615234375,-0.3096775051988661,-0.6758064540032297,0.3700982177615165,0.0373726189136505,-0.5562330484390259,0.2680923044681549
5.04508935546875,-0.1669643669400364,-0.7183180003877728,0.8956360035598278,-0.017425375059247,-0.515967607498169,0.3412254452705383
5.05511669921875,-0.0888924815483391,-0.7274439214557409,1.241265550497174,-0.048699140548706,-0.4697676301002502,0.40169358253479
5.06514453125,-0.1270380878083407,-0.7145190464962273,1.4361492401719091,-0.044957760721445,-0.4095391035079956,0.4406887888908386
5.07517236328125,-0.278310672358796,-0.5938481556322426,1.529950390419364,-0.0119169857352972,-0.3218883574008941,0.4535084366798401
5.085200439453125,-0.4274888419132679,-0.399574962538667,1.5882739845722913,0.0301166586577892,-0.2183781415224075,0.4527929723262787
5.095228271484375,-0.5524350720088929,-0.2572472434008493,1.6556915702849626,0.0574936866760253,-0.1100287735462188,0.4385429322719574
5.105256591796875,-0.6726688866298646,-0.1862019687103107,1.6381588362038135,0.0657823756337165,-0.0142493546009063,0.4133904576301574
5.115284423828125,-0.7814004795055836,-0.1818393895866349,1.5612234805613756,0.0667919814586639,0.0652449429035186,0.3817097842693329
5.1253125,-0.8511699621066451,-0.2018923263277858,1.376685828334093,0.0691681057214737,0.1312257647514343,0.3463282585144043
5.13534033203125,-0.917079116017744,-0.2789829821297899,1.0589362219691276,0.0858144536614418,0.1926478445529937,0.3158190846443176
5.145368408203125,-0.8645498142920434,-0.3511192669274285,0.7287590957075357,0.1045552641153335,0.2240496724843979,0.304542064666748
5.155396484375,-0.6909330037254839,-0.4217763825505972,0.5013298117369414,0.116989828646183,0.2217287272214889,0.303762286901474
5.165424560546875,-0.7623370287258178,-0.5221505910454317,0.2441507016688585,0.1282447725534439,0.2243899554014206,0.2866732478141784
5.175451416015625,-0.7984293557178228,-0.5961104014758021,0.1017348658561706,0.1302674412727356,0.1844241619110107,0.2757292687892914
5.1854794921875,-0.6363022727411239,-0.560937563948892,-0.0028285014241933,0.116971455514431,0.119206391274929,0.2810283303260803
5.19550732421875,-0.5708559871014207,-0.56349042676948,-0.0550502715706825,0.1011243164539337,0.0340962931513786,0.2827506065368652
5.20553564453125,-0.622376330980286,-0.6107387193523347,-0.0657207186669111,0.0944214910268783,-0.0463164187967777,0.2845484614372253
5.2155634765625,-0.6195605429071933,-0.5956157498266548,-0.0086801500618457,0.0892922431230545,-0.1098535805940628,0.2948807179927826
5.225591796875,-0.5372645370144397,-0.5463835534175857,0.1478659179121255,0.0836503356695175,-0.1628457009792328,0.3193967044353485
5.235619384765625,-0.431481710941717,-0.50708589104563,0.4087859680742025,0.0679880157113075,-0.1924057304859161,0.3487937450408935
5.245647216796875,-0.4097868887450546,-0.4632803593277931,0.6745832688838244,0.0527442991733551,-0.1915663033723831,0.3673293590545654
5.255675537109375,-0.4739750640824436,-0.3510637738805264,0.904971987181902,0.0380766727030277,-0.153506264090538,0.3708420693874359
5.265703369140625,-0.5391724164623767,-0.1618830816203728,1.0403536865741014,0.0264767929911613,-0.0907957330346107,0.3661021590232849
5.275731689453125,-0.5385459551271051,-0.0382819094581529,1.131299447390437,0.017434561625123,-0.0225762035697698,0.3570937514305115
5.28575927734375,-0.4983613903854042,0.0317660978233441,1.19735275901258,0.010723179206252,0.0230757053941488,0.3452994227409363
5.295787353515625,-0.4760261513933539,0.0565783944534137,1.198891220626235,0.0078988969326019,0.0547337681055069,0.3288149833679199
5.305814453125,-0.4752997368149459,0.1219663740346208,1.1522837832301855,0.0097878333181142,0.0753818377852439,0.3105239272117615
5.315842529296875,-0.4883971918623894,0.1554676616201177,1.0462661254882812,0.0192092973738908,0.0880220010876655,0.2890847027301788
5.325870361328125,-0.4953882197935134,0.1928251131771132,0.9726917707115412,0.040213793516159,0.0940853059291839,0.2684694230556488
5.335898193359375,-0.5867375199094415,0.2453278922220692,0.9294956030637024,0.0640344321727752,0.1043738946318626,0.2461587935686111
5.34592626953125,-0.7242922524917871,0.3184988903623074,0.8575012109547853,0.0918919220566749,0.1285808682441711,0.2258692681789398
5.355954345703125,-0.831924140497297,0.371121131068468,0.7990975373029708,0.1174225881695747,0.1558439284563064,0.2023799121379852
5.365982421875,-0.867833804398775,0.3608396832898259,0.7527467050164938,0.1368916183710098,0.1780805140733719,0.1881772875785827
5.37601025390625,-0.915907368824631,0.3087075641881674,0.6669120036035776,0.1497893184423446,0.2011616080999374,0.1820376217365265
5.3860380859375,-0.942642596341297,0.2505085097303614,0.5590735601752996,0.1545376777648925,0.2282353639602661,0.1874713748693466
5.396066162109375,-0.9519416820190848,0.2234385338339954,0.4764116435796022,0.144510343670845,0.2378842532634735,0.2079902291297912
5.40609423828125,-0.8642726047858595,0.1311740551019087,0.349216757774353,0.1249940544366836,0.2404426336288452,0.2455161362886428
5.416121337890625,-0.7426169406682253,0.0767156850097701,0.2371183188140392,0.0925964340567588,0.2386918663978576,0.3000454008579254
5.426149169921875,-0.6924537104867399,0.0815064629502594,0.1448468623518943,0.0571076124906539,0.2283212095499038,0.3522988855838775
5.43617724609375,-0.6725710522785783,0.0841807967260479,0.0046048634469509,0.025961946696043,0.2136376053094864,0.3988498747348785
5.446205322265625,-0.6362871482372283,0.1619317430676892,-0.1206073241084814,0.0069032325409352,0.1900361478328704,0.4271408915519714
5.456233154296875,-0.643233387178555,0.2935987693183124,-0.1972580175906419,-0.0043331766501069,0.1662615835666656,0.4319415092468261
5.466261474609375,-0.6752749774750322,0.412178386991471,-0.2460813774704933,-0.0072833951562643,0.1464703977108001,0.4239083230495453
5.4762890625,-0.6510334664702415,0.5209156058903783,-0.2592524092108011,-0.0050189085304737,0.1274426430463791,0.4117240905761719
5.4863173828125,-0.595287613850832,0.6057579352650792,-0.2419914778083562,-0.0024226708337664,0.1040151640772819,0.3989028036594391
5.49634521484375,-0.5489500429047272,0.6781450530186295,-0.2324912435352802,-0.0008828309364616,0.0759379938244819,0.3765764534473419
5.506373291015625,-0.5560143918003887,0.7175206394650042,-0.2549579268872737,0.0024287509731948,0.0585457049310207,0.3501642644405365
5.5164013671875,-0.5659900250328704,0.8024876911979169,-0.2654980256021023,0.0033709772396832,0.0514281392097473,0.3214018642902374
5.52642919921875,-0.6046666328970343,0.8742652987509966,-0.2654150234937668,0.0029853349551558,0.0586079061031341,0.2969599962234497
5.536457275390625,-0.5724001112708822,0.8631899971809238,-0.2869973252266645,0.0046692518517374,0.0695457756519317,0.2768778800964355
5.546484130859375,-0.5740859089333564,0.8709316242836416,-0.2666296599805355,0.0008969437330961,0.0881336331367492,0.2652396857738495
5.556512451171875,-0.6433405738800764,0.8963967587992548,-0.2266091997593641,-0.0107341464608907,0.113738864660263,0.2543438971042633
5.5665400390625,-0.6891383023284375,0.8654481513712554,-0.2477642159909009,-0.0258986745029687,0.1390678733587265,0.2474264949560165
5.576568115234375,-0.6908871918223798,0.8268896534614264,-0.3274193519860506,-0.0376354940235614,0.1547970324754715,0.2456930428743362
5.58659619140625,-0.7236348845615983,0.7490491656728089,-0.4060533282399177,-0.0436076112091541,0.1578358709812164,0.2489304095506668
5.596624267578125,-0.7396032188702374,0.6910561186484993,-0.4940151048094034,-0.0478015579283237,0.1523140668869018,0.260663241147995
5.60665234375,-0.7163280686795711,0.6357087638273835,-0.5287766215890646,-0.0509120188653469,0.1382597088813781,0.2826864421367645
5.616680419921875,-0.691734602431953,0.6068577132005244,-0.5322217936068773,-0.0659029558300972,0.1258528381586074,0.3133428990840912
5.6267080078125,-0.7412662567116319,0.6552681814305484,-0.5701654475539922,-0.0816090032458305,0.1376810669898986,0.3367769122123718
5.636736328125,-0.8348913928050548,0.734231901095435,-0.6690414168477058,-0.0902754664421081,0.1638583391904831,0.3424254655838012
5.64676416015625,-0.9217332984991372,0.8045814486067742,-0.810527862855792,-0.0923025012016296,0.2152069509029388,0.3162076473236084
5.656791259765625,-1.099948615837097,0.9146348646707833,-1.118458670517802,-0.0718877762556076,0.2679037451744079,0.2518877685070038
5.666819091796875,-1.3338044257238506,1.070126820481941,-1.5800520996719598,-0.0200905371457338,0.290580153465271,0.1604668200016021
5.67684716796875,-1.400413763793558,1.1038650586284695,-2.058822289076448,0.0471119359135627,0.2705952823162079,0.0706932619214057
5.686875244140625,-1.2050912443101405,0.8769154479335993,-2.408284546044469,0.1200258061289787,0.1907879561185836,0.01279142126441
5.696903076171875,-0.8109701997958123,0.3849983748493716,-2.4901450831294056,0.1538985520601272,0.0445079617202281,0.0086185149848461
5.706931396484375,-0.3946750982005149,-0.2175960914161056,-2.107908099284768,0.1157881617546081,-0.1447781175374984,0.0421459749341011
5.716958984375,-0.0352194714139215,-0.8193721174381673,-1.3448042509049176,0.0041891997680068,-0.2988595366477966,0.1134385243058204
5.7269873046875,0.2116021664972417,-1.2182644680075347,-0.4410591751694679,-0.1449429541826248,-0.3671424984931946,0.212115079164505
5.73701513671875,0.3265258372124284,-1.2662605832830072,0.3794534906059503,-0.2881187796592712,-0.3453432023525238,0.3226900398731231
5.747043212890625,0.3998421255748718,-1.0975452079571784,0.9554781855821608,-0.387769877910614,-0.2567555606365204,0.4406429231166839
5.7570712890625,0.5007449245210737,-0.9321408568754792,1.3492407720476387,-0.4424802660942077,-0.1295736730098724,0.5385122299194336
5.767099365234375,0.3702018973316997,-0.7270270112179219,1.6097878972440958,-0.4552096724510193,0.0041936254128813,0.5959848761558533
5.777126220703125,0.2318207603951916,-0.5205634314518421,1.7402660425037144,-0.4294846057891845,0.0884911939501762,0.6181312203407288
5.787154052734375,0.1940883745785802,-0.3555007334146648,1.71039697394073,-0.3602100610733032,0.1075351387262344,0.615378201007843
5.797182373046875,0.1128384984715841,-0.2097361716959625,1.5131868871450422,-0.2593801319599151,0.0973592028021812,0.5887892246246338
5.807210205078125,-0.0830511168426834,-0.0396838486779481,1.372223003706336,-0.152333527803421,0.069655455648899,0.5488163232803345
5.817238037109375,-0.2785386358957737,0.0784542357727885,1.3771248042732476,-0.0689571574330329,0.045093648135662,0.4956415295600891
5.82726611328125,-0.5609445782115683,0.0994631215319037,1.5027560940235851,-0.0171400960534811,0.040356159210205,0.4130451679229736
5.837294189453125,-0.8505185124605894,0.0798510238934308,1.5253326674908398,0.0252299979329109,0.0768257528543472,0.3238061070442199
5.847322265625,-1.080480675909668,0.127200365697965,1.3949123898983,0.0690034925937652,0.1435988992452621,0.2488597333431244
5.857350341796875,-1.21342404223904,0.1345379420444369,1.14237204554677,0.1246643587946891,0.2068425863981247,0.2031867951154709
5.8673779296875,-1.2881564810097217,0.0280096313666552,0.8609066354840993,0.1781384944915771,0.2481905668973922,0.1843249052762985
5.87740625,-1.3581960857890545,-0.1338696143288165,0.6126140117049217,0.213038682937622,0.2657607793807983,0.1904571056365966
5.88743408203125,-1.4033622383356092,-0.3316732100382447,0.3793704884976148,0.2345614731311798,0.2739943861961365,0.2331404238939285
5.89746142578125,-1.3549730320893227,-0.4959454152848571,0.1659744060546159,0.2362224906682968,0.2585728168487549,0.3102687895298004
5.9074892578125,-1.2437271183051168,-0.6416552511416376,-0.0067453826069831,0.223271369934082,0.2154082208871841,0.4166475832462311
5.91751708984375,-1.115932805301994,-0.799901985553652,-0.2184223861724138,0.2040076702833175,0.136275053024292,0.5535010695457458
5.927545166015625,-0.9889010011039674,-0.8512873048759997,-0.2990472439825534,0.1835381388664245,0.0132339941337704,0.6987586617469788
5.937572998046875,-0.9709721073120832,-0.7979965903237461,-0.2774357161551714,0.1738434433937072,-0.1160523518919944,0.8326802253723145
5.947601318359375,-0.9919023018117994,-0.6783367761984467,-0.1853846244454383,0.1802042573690414,-0.2236572653055191,0.9456453323364258
5.957629150390625,-0.952761400904134,-0.4351776428502052,0.0865145003706216,0.1952828168869018,-0.3003898561000824,1.0348247289657593
5.9676572265625,-0.872809181658551,-0.1357337277002632,0.4149228633940219,0.2079915404319763,-0.3398176431655884,1.110859990119934
5.97768505859375,-0.7704952738054096,0.1348170147141441,0.750435505464673,0.2225446552038192,-0.3455730080604553,1.1599149703979492
5.987713134765625,-0.7485220730587839,0.3725229606904089,1.0342664756149054,0.2395207732915878,-0.3126066923141479,1.1822412014007568
5.9977412109375,-0.7868884093973785,0.6471900889150798,1.2419126162290572,0.2485912293195724,-0.2510349452495575,1.1781582832336426
6.007769287109375,-0.8823721789695322,0.8522478204712272,1.3548463369697332,0.2513092160224914,-0.1676628291606903,1.1547527313232422
6.017796142578125,-0.8625362825125455,0.9418917049087584,1.3636831388980148,0.2496497929096222,-0.0759459435939788,1.133028507232666
6.02782421875,-0.7537967985913157,0.9623086891893295,1.326636726051569,0.2418141663074493,0.0042824647389352,1.1260769367218018
6.037852294921875,-0.6371788363799452,0.9597894729100168,1.1962281388968228,0.2261569052934646,0.0633172914385795,1.1371357440948486
6.04788037109375,-0.5533450264606624,0.9047047145478428,0.97853114438951,0.1973889619112014,0.095796138048172,1.146697163581848
6.057908203125,-0.5440008229995146,0.8627541630469262,0.7343897950708865,0.1720335334539413,0.1008385643362999,1.1473323106765747
6.06793603515625,-0.595361811598204,0.8655431361783296,0.4552747475266456,0.1545051783323288,0.0887790694832801,1.134637713432312
6.077964111328125,-0.6517834080547094,0.8998087591998278,0.2169219184815883,0.1456536203622818,0.0603242628276348,1.122921347618103
6.0879921875,-0.6863553936116397,0.9249160201884804,0.0672293696641922,0.143057718873024,0.0178270321339368,1.1075425148010254
6.098020263671875,-0.7860390990916639,0.922244462891668,-0.0503472084462642,0.1518493443727493,-0.0291335545480251,1.081784963607788
6.108048095703125,-0.8650626591850071,0.8661682823393494,-0.1787163987278938,0.1724172234535217,-0.0588212385773658,1.0626986026763916
6.118076171875,-0.829119677535817,0.8855112076476216,-0.2051858879804611,0.1906918287277221,-0.0636676549911499,1.059532642364502
6.12810400390625,-0.7747295503742992,0.8748911755643785,-0.1572948405146598,0.1883159875869751,-0.0410784073173999,1.0708250999450684
6.13813134765625,-0.8097126740153878,0.8174638726640492,-0.0805593913584947,0.1634915918111801,-0.0227686427533626,1.0763356685638428
6.1481591796875,-0.7875840635113418,0.7400872029948979,-0.0403881244897842,0.1272506862878799,-0.0004390492103993,1.0854222774505615
6.1581875,-0.7168675823837518,0.6914658684931695,-0.0170417356938123,0.0776514336466789,0.0068526859395205,1.1043338775634766
6.168215087890625,-0.6092864016521722,0.6528412465445697,-0.0079904142320156,0.0200354978442192,0.0017751564737409,1.1412090063095093
6.1782431640625,-0.4753353195849806,0.5483731563322246,-0.007113046875596,-0.0372632108628749,-0.0222910307347774,1.1914823055267334
6.188271240234375,-0.3643612084794789,0.4406340450925752,-0.0231032276898622,-0.0868669301271438,-0.0603752993047237,1.245755672454834
6.19829931640625,-0.2875629232201725,0.4421716664560139,-0.0776654234826564,-0.1239857971668243,-0.0990486592054367,1.2956640720367432
6.208327392578125,-0.2408635149580426,0.47683301079683,-0.0485346060663461,-0.1403792947530746,-0.1353810578584671,1.329424262046814
6.218355224609375,-0.2960109084939584,0.5923934633119031,0.0469575660079717,-0.1395718306303024,-0.1497189849615097,1.338321089744568
6.228383056640625,-0.432528699244,0.7091988013215362,0.1642623414397239,-0.1306833028793335,-0.1440029144287109,1.3110626935958862
6.2384111328125,-0.6371190690167248,0.8027263953246175,0.2896604069560766,-0.1130475848913192,-0.1211103871464729,1.2571589946746826
6.248439208984375,-0.7082699960388242,0.8116809784136713,0.3361088543981314,-0.0862041860818862,-0.0971589982509613,1.1985138654708862
6.258466064453125,-0.6762558782711625,0.763031659926474,0.3383423125386238,-0.0590394102036953,-0.0759005770087242,1.1511107683181765
6.268494140625,-0.6115056120716035,0.6484669769831002,0.2553828743010759,-0.0346874222159385,-0.0481049567461013,1.12921404838562
6.278522216796875,-0.5583837512802332,0.4815492987290024,0.2103378639161586,-0.0293025132268667,-0.0421091131865978,1.1259852647781372
6.28855029296875,-0.5029735968885943,0.2837755867011844,0.1682815139532089,-0.0416449159383773,-0.0419556014239788,1.1424139738082886
6.298578369140625,-0.5163599153473973,0.1037229891997762,0.0723018506228923,-0.065110296010971,-0.0440674871206283,1.16830575466156
6.3086064453125,-0.5982784662298858,0.0043531902408227,-0.0210626617729663,-0.0966870710253715,-0.0395310744643211,1.1942346096038818
6.318634033203125,-0.6383188732605427,-0.0574828872787766,-0.1454711317300796,-0.1135842949151992,-0.0353038385510444,1.2296727895736694
6.328662353515625,-0.5961152237813919,-0.1313510556366294,-0.3612123159945011,-0.1206950768828392,-0.050672497600317,1.267084002494812
6.338689697265625,-0.5847119323659687,-0.1285292762141674,-0.5518874480634928,-0.1175988838076591,-0.0939968004822731,1.2895299196243286
6.3487177734375,-0.584141219805926,-0.1180692204656079,-0.7012152552217245,-0.109301820397377,-0.1632026135921478,1.3007930517196655
6.358745849609375,-0.6310869492456317,-0.0377066668534651,-0.7831792526811361,-0.0877765566110611,-0.2388036251068115,1.3032183647155762
6.3687734375,-0.6583394055694342,0.0785890776662155,-0.7816133185386658,-0.0682303681969642,-0.2943155169486999,1.3026970624923706
6.37880078125,-0.7106639054380357,0.1426519461235031,-0.7629249846816063,-0.0525267720222473,-0.306564450263977,1.288694977760315
6.388828857421875,-0.8243329547159374,0.1312941012850031,-0.7164198386162519,-0.0414660312235355,-0.2891516387462616,1.2638019323349
6.39885693359375,-0.8288006016492843,0.0633202333964407,-0.6102116267383099,-0.0446591638028621,-0.2642918229103088,1.24526846408844
6.408884521484375,-0.851422913954407,0.0168468707088381,-0.542916206100583,-0.0544693693518638,-0.2367828786373138,1.230247974395752
6.418912841796875,-1.020606637444347,-0.0021130100985988,-0.5898123973101377,-0.0581674352288246,-0.226608544588089,1.2057684659957886
6.428940673828125,-1.1211777202181517,-0.0493950588205829,-0.6756698950767517,-0.0481595769524574,-0.2490865886211395,1.1830662488937378
6.43896875,-1.0897273738130926,-0.1673520876159891,-0.7751064208626747,-0.0152660775929689,-0.3079592287540436,1.1727595329284668
6.448996826171875,-1.0627454049937426,-0.2869015367019921,-0.7991630037546157,0.0321329869329929,-0.3910460472106933,1.1719547510147097
6.459024658203125,-1.0960948630183935,-0.3140369059847667,-0.6763713213443756,0.0828643441200256,-0.4636824429035187,1.1806668043136597
6.469052734375,-1.1721670259602368,-0.2735687385287135,-0.4658376425951719,0.1175031512975692,-0.497936874628067,1.196796417236328
6.479080810546875,-1.220196312852949,-0.214894723502919,-0.186812026900053,0.1290357112884521,-0.4924209415912628,1.212733268737793
6.489108642578125,-1.2470641537733376,-0.1574011869659647,0.0920054990023374,0.1209182292222976,-0.4389964044094085,1.216928243637085
6.499135498046875,-1.3309117730222642,-0.120604766825214,0.3337538157045841,0.099844105541706,-0.3495096564292907,1.2125144004821775
6.509163818359375,-1.361671799075603,-0.1233072307169437,0.5057768542736768,0.0651318132877349,-0.2694731652736664,1.2193957567214966
6.519191650390625,-1.186042406577617,-0.1964327457476407,0.6229033505290746,0.0214290749281644,-0.2238308638334274,1.2530006170272827
6.5292197265625,-0.9311200624603776,-0.2963591739423573,0.744653999453783,-0.0259644854813814,-0.2070526182651519,1.3098955154418943
6.539247802734375,-0.8882556840501725,-0.3700454646609723,0.8421317923873662,-0.0614817328751087,-0.2136553972959518,1.366739273071289
6.54927587890625,-0.9565420884866268,-0.3444285005845129,0.8591735280811786,-0.0775209218263626,-0.2297983765602111,1.4052351713180542
6.5593037109375,-1.1180688674826174,-0.241199487180449,0.856308201777935,-0.0591528266668319,-0.2433117926120758,1.4182100296020508
6.569331787109375,-1.313568570163846,-0.087990345076844,0.8674176248133182,-0.0182070881128311,-0.2398961037397384,1.408356547355652
6.579359619140625,-1.5005574149355292,0.0907953194949775,0.9269692994564772,0.031482171267271,-0.215657353401184,1.3836493492126465
6.589387939453125,-1.6251966249085965,0.1989975912669673,1.0723282029837369,0.0732060372829437,-0.1500482559204101,1.3574365377426147
6.599415771484375,-1.6723314471796151,0.2261033325964584,1.1570616651564836,0.1055261567234993,-0.0740184634923935,1.3222311735153198
6.609443603515625,-1.633729767715186,0.2089933905046433,1.209290449565649,0.1294518113136291,0.0079053239896893,1.281822681427002
6.619470703125,-1.6647960832387207,0.2043293076837435,1.1869763264268636,0.1418355107307434,0.0864390134811401,1.241081714630127
6.629498779296875,-1.7077466055624186,0.1027509840961545,1.0593506479889154,0.1545434147119522,0.1772381067276001,1.196501851081848
6.63952685546875,-1.9166781098119916,-0.0175453013017773,0.8244190255641937,0.1723812669515609,0.2376231551170349,1.1387715339660645
6.649554443359375,-1.802314940790087,-0.1404222143100574,0.5687333689242601,0.1899355947971344,0.2759971618652344,1.091045379638672
6.659582763671875,-1.7319965190693736,-0.3354057110974565,0.2256388934224844,0.2086754590272903,0.2867973446846008,1.04483962059021
6.669610595703125,-1.7487722973033786,-0.435959404345043,-0.0245920049428939,0.2092055231332779,0.2755717635154724,1.0127578973770142
6.679638916015625,-1.643383585114777,-0.5704512422254309,-0.199137839987874,0.192155435681343,0.2220875024795532,1.013677000999451
6.689666748046875,-1.423197111879289,-0.7180445172086357,-0.2638993582338094,0.1630993038415908,0.1144485995173454,1.039536952972412
6.69969482421875,-1.2597434564739465,-0.8136810661897063,-0.2335638412028551,0.1420259773731231,-0.0216791424900293,1.070950984954834
6.70972265625,-1.21022100841403,-0.762051197521761,-0.1401075588703155,0.1407486051321029,-0.1437377780675888,1.099382400512695
6.719750732421875,-1.1593291716970502,-0.5475460213257,0.0950409211754798,0.1499394327402115,-0.2380328625440597,1.123887538909912
6.72977880859375,-1.0842008654765785,-0.3282826908171177,0.424217930483818,0.1700478792190551,-0.2839961946010589,1.1376136541366575
6.7398056640625,-1.0888688572876155,-0.1019075555419549,0.8632406313896178,0.1795268803834915,-0.2755403816699981,1.1310659646987915
6.749833740234375,-1.16032936171554,0.1825187501529231,1.2666361385971308,0.1733110249042511,-0.2184500396251678,1.0992311239242554
6.759861572265625,-1.2368193847432731,0.4137232418132945,1.5579408056288957,0.1497566998004913,-0.1674089580774307,1.0393251180648804
6.7698896484375,-1.2370362423643468,0.586391482950747,1.7404209408044815,0.0962947756052017,-0.0479281246662139,0.9590047597885132
6.779917724609375,-1.4956652589797972,0.7666993155885488,1.4891659600883722,0.0721790567040443,0.0778380557894706,0.8811507225036621
6.78994580078125,-1.460920693334937,0.8369384615279734,1.35845166798532,0.0684722661972045,0.161378338932991,0.8197091221809387
6.799973876953125,-1.3769289894402026,0.7732262331392615,0.8987626111477612,0.0752018094062805,0.2027249783277511,0.7795518040657043
6.810001708984375,-1.5343569548152387,0.6665086834996938,0.5841372742831706,0.0874997898936271,0.2273860722780227,0.7162731885910034
6.820029541015625,-1.5962059466153382,0.5770319357899949,0.3655944766014814,0.0960850268602371,0.2124705016613006,0.6653455495834351
6.830057861328125,-1.4306272618800402,0.56859125703983,0.1463952608376741,0.0983507186174392,0.1684837639331817,0.6324955224990845
6.840085693359375,-1.4135788041844963,0.509475854922086,-0.0027916765451431,0.0962920933961868,0.1152639538049697,0.5985774993896484
6.85011376953125,-1.5130384185850618,0.4191611950835213,-0.1341284844607114,0.0995647236704826,0.0791481882333755,0.5688478946685791
6.8601416015625,-1.5290030265666543,0.3932032355496659,-0.2098240691751241,0.0992792323231697,0.0415824390947818,0.5508483648300171
6.870168701171875,-1.4343855915002524,0.3903180720347911,-0.2135924817979335,0.0962963104248046,0.0218983739614486,0.5310057401657104
6.88019677734375,-1.5121006993435322,0.3576795752910897,-0.2443593759834766,0.0838281884789466,0.0176285281777381,0.5076777338981628
6.890224609375,-1.455916893698275,0.2926574881465174,-0.1411439161807298,0.0620987527072429,0.0110992034897208,0.4961589574813843
6.900252685546875,-1.29085010400787,0.2129017595874145,-0.1206026479333639,0.0407236889004707,0.0059518455527722,0.5034075379371643
6.910280517578125,-1.1636519302669912,0.149031582424324,-0.0327262115597724,0.0194927025586366,-0.0233474541455507,0.5189862251281738
6.920308837890625,-1.0428312556687742,0.1023275710523128,0.0317664266169071,0.0057175010442733,-0.0481931492686271,0.530627429485321
6.930336669921875,-0.9720628251582384,0.1063777597585692,0.0870101749330759,-0.0055090673267841,-0.0568919405341148,0.5371615886688232
6.94036474609375,-0.9556118949644268,0.1770139969904907,0.2026829652488231,-0.0204552579671144,-0.0420975498855114,0.5371541380882263
6.950392822265625,-0.8865648083537816,0.2628776505032554,0.3051169192850589,-0.0440584048628807,-0.0069513842463493,0.5270439982414246
6.960420654296875,-0.8463945643983781,0.3085490856908262,0.3837123170942068,-0.0734125673770904,0.029583990573883,0.511029064655304
6.97044873046875,-0.8439883800394833,0.343129254554212,0.391477690398693,-0.099624678492546,0.0661342218518257,0.4884073138236999
6.980476806640625,-0.7849462623536586,0.3747347549883648,0.3701315355092286,-0.1157911345362663,0.0898105278611183,0.4657446146011352
6.99050390625,-0.750065356978029,0.3794276255123317,0.2767214304059743,-0.1163220927119255,0.1142062470316886,0.4407345354557037
7.00053173828125,-0.7825725189596414,0.3838874544654041,0.159305011293292,-0.1072303280234336,0.1282728016376495,0.4101491868495941
7.0105595703125,-0.7962479930907488,0.4200069617252797,0.0458259316295385,-0.0983522608876228,0.1356964707374572,0.3734020292758941
7.020587646484375,-0.8296057805523276,0.4237158261805772,-0.1095236200362443,-0.0860673636198043,0.1396238356828689,0.3292007446289062
7.03061572265625,-0.8791660764046013,0.3923503085147589,-0.2085749458968639,-0.0708043575286865,0.1430171281099319,0.284590482711792
7.040643798828125,-0.897507934911549,0.3777943252220749,-0.2896440403431654,-0.0584992207586765,0.1392514258623123,0.2505366206169128
7.050671630859375,-0.8747241484344005,0.3348040554098784,-0.3517074055463075,-0.0512280017137527,0.13841512799263,0.2314781546592712
7.060699462890625,-0.9022066871870308,0.2790435166779905,-0.3844575825035571,-0.0557420589029789,0.1380659937858581,0.2163173109292984
7.070727783203125,-0.924379282963276,0.203618675196357,-0.3842120833098888,-0.0784939154982566,0.1429458111524582,0.202750027179718
7.080755615234375,-0.9477684879876672,0.1590661610361188,-0.4349257869809865,-0.1024405285716056,0.1636811792850494,0.1877012997865677
7.090783935546875,-1.0046519663348794,0.2086388049133122,-0.5379010082870721,-0.126348614692688,0.2004613578319549,0.173111543059349
7.100811767578125,-1.1009469792246818,0.3294688318617642,-0.698049484667182,-0.1439284086227417,0.2460432201623916,0.1420159488916397
7.1108388671875,-1.2958970121338962,0.3923646293010562,-0.953514192032814,-0.1487945914268493,0.2877898216247558,0.0810145586729049
7.12086669921875,-1.4007979408055542,0.3603644304608926,-1.1610095259994269,-0.1427865028381347,0.2539543509483337,-0.0021679433993995
7.130894775390625,-1.4051499985352158,0.2476679160095751,-1.4414491001456975,-0.1019012928009033,0.2206519395112991,-0.0848566368222236
7.1409228515625,-1.512071473249048,0.2282682555453851,-1.5933283453524112,-0.0518178902566432,0.1223996803164482,-0.1519046574831009
7.15095068359375,-1.207865750524774,0.1314440676823258,-1.4955939473092554,0.0046933297999203,0.0173633284866809,-0.1914237439632415
7.160978759765625,-1.0231015230000018,-0.1526408406963572,-1.4217472053319216,0.0572098009288311,-0.0934145897626876,-0.2161993980407714
7.1710068359375,-0.75145754198879,-0.3653776189804077,-1.046264371922612,0.0895420089364051,-0.2026702314615249,-0.2130094617605209
7.18103466796875,-0.3958707377258688,-0.5420048634093254,-0.5098305135786533,0.0812910050153732,-0.2837019562721252,-0.1730703115463256
7.191062744140625,-0.1456539592173881,-0.6304938056580722,-0.0059130234360694,0.0491128489375114,-0.3176074028015136,-0.1263774931430816
7.201090576171875,-0.1136889230221509,-0.6035340121379121,0.3241764245420694,0.0063046645373106,-0.275327056646347,-0.100550428032875
7.21111865234375,-0.1213113441919907,-0.4828708661889657,0.5167886621534824,-0.0390473455190658,-0.1223642006516456,-0.0511587932705879
7.221146728515625,-0.1356603336704895,-0.3683277740228921,0.648964258980751,-0.0783276408910751,0.0425073020160198,-0.0068770824000239
7.231174560546875,-0.0216300133321434,-0.2960050267424434,0.6282224997252226,-0.1222069561481475,0.1823551058769226,0.0403616093099117
7.241201904296875,0.1431178466022014,-0.3255493203304708,0.5908990235030651,-0.194631353020668,0.2554735243320465,0.0842036306858062
7.2512294921875,0.1467084184400737,-0.3865357039518654,0.6435720445483922,-0.2751286327838897,0.2518380284309387,0.0970664396882057
7.2612578125,0.0972373169749043,-0.4993727593850344,0.5020458510518073,-0.3251540064811706,0.1869328022003173,0.0856252387166023
7.27128564453125,0.1493711896422319,-0.5612901037136092,0.3055459583520889,-0.330217957496643,0.0861406922340393,0.0792546793818473
7.28131396484375,0.2836612030738965,-0.6304013050690292,0.1896335140615701,-0.2729951441287994,-0.0192760154604911,0.0784216374158859
7.291341796875,0.346903402798064,-0.7007932304173707,0.1445394038379192,-0.1755946427583694,-0.1010890677571296,0.0793834254145622
7.30136962890625,0.2966346481491811,-0.5977194441076368,0.3580138122141361,-0.0933799296617508,-0.1028805747628212,0.0873260349035263
7.311397705078125,0.1686672436014749,-0.4895976536933332,0.6994383086770772,-0.0556003637611866,-0.0337922126054763,0.0786081105470657
7.32142578125,0.0387087200354784,-0.5002186356246471,0.9769693019002677,-0.0672535598278045,0.0646342262625694,0.0573382452130317
7.3314541015625,0.00378941887822,-0.4558086352076381,1.0899269880384206,-0.1170849427580833,0.1603241562843322,0.0280246194452047
7.34148193359375,0.0486452816328965,-0.4842901218697428,1.0065016858547926,-0.1717471182346344,0.2328944951295852,-0.0056755533441901
7.351509521484375,-0.0137379814406856,-0.5902026387367397,0.6504992134630679,-0.1954755336046219,0.2537584602832794,-0.0415207482874393
7.361536865234375,-0.0516707852002233,-0.6766937582317739,0.2502303138434887,-0.1768075674772262,0.2220961302518844,-0.0680367797613143
7.371564697265625,-0.108783560524974,-0.730736387129873,-0.0814139623612165,-0.1278221607208252,0.1627630740404129,-0.0936906039714813
7.381593017578125,-0.1790015358122065,-0.8155147844228893,-0.2927572039276361,-0.0576055198907852,0.0848286002874374,-0.1159903183579444
7.391620849609375,-0.1964001038533635,-0.9376843163467944,-0.3948883756250143,0.0194009598344564,0.0039985771290957,-0.1213960945606231
7.40164892578125,-0.1178859089211095,-1.0177760171283037,-0.3158727065771818,0.0746591538190841,-0.0716391950845718,-0.0991725474596023
7.4116767578125,-0.0108121205892413,-1.0709401096262037,-0.1145779808163642,0.0932404175400734,-0.1163376346230506,-0.0529705733060836
7.421704833984375,0.1448667360961437,-1.1355837005808949,0.2024766290217637,0.0821291729807853,-0.1467999368906021,0.0208679623901844
7.43173291015625,0.3243203630574047,-1.1476751203909517,0.529639375898242,0.048872947692871,-0.1528802663087844,0.1050141677260398
7.441760986328125,0.3155916246134788,-1.024780415997654,0.7450690099954604,0.0183978639543056,-0.1335425078868866,0.1716888099908828
7.451788818359375,0.2746520585197023,-0.8214862600479275,0.8886854537695645,-0.0027534940745681,-0.0936997607350349,0.221566617488861
7.46181689453125,0.1455365251164883,-0.5477320819497108,1.0295926385849714,-0.0084899431094527,-0.0581036768853664,0.2531591653823852
7.4718447265625,0.0794565629494376,-0.3362163333605975,1.1360486877441405,-0.0187476351857185,-0.0575171969830989,0.2590416371822357
7.481871826171875,0.0090479056620039,-0.1304835520870983,1.0667325749337673,-0.00245734420605,-0.0330382212996482,0.2563110888004303
7.491899658203125,-0.0615532237239181,0.0553811109602451,1.0972656603634356,0.0298362933099269,-0.0418165288865566,0.2534433901309967
7.501927734375,-0.0472094036108814,0.1942769559532403,1.0933259828269482,0.0724889487028122,-0.0516920648515224,0.2452520430088043
7.511955810546875,-0.0740559277486056,0.3145128164008259,1.0570388639152049,0.1079272106289863,-0.0478495024144649,0.2346785962581634
7.52198388671875,-0.1105911579362116,0.4347610248733312,1.1180740551143884,0.1305651366710662,-0.0367047041654586,0.2262899130582809
7.532011962890625,-0.0949061340809799,0.5101986893039197,1.15376729978621,0.1293770521879196,-0.0207598339766263,0.2279155105352401
7.542039794921875,0.0148889050414785,0.5328874179087579,1.1654507233172655,0.1114984527230262,-0.0320732071995735,0.2349803447723388
7.55206787109375,0.0139847775422967,0.545820110848546,1.0474421835303307,0.0996147394180297,-0.0028915563598275,0.2310674339532852
7.562095703125,-0.1461129367649555,0.6823694657806306,0.9730763861149548,0.0839638710021972,-0.0098083177581429,0.2447616755962371
7.5721240234375,0.0866992640866897,0.7889561555821448,0.90023852891922,0.0727990567684173,0.0124618876725435,0.2376860380172729
7.58215185546875,-0.3467965448901057,0.7777436374984681,0.6176812319666147,0.0733918771147728,0.0563023127615451,0.1922756731510162
7.592179931640625,-0.3824939542803913,0.8910960951078682,0.5811345853358507,0.0665741488337516,0.0460023805499076,0.159691035747528
7.602206787109375,-0.2318383508508093,0.982015479373932,0.4360018917798995,0.052724115550518,0.041752241551876,0.1294313967227935
7.61223486328125,-0.3201655084002763,0.9364481256153434,0.2844745287507772,0.0425256639719009,0.0102723948657512,0.0946013629436492
7.622262939453125,-0.2692638444090262,0.8732743149522691,0.1772293750405311,0.0358938612043857,-0.0483006387948989,0.072722427546978
7.632290771484375,-0.1752504396503791,0.813738495465368,0.0375239672303199,0.0375554114580154,-0.1006125211715698,0.062752716243267
7.642319091796875,-0.1385648412066511,0.7491908391658216,-0.0872720407396554,0.0583744086325168,-0.1505728960037231,0.0675900802016258
7.6523466796875,-0.0712203389964997,0.7078931986156851,-0.1113625259011983,0.0781964659690857,-0.1892426311969757,0.0898187756538391
7.662374755859375,0.0577130427728407,0.7290778062678873,-0.0327080913811922,0.0760177373886108,-0.2175238132476806,0.1216741800308227
7.67240283203125,0.0801782282874919,0.747945734475553,0.1488461611211299,0.0438904091715812,-0.2306659668684005,0.1540882736444473
7.682430908203125,0.1023566875489428,0.7704642941452562,0.3243815917253494,-0.0110972085967659,-0.2294078916311264,0.1786407530307769
7.692458984375,0.1708644065858796,0.8071464037239551,0.4467237768024206,-0.0635278820991516,-0.2252108007669448,0.1967386901378631
7.70248681640625,0.1822499066162854,0.8111820889808237,0.4948655841588973,-0.0957055240869522,-0.2159784287214279,0.2166381031274795
7.7125146484375,0.1702846339365467,0.8606643511608243,0.4646101466268301,-0.1083637475967407,-0.1990156918764114,0.2290665209293365
7.72254296875,0.2210995329597964,0.9297014278341084,0.421616223552823,-0.1054824739694595,-0.1859089434146881,0.2282025963068008
7.73256982421875,0.1944461019750684,0.9086340898860246,0.3961860142201185,-0.0932701602578163,-0.1726998686790466,0.2174528688192367
7.74259765625,0.1752771449942141,0.8757724884435534,0.3758721249878406,-0.0886599645018577,-0.1675280183553695,0.1986160725355148
7.752625732421875,0.1865473115492612,0.9005389731705188,0.2009901898562908,-0.0679124072194099,-0.1388035267591476,0.1855128556489944
7.76265380859375,0.1220176292978227,0.8306579199537635,0.2066717426240444,-0.0541321411728858,-0.1679670065641403,0.1766336113214492
7.772681884765625,0.1774508723041042,0.6839294085737317,0.0479646972239017,-0.0344524830579757,-0.1382095366716385,0.1634889841079712
7.782709716796875,0.06170359198004,0.6393882560577243,-0.0945844095796346,-0.0227923635393381,-0.1424373090267181,0.160027414560318
7.792738037109375,0.1224232144240289,0.5949233105830848,-0.0779004012823104,-0.0194274596869945,-0.1384367048740387,0.1734662503004074
7.802765625,0.110927458952181,0.5351438915986567,-0.1529389833927154,-0.0341422259807586,-0.1289446651935577,0.1897666603326797
7.8127939453125,0.1007052670801058,0.4887275928605347,-0.1280588091582059,-0.0618693158030509,-0.1426791846752166,0.2099863290786743
7.82282177734375,0.0593551656903699,0.4733430497892201,-0.1446457868218421,-0.0961210280656814,-0.1583915650844574,0.231712132692337
7.832849853515625,-0.0146029642395675,0.4863002195831388,-0.1914917091488838,-0.1217532157897949,-0.175926998257637,0.2565179467201233
7.8428779296875,-0.1876676573486998,0.5070711318679154,-0.2279226204454898,-0.1229321956634521,-0.1829260438680648,0.2746357023715973
7.85290478515625,-0.368616454771161,0.5194827235430479,-0.3181909203916788,-0.0972837209701538,-0.1807504445314407,0.2842519283294678
7.862932861328125,-0.4562211615312844,0.5531607559349387,-0.4196118979930877,-0.0672022551298141,-0.1709215193986892,0.287603497505188
7.872960693359375,-0.5619943429928272,0.5539059482790529,-0.4703460599303245,-0.0398709736764431,-0.1562487781047821,0.2855569720268249
7.882989013671875,-0.6535328820705414,0.5055961639445274,-0.4860305357962846,-0.0231745522469282,-0.1519989073276519,0.2713479399681091
7.8930166015625,-0.7177201075598597,0.4178772562202066,-0.5500532183736563,-0.0047907857224345,-0.1439718902111053,0.2495100647211074
7.903044677734375,-0.7462785319156944,0.3474928565911948,-0.7053069084495306,0.0148646738380193,-0.1262645274400711,0.2140016108751297
7.91307275390625,-0.8041252292718738,0.225250259431079,-0.9312731341302394,0.0462915040552616,-0.0971580892801284,0.1697770357131958
7.923100830078125,-0.844095712871477,0.1019048886608332,-1.0755348900705577,0.0762006640434265,-0.0906376093626022,0.1389362961053848
7.93312890625,-0.7894822983480989,-0.0115437958646565,-1.2745043877542015,0.1071976348757743,-0.1053720191121101,0.1227270737290382
7.943156982421875,-0.6818450765803455,-0.277323999409005,-1.3694167141139506,0.145002543926239,-0.1892030090093612,0.1305429190397262
7.9531845703125,-0.5453435063127428,-0.4829531741775572,-1.3208037821143863,0.1692191958427429,-0.2776997983455658,0.1705514192581176
7.963212890625,-0.3890948138501495,-0.6398634723540395,-1.1474363431990149,0.1765988171100616,-0.3753254115581512,0.2340832501649856
7.973239990234375,-0.2619051887419074,-0.7946534904409199,-0.7503887437134981,0.1615874767303466,-0.488860547542572,0.3041964471340179
7.985147705078125,-0.1254202773481607,-0.905368512218818,-0.4858931731522083,0.1279405653476715,-0.500732421875,0.4108781516551971
7.99517578125,-0.01059540909864,-0.8498353525020181,-0.063928574553132,0.1271741688251495,-0.5136106610298157,0.5240340232849121
8.005203857421876,0.2851546199694276,-0.6879041574236006,0.3859598037600517,0.1755986958742141,-0.4575167596340179,0.6540543437004089
8.01523193359375,0.0945286608044058,-0.5132133609499782,0.3283154240429401,0.2378554791212082,-0.3189111351966858,0.733741819858551
8.025260009765624,-0.3117207014642655,-0.4421452168405055,0.7212713703006506,0.2532162964344024,-0.1904924511909485,0.751832127571106
8.03528759765625,-0.5037816618684678,-0.3938141705222427,1.0640390980660914,0.2105812579393386,-0.0496838241815567,0.7183377742767334
8.04531591796875,-0.7222159576743841,-0.3567362665589899,1.221127602353692,0.1256405264139175,0.0704713389277458,0.6518402099609375
8.05534375,-0.7555923767711967,-0.3551172139897942,1.2351830157130956,0.0511142499744892,0.1316360533237457,0.5753979682922363
8.0653720703125,-0.6023323447305708,-0.5036292477857321,0.7765864302873611,0.0382269471883773,0.171084389090538,0.5161229372024536
8.07539990234375,-0.5131085854012519,-0.6300223156888037,0.2654232068002223,0.0688055232167244,0.1755345910787582,0.4849728345870971
8.085427734375,-0.4081964777484536,-0.638360228184238,-0.0051022915750741,0.0837977901101112,0.1548269242048263,0.455325186252594
8.095454833984375,-0.4549825596470385,-0.6848211697816848,-0.0737672470003366,0.0686968490481376,0.1185609474778175,0.4115024209022522
8.105482666015625,-0.6478260487310588,-0.7495606223262846,-0.1353150638967752,0.0498437993228435,0.1068060174584388,0.3497642278671264
8.115510986328125,-0.7063154279049485,-0.748219875241816,-0.3298632380068302,0.0513539761304855,0.1421520113945007,0.298957496881485
8.12553857421875,-0.5730997474402189,-0.7134943065583705,-0.5192208577364683,0.0709737464785575,0.1799268275499344,0.2845261096954345
8.13556689453125,-0.3747586838532239,-0.7595439639411866,-0.6298018778711557,0.1162927225232124,0.1975077390670776,0.3069710731506347
8.1455947265625,-0.1907673403970897,-0.9607847675576804,-0.7736515458792448,0.1692611277103424,0.1842108368873596,0.3433155119419098
