seconds_elapsed,ax,ay,az,gx,gy,gz
0.057467041015625,0.2381149286359548,0.1124709438008256,0.3452548684060573,-0.0803372040390968,-0.1319368183612823,0.1159305125474929
0.067493896484375,0.1784086479529738,0.190627091676183,0.2375871053695678,-0.096665047109127,-0.0634704008698463,0.1168181449174881
0.07752197265625,0.1653020597510039,0.219458031096775,0.0596516278862953,-0.0761590600013732,-0.0240760166198015,0.1165949180722236
0.0875498046875,0.2797258729189634,0.2242798434963449,-0.0802490102350711,-0.0468584336340427,0.0012695540208369,0.1130611672997474
0.097576904296875,0.3324842341601848,0.179909042578563,-0.1375116971582174,-0.0287664104253053,0.0172943174839019,0.1005034297704696
0.10760498046875,0.3485219073779881,0.1174623406136408,-0.1479021582692861,-0.0223987903445959,0.0327518358826637,0.0703993216156959
0.1176318359375,0.3398343046620488,0.0661087681364268,-0.1738812336564064,-0.0254911221563816,0.0404490865767002,0.0367412604391574
0.127659912109375,0.3461084164954722,0.0616645568775944,-0.1076776999086141,-0.0333075001835823,0.0561281815171241,-0.0005661655450239
0.13768701171875,0.2663493817344308,0.0563514172971248,-0.1430406897127628,-0.0326967388391494,0.0963965654373169,-0.0408627353608608
0.14771484375,0.1511162980102002,0.0261067934200167,-0.2126993323504924,-0.0204110462218523,0.12077646702528,-0.0833010077476501
0.157742919921875,0.2088974558494985,0.0451605265233665,-0.1916577133655548,-0.0055983597412705,0.1107557266950607,-0.1077186912298202
0.16777001953125,0.2534172002512961,0.0054825961295515,-0.2233504902243614,0.0172600857913494,0.0932627543807029,-0.128490000963211
0.177798095703125,0.2433280601743608,-0.0063483826460316,-0.2466705755352974,0.0416502244770526,0.0712088495492935,-0.1428043842315673
0.187824951171875,0.161524440908432,0.0530225651353597,-0.2173240695416927,0.0712049156427383,0.0532895028591156,-0.1562687903642654
0.197852783203125,0.0192509361758828,0.1216461656369268,-0.1923462801516056,0.0946024805307388,0.0247605443000793,-0.1733630448579788
0.207880859375,-0.0471313882049173,0.1846539720833301,-0.0693862554371357,0.1070956364274025,-0.0175584163516759,-0.1928232908248901
0.217907958984375,-0.1079888116843998,0.2426337395009584,-0.0084457567840814,0.1157743334770202,-0.0557860657572746,-0.2076726257801056
0.22793603515625,-0.1835237990096211,0.3270396319534629,0.0668073448598384,0.1241241469979286,-0.0940474346280098,-0.2101269960403442
0.2379638671875,-0.2174156933479011,0.3837788064591586,0.127689391323924,0.1303752213716507,-0.1228873580694198,-0.1980784237384796
0.247990966796875,-0.2457726037822663,0.4184381049733608,0.1754015750914812,0.1323776543140411,-0.1394895017147064,-0.1680619418621063
0.25801904296875,-0.2632360720194876,0.4922562053781002,0.2615320445805787,0.1304876506328582,-0.1469694972038269,-0.1142187267541885
0.2680458984375,-0.2509615507274866,0.6003119813514873,0.4065396504521369,0.1153497025370597,-0.1493647396564483,-0.0477371662855148
0.278073974609375,-0.305488821337372,0.6562101384557784,0.5558429076910019,0.0886552110314369,-0.1367269903421402,0.0177292115986347
0.28810107421875,-0.3647437049910426,0.6795917446956038,0.7135287933498621,0.0488617196679115,-0.1127287149429321,0.0795659497380256
0.298128662109375,-0.4313530430607497,0.6998899249020963,0.8817144457131624,-0.0074501149356365,-0.0876546800136566,0.136296808719635
0.308156982421875,-0.509148668794334,0.7104724014539271,1.0050099859923125,-0.0679110661149025,-0.0767666101455688,0.1730476319789886
0.318183837890625,-0.6038442836634814,0.7042880867958068,1.0741197625756262,-0.1071191951632499,-0.0889916867017746,0.2003185898065567
0.328212158203125,-0.6722399206280708,0.7240307520113884,1.013584337592125,-0.1089778169989585,-0.0909166187047958,0.224053755402565
0.33823876953125,-0.7091787814468145,0.781098427819088,0.8580915780633688,-0.0842204466462135,-0.0706420838832855,0.2556284964084625
0.348266845703125,-0.6523397267632186,0.85890296751149,0.751062112930417,-0.0392756164073944,-0.0277761090546846,0.2976952493190765
0.358294921875,-0.5929689616449177,0.9444209311254322,0.6454951215654611,7.11604952812e-05,0.059174507856369,0.327985405921936
0.368322021484375,-0.6065057579576969,0.9718884184394032,0.5266489619106054,0.0162392109632492,0.1691068559885025,0.3407776355743408
0.378349853515625,-0.5603863963395357,0.9985600792005658,0.4941343472748994,-0.0005567718762904,0.2871331572532654,0.3224910199642181
0.388376953125,-0.5525811294160783,1.001557361320406,0.4231090924590825,-0.0354188829660415,0.3946366906166076,0.2656048238277435
0.39840478515625,-0.6160131526239216,0.998825598268956,0.2354337267279624,-0.0674049407243728,0.4684461951255798,0.1801332086324691
0.40843310546875,-0.6786416774291545,1.027654217868298,-0.0101128132134675,-0.0874942317605018,0.4953153431415558,0.0736269950866699
0.418459716796875,-0.6955551836334168,1.0324942052453756,-0.2825228101611137,-0.0819328501820564,0.4695740640163421,-0.0271932166069746
0.428488037109375,-0.6497793016906828,0.973084057964757,-0.5180161581218242,-0.0579721294343471,0.3984476923942566,-0.1105837076902389
0.438514892578125,-0.5876236550942063,0.8845973807383328,-0.6656950290292502,-0.033314324915409,0.2828266024589538,-0.1712287366390228
0.448543212890625,-0.4989935508091002,0.7404734258335083,-0.7155360415190458,-0.0011121823918074,0.1382380127906799,-0.213882714509964
0.45857080078125,-0.3923394217945635,0.6458879933405667,-0.7037468195259571,0.0305124502629041,-0.0207869745790958,-0.2340138405561447
0.468597900390625,-0.2453223757967352,0.5742193260546773,-0.5923392854392528,0.0593158714473247,-0.1746846586465835,-0.2365529090166092
0.4786259765625,-0.0886092076275497,0.5596883310727775,-0.3705097211718559,0.0688520818948745,-0.2926966845989227,-0.2293779999017715
0.48865283203125,-0.0216742178000509,0.5791888580955564,-0.0932347485363483,0.0599946752190589,-0.3421318829059601,-0.218379408121109
0.498680908203125,-0.0543624354369938,0.6536392650544643,0.1904793172359466,0.0433753430843353,-0.3389735817909241,-0.2050165235996246
0.508708984375,-0.075774714365229,0.7471499079227447,0.4993231480896473,0.0241326726973056,-0.3075195252895355,-0.1902093440294265
0.51873583984375,-0.0905950476825237,0.828526022491604,0.7623492306202649,0.0067495256662368,-0.2598828673362732,-0.1789361089468002
0.528763916015625,-0.1032710624475032,0.8620661807827651,0.9183131147921084,-0.0069361925125122,-0.1903834044933319,-0.1717229336500167
0.538791015625,-0.1567359645228833,0.8447935589425265,0.9539251109212636,-0.0082350987941026,-0.1143691390752792,-0.171977236866951
0.548819091796875,-0.2414241993144154,0.8278017268050462,0.9296165990948676,0.0044479393400251,-0.0464982129633426,-0.1753085851669311
0.558846923828125,-0.3462364267893135,0.8293462528333068,0.8636287539243698,0.0215407777577638,0.0019022661726921,-0.1819392889738083
0.568873779296875,-0.4146399547994137,0.7738024986572564,0.7332815415680408,0.0436892248690128,0.0326348766684532,-0.182009071111679
0.57890185546875,-0.4638745988938957,0.710703506796062,0.6295967106878757,0.072094902396202,0.0470318496227264,-0.1804638653993606
0.588928955078125,-0.514395118080452,0.6851786049172282,0.5004524443805217,0.1077471673488617,0.0467556789517402,-0.173802763223648
0.59895703125,-0.6155287301078438,0.7452888632912188,0.3917839798688888,0.1375395357608795,0.040834654122591,-0.165235236287117
0.60898486328125,-0.6801250478547066,0.7843092796243727,0.2906540941685438,0.1606573611497879,0.0509773045778274,-0.1523298174142837
0.619011962890625,-0.7531355582036078,0.8400104893844574,0.1986725605636835,0.1707672178745269,0.0848034173250198,-0.1474088132381439
0.6290400390625,-0.9378043625298887,0.9130524177849292,0.0805266581326723,0.1698766499757766,0.1382482647895813,-0.1529266089200973
0.63906689453125,-1.0661897732939571,0.9916419703751802,-0.0391600439995527,0.158162847161293,0.2099495083093643,-0.1564392745494842
0.649094970703125,-1.108415999931097,1.0147530891105532,-0.2452542789965867,0.1412219405174255,0.2810524404048919,-0.1556251347064972
0.659122802734375,-1.0947726014386865,0.994083810569346,-0.4713654661059379,0.1135077998042106,0.3197548687458038,-0.1473877429962158
0.66914990234375,-1.0353935068834572,0.9570756839066744,-0.7153145077228545,0.087410420179367,0.3263856172561645,-0.132950484752655
0.67917822265625,-0.9780156691480428,0.9002972733691335,-0.959586789944768,0.0600111633539199,0.2855091691017151,-0.1141884475946426
0.689204833984375,-0.8407376346152275,0.8460156480833888,-1.1079600728571417,0.038917064666748,0.205019399523735,-0.0854366943240165
0.69923291015625,-0.7178745674692094,0.8186977253079414,-1.1388169834136963,0.0134044140577316,0.106564849615097,-0.0599247440695762
0.709260986328125,-0.6027036622609943,0.8108641090728342,-1.0419149445414542,-0.007067039143294,0.0020797189790755,-0.0424176566302776
0.719287841796875,-0.5414884383197873,0.8207822764970362,-0.9069459176033736,-0.0199054647237062,-0.0735874325037002,-0.0373898297548294
0.72931591796875,-0.5059218157023191,0.9086140700113028,-0.7360235337525606,-0.0309610441327095,-0.1181024387478828,-0.0423209369182586
0.739343017578125,-0.4530930926386267,1.0356288500092925,-0.4872188687980174,-0.0438290946185588,-0.1271539181470871,-0.0547254495322704
0.749370849609375,-0.4119263849917799,1.1142042279437183,-0.2885568296283483,-0.0700353980064392,-0.1055498346686363,-0.0817280411720275
0.75939892578125,-0.3754837101921439,1.0966380299843848,-0.0969903016775846,-0.0984336212277412,-0.077792152762413,-0.1183973997831344
0.76942578125,-0.238646989686042,1.0373913296371695,0.0316647198081016,-0.129500463604927,-0.0559262707829475,-0.1465203762054443
0.7794541015625,-0.0889928731828928,0.9698549398504196,0.109915834224224,-0.1543100178241729,-0.0338441915810108,-0.1589764952659607
0.789480712890625,0.0438258438535034,0.8810337699726224,0.1757820988416671,-0.1824801415205001,-0.0080283088609576,-0.1551146358251571
0.7995087890625,0.0944601986780762,0.797994106105715,0.2678413738578558,-0.2106926143169403,0.0059273517690598,-0.1477353721857071
0.809536865234375,0.1100743127215653,0.7106897705316543,0.3554711419939995,-0.2491814196109771,0.0169027708470821,-0.1433755010366439
0.81956396484375,0.0702383422218263,0.6579524520784616,0.4008808940380811,-0.2822243273258209,0.0463351272046566,-0.1491676867008209
0.829592041015625,-0.0141170073535293,0.6812697609104216,0.3751619308918714,-0.3028396070003509,0.089536927640438,-0.1565539687871933
0.839618896484375,-0.1236757717683911,0.7552083458896726,0.3088333094596862,-0.3097950220108032,0.1614516675472259,-0.1788562685251236
0.849646728515625,-0.2103382292423397,0.8076897168204188,0.1891775869876146,-0.3121860027313232,0.2405558079481125,-0.2058186382055282
0.859675048828125,-0.2634788677994161,0.8085315744720399,0.0998024364888668,-0.3130412995815277,0.3234348893165588,-0.2392662912607193
0.86970166015625,-0.3385837931443005,0.7957704387068748,-0.0933902313590049,-0.3074593245983124,0.4056565165519714,-0.2841559946537018
0.87972998046875,-0.4230852731920778,0.7830247927717864,-0.3204775700241327,-0.2933098673820495,0.4577185809612274,-0.3360209167003631
0.8897568359375,-0.5005914875250309,0.7630793715257197,-0.5686819309979677,-0.2749691903591156,0.4714836776256561,-0.3922056257724762
0.899784912109375,-0.4952889972027391,0.7251442662112414,-0.7546680284678936,-0.2531619668006897,0.4536496102809906,-0.4436745345592499
0.909812744140625,-0.5009612706854939,0.6095523956445976,-0.8804337582528591,-0.2355398386716842,0.4081028997898102,-0.492563784122467
0.91983984375,-0.4871537676725536,0.5076821399057284,-0.9672019411236048,-0.2212857007980346,0.3415296971797943,-0.5327417254447937
0.929867919921875,-0.4636667282968759,0.3959033613538369,-1.022819783449173,-0.206460952758789,0.2555245161056518,-0.5615403056144714
0.93989501953125,-0.443121660657227,0.2896267969474196,-1.0428308903425931,-0.1853920966386795,0.158518373966217,-0.5809470415115356
0.949922607421875,-0.4255938950121402,0.2247560827059671,-1.0267360801100731,-0.1696943640708923,0.0668864473700523,-0.5914982557296753
0.959950927734375,-0.4350239866584539,0.1788724843387492,-0.9639297875851393,-0.1486581116914749,-0.0042631169781088,-0.5983548164367676
0.969977783203125,-0.468494513779506,0.0966981320642866,-0.8389677753984928,-0.1286558955907821,-0.0434049293398857,-0.5992823839187622
0.980006103515625,-0.4768364448629319,0.0429914571222849,-0.6849807442575693,-0.1163931190967559,-0.0477244183421134,-0.5907209515571594
0.990032958984375,-0.4644781908102333,0.0247964117910596,-0.5113625454515218,-0.1216696426272392,-0.0323763564229011,-0.5650579333305359
1.000060791015625,-0.4129487137768417,-0.0538513852088944,-0.3136959470599889,-0.1390877962112426,-0.0165479443967342,-0.5265715718269348
1.0100888671875,-0.3494976936075836,-0.1543932555879466,-0.1785135696321725,-0.1589302122592926,-0.0084191765636205,-0.4734521806240082
1.02011572265625,-0.2580222098287195,-0.2222708600278012,-0.0379670348227024,-0.1827530264854431,-0.0167109593749046,-0.409027636051178
1.030143798828125,-0.1200607230763882,-0.2631333240310661,0.1049713635593652,-0.2092176675796508,-0.0429612062871456,-0.3337059915065765
1.0401708984375,-0.0200695590823888,-0.2895849670996889,0.3182809367626905,-0.2310316264629364,-0.0754944682121276,-0.2629559934139251
1.050198974609375,-0.0015671031862497,-0.3356164677713066,0.4607090475350618,-0.2379680871963501,-0.0986727625131607,-0.2124712616205215
1.06022705078125,-0.0356200333051383,-0.3000998217754065,0.6267723009169102,-0.2397634834051132,-0.1017481982707977,-0.17022405564785
1.07025390625,0.0004154489330947,-0.1958316380493343,0.8510118489354849,-0.2526074051856994,-0.0890318676829338,-0.1379228383302688
1.080281982421875,0.0521102725960314,-0.1448277375263162,1.0294687199443575,-0.2643758058547973,-0.0772135108709335,-0.1199425458908081
1.09030908203125,0.1081136071078479,-0.183157796975132,1.148356965175271,-0.2654783427715301,-0.0681092292070388,-0.1150021180510521
1.1003369140625,0.1663722462657839,-0.1944985080157406,1.2090700848132372,-0.2595072090625763,-0.0481400825083255,-0.1086508557200431
1.11036474609375,0.3064444415617734,-0.1581749478174373,1.212187924572825,-0.2506479322910309,-0.0095010781660676,-0.0893104448914527
1.120391845703125,0.4032056106586009,-0.1213222491784952,1.232898119646311,-0.2492239475250244,0.0271722488105297,-0.0746966153383255
1.130419921875,0.4427379220366477,-0.1149487503575161,1.2798457487821575,-0.2497379183769226,0.05991767719388,-0.0704909488558769
1.14044775390625,0.4318280401613563,-0.147703201631084,1.228337679862976,-0.2372359633445739,0.0822740346193313,-0.0768053829669952
1.15047509765625,0.4572032313711941,-0.1046078640092164,1.110239708226919,-0.2056772410869598,0.0999220013618469,-0.0910740718245506
1.1605029296875,0.4907813105199485,-0.0140367817241698,0.9653945994406938,-0.1587942242622375,0.1125385165214538,-0.1140234991908073
1.170530029296875,0.4998031866915524,0.0669795596215873,0.7894833212614059,-0.0987761542201042,0.119397222995758,-0.1461167186498642
1.180557861328125,0.4631576827961951,0.1090375170197337,0.5773018753051757,-0.0262667667120695,0.1212068647146225,-0.1959807127714157
1.190585693359375,0.4199163608323782,0.1211293752212077,0.384500837123394,0.0504487864673137,0.1109622120857238,-0.2575295269489288
1.200613037109375,0.414810927452147,0.1341263655688613,0.2405056231647729,0.1240986734628677,0.0991592034697532,-0.3146802186965942
1.210640869140625,0.4317550479903816,0.1468942598683759,0.1223825170874595,0.181964635848999,0.0912227183580398,-0.3611816763877868
1.220667724609375,0.5142794558115303,0.1047291705676354,0.0230038589686155,0.2169014811515808,0.0776726529002189,-0.3829770386219024
1.230696044921875,0.6345052332565188,0.0271204091756604,-0.0555056141227483,0.2390408664941787,0.0554986372590065,-0.3782461881637573
1.240723876953125,0.7254089084967971,-0.0309674034600146,-0.0900678089380264,0.2486971318721771,0.0205221381038427,-0.3560187518596649
1.250751220703125,0.8058752147443592,-0.0658621729642152,-0.057020694860816,0.2511078119277954,-0.0303596816956996,-0.3147586584091186
1.26077880859375,0.8891384582340717,-0.0531053297816775,0.0118260468721389,0.2478594928979873,-0.0839388146996498,-0.2525501251220703
1.270805908203125,0.9634992872133852,0.0262385300409048,0.1384796654075384,0.2335130423307418,-0.1238699778914451,-0.1839939504861831
1.280833984375,0.9864623757801948,0.1516888463343028,0.3113654582858085,0.2162150740623474,-0.1486211866140365,-0.114508993923664
1.290862060546875,0.9389487833246588,0.3394068730302155,0.5105190803647041,0.1970003694295883,-0.1590429246425628,-0.0551415383815765
1.300888916015625,0.8990721885535865,0.5317532993122935,0.719472796446085,0.1709614396095276,-0.144499585032463,-0.0065325042232871
1.3109169921875,0.8657001533709466,0.7043498999856412,0.9181886116296052,0.1516766846179962,-0.1121938452124595,0.0329248905181884
1.32094384765625,0.8598280464671552,0.8375942950882017,1.0343541538983585,0.1386217921972274,-0.0783532857894897,0.0628725215792656
1.330971923828125,0.8742286930676549,0.9595256343420594,1.157743802201748,0.1301028728485107,-0.0479106903076171,0.0902373045682907
1.340999755859375,0.8659003521181643,1.0930440971456468,1.2121996150106191,0.1280464380979538,-0.018979575484991,0.1044458523392677
1.351027099609375,0.7789552783105522,1.2087148416347802,1.1912468433529138,0.1353192627429962,-4.13050875067e-05,0.0976361483335495
1.361054931640625,0.6449553886655718,1.2771639623522757,1.129089370125532,0.1546295881271362,0.0086211552843451,0.0775553956627845
1.371081787109375,0.5678009103797376,1.3418059458717704,1.0325462276935575,0.1766384840011596,0.0151757281273603,0.0528876036405563
1.38110986328125,0.5373764729563146,1.412419405016303,0.9556208089232444,0.1975709199905395,0.0194716602563858,0.0281109046190977
1.391137939453125,0.5005500595360994,1.4287548921369015,0.8746154273629188,0.2105684876441955,0.0127570321783423,0.0002007086877711
1.4011650390625,0.4867734631180763,1.383224582453072,0.797353323984146,0.2229372560977935,-0.0069107618182897,-0.0207550190389156
1.41119287109375,0.5020584182724356,1.350108933184296,0.7561258260607719,0.2264571487903595,-0.0205328315496444,-0.0359366349875927
1.4212197265625,0.4836447366382926,1.2984611635334788,0.7111936284005641,0.2155509442090988,-0.0245486386120319,-0.0419324710965156
1.431248046875,0.5205825745437294,1.2303690395601092,0.6154805070519447,0.1952733695507049,-0.0275777205824852,-0.0432299636304378
1.44127587890625,0.5175155881885439,1.160896347948536,0.5158323843419551,0.1696512103080749,-0.0343857407569885,-0.0357633009552955
1.451302978515625,0.5423292730581015,1.132048366061598,0.4176309533089399,0.1354207992553711,-0.0432162508368492,-0.0206466652452945
1.461330810546875,0.5601194159664213,1.1082397665813564,0.3355295932054519,0.1028237715363502,-0.056771345436573,-0.0067030694335699
1.47135791015625,0.5157053238961845,1.0655733218960464,0.2374883211702108,0.0822676345705986,-0.0714168697595596,0.0006547122611664
1.4813857421875,0.4331655723754316,1.043575936556235,0.1709457647264003,0.0804222822189331,-0.0787736102938652,0.0045115076936781
1.491413818359375,0.3984589275881647,1.0627142792031168,0.0889735839605331,0.0770688280463218,-0.0746758058667182,0.0103342430666089
1.50144091796875,0.3696569037348032,1.0579050522904845,-0.0037514614880084,0.0640187412500381,-0.0762781873345375,0.0238384511321783
1.511468994140625,0.419219683805108,0.9826967396363616,-0.0351911403685808,0.0410031713545322,-0.0949584022164344,0.0365632995963096
1.52149560546875,0.4072062976673245,0.9229906781490892,-0.1279512571305036,0.0130373165011405,-0.1163481101393699,0.0544573441147804
1.53152392578125,0.3825765179973095,0.9159411249637603,-0.2327905187427997,-0.0178809184581041,-0.1317760646343231,0.0705143436789512
1.5415517578125,0.4191447188727557,0.8926894287139177,-0.3227601280033588,-0.0454711243510246,-0.1496853828430175,0.0889389365911483
1.5515791015625,0.4293116003610193,0.9079176121797412,-0.3494850533217191,-0.0737022310495376,-0.1494158655405044,0.1049344167113304
1.561606689453125,0.3661484572224319,0.9343285761781036,-0.3841711667776107,-0.1068095713853836,-0.1287552416324615,0.121209867298603
1.5716337890625,0.3104390641558915,0.9118790631566196,-0.3813707224041223,-0.1591428220272064,-0.108338639140129,0.1431335359811782
1.581661865234375,0.3536782672278583,0.8433074851032346,-0.3782312553346157,-0.2378095388412475,-0.0993096381425857,0.1751497685909271
1.59168994140625,0.3713736445248127,0.756673450006172,-0.4292524175196885,-0.3169333934783935,-0.1194021254777908,0.209414005279541
1.601716796875,0.3355073813736438,0.7459963539734482,-0.4782230769157409,-0.3729066252708435,-0.1620170325040817,0.2426181882619857
1.611744873046875,0.2267857984352856,0.8344593580633402,-0.58458618709445,-0.394317626953125,-0.2029452919960022,0.2572019398212433
1.62177197265625,-0.0580003535479307,0.930257235085964,-0.7622673975557088,-0.3653771579265594,-0.2034324705600738,0.2361736595630645
1.631800048828125,-0.4294003746230155,1.0021524776693431,-0.9981985524117946,-0.3198206126689911,-0.1777420192956924,0.193720206618309
1.64182763671875,-0.65236033115983,1.030852283257246,-1.1168284389674663,-0.2905378937721252,-0.1491326093673706,0.1347856968641281
1.65185498046875,-0.8236991137918085,0.9416490552593022,-1.223123160085082,-0.2812240123748779,-0.1134888604283332,0.0387888588011264
1.66188330078125,-1.0456984816681594,0.7295936468355357,-1.501632058429718,-0.2600555121898651,-0.0723004266619682,-0.0736619234085083
1.67191064453125,-1.1455873543314634,0.5286871166747064,-1.8936901790648697,-0.2134153097867965,-0.0430783554911613,-0.1615491658449173
1.681938232421875,-0.9976876072149724,0.381900518431887,-2.2573960654407736,-0.1541872173547744,-0.039019051939249,-0.2010614573955536
1.691966552734375,-0.75079074864313,0.1635292231258936,-2.4699065972208976,-0.1074612587690353,-0.0781400874257087,-0.1953007727861404
1.701993408203125,-0.4779027589201927,-0.1478143155890517,-2.405918401435017,-0.1028443649411201,-0.1651971936225891,-0.1544274091720581
1.712021484375,-0.1743110764410346,-0.5000159161267802,-2.0681489203482863,-0.1449065953493118,-0.2768065631389618,-0.0918260663747787
1.72204833984375,0.1847886313136666,-0.8230873385690152,-1.6579022320717571,-0.2156929522752761,-0.3970232009887695,-0.0180904790759086
1.732076416015625,0.4617358332995325,-1.026276207513362,-1.2515671642810104,-0.2765208780765533,-0.4905638098716736,0.0570910908281803
1.7421044921875,0.6117583447236568,-1.0378355662733316,-0.8994517624557018,-0.3069164454936981,-0.5210838317871094,0.1431529521942138
1.75213134765625,0.7123297928236425,-0.8890634202364832,-0.5247258848935366,-0.3332002460956573,-0.4919200241565704,0.2329632639884948
1.7621591796875,0.8116226723551749,-0.8274208377286791,-0.1443675544023513,-0.3619454801082611,-0.4145511388778686,0.3136079907417297
1.7721875,0.8854232371032238,-0.9138831695206464,0.2049135007798671,-0.3931585252285003,-0.3268686532974243,0.3789558410644531
1.78221435546875,0.9500533840544522,-0.9550437396876512,0.5092705416083335,-0.4173615872859955,-0.2216582745313644,0.4407630860805511
1.79224267578125,0.8688013342566787,-0.9114192636251448,0.65838441375494,-0.4273985028266907,-0.1120907664299011,0.4858812987804413
1.80226953125,0.729984691979736,-0.8969369300905614,0.7698071454107761,-0.4192242622375488,-0.0294168852269649,0.5158206820487976
1.81229736328125,0.5924846852593123,-0.9310385947220028,0.8139782955706119,-0.3931878805160522,0.0278336219489574,0.5239685773849487
1.822325439453125,0.4586833869263529,-0.9733782186057418,0.8032067261874676,-0.3567274808883667,0.0557186640799045,0.5166897177696228
1.832352294921875,0.3237340876020491,-0.963302814793214,0.7850731036037206,-0.3075687289237976,0.0531665571033954,0.4943772256374359
1.84238037109375,0.1745747688785195,-0.8959451425742357,0.7824468467533588,-0.2424280047416687,0.0357953533530235,0.4515719413757324
1.852407470703125,-0.0279432150669395,-0.8645210996542125,0.7556354121953248,-0.1537529975175857,0.0120165199041366,0.3879479765892029
1.862435302734375,-0.2617509480282664,-0.8376957827012985,0.720229752293229,-0.0525234118103981,-0.0031617893837392,0.3091045022010803
1.87246337890625,-0.4304458650879562,-0.8369623538602143,0.7011030270189046,0.0506996437907218,-0.0118271838873624,0.234315738081932
1.882490478515625,-0.4732252686284482,-0.8519894617959857,0.7337240246385336,0.1477503180503845,-0.001481404993683,0.1736701428890228
1.8925185546875,-0.4351170717693865,-0.943184302002564,0.7404933726429939,0.2276336997747421,0.0321236923336982,0.1339802592992782
1.902545654296875,-0.3928016324788331,-1.0377531486868858,0.7718839516848325,0.2816794812679291,0.0833180844783783,0.1185643076896667
1.9125732421875,-0.3261361803077161,-1.117355458516255,0.8349877658516168,0.296360433101654,0.1414117515087127,0.1229888871312141
1.922601318359375,-0.2656592075131833,-1.2088306500341743,0.906889218980074,0.2754949331283569,0.1897014081478119,0.1407546252012252
1.93262841796875,-0.2150898807488381,-1.2692169488705694,0.9534037173956632,0.2393846064805984,0.2167996019124984,0.1652953773736953
1.942656494140625,-0.1729099044062197,-1.300851858062297,0.9242238001406192,0.2028889507055282,0.2246778905391693,0.1933510601520538
1.952683349609375,-0.170576566087827,-1.2561390022411942,0.8543915545016527,0.1828212440013885,0.219805896282196,0.2210359573364257
1.962711669921875,-0.1311485918670892,-1.1452126758001744,0.7423229261577129,0.179648220539093,0.2120732218027115,0.2483996301889419
1.972739501953125,-0.0728140379287302,-1.0096128036126495,0.7687269489586352,0.1814418584108352,0.1940119415521621,0.267014592885971
1.982766357421875,-0.0688189038779586,-0.8806286963030695,0.8424199616789817,0.177627220749855,0.1734566539525985,0.2631777226924896
1.99279443359375,-0.0938407516054809,-0.7525950215861201,0.9588543840169906,0.1703666448593139,0.1465387642383575,0.2397147566080093
2.002821533203125,-0.131583110826835,-0.611793087243475,1.0900105746686457,0.1632738709449768,0.1223114505410194,0.1988781243562698
2.012849609375,-0.1584598657060414,-0.4825222354143857,1.141180205413699,0.168115496635437,0.1108417510986328,0.1466487348079681
2.022877197265625,-0.2385178103484213,-0.3064633289253339,1.1565361799776552,0.1758960783481598,0.1153946295380592,0.0936909988522529
2.032904296875,-0.3093588677037507,-0.1158789804123342,1.223335926052928,0.1702682822942733,0.1405870765447616,0.0324284397065639
2.0429326171875,-0.4478557765070349,0.028518676867336,1.2149942141652106,0.1611814647912979,0.1806473135948181,-0.0425032675266265
2.05295947265625,-0.6354834306389093,0.1096820985335856,1.1472568949788808,0.1575502455234527,0.2124819457530975,-0.1202555894851684
2.062987548828125,-0.714262441386655,0.2090924669649451,1.0571224505454302,0.1650557965040207,0.2339404374361038,-0.1984269917011261
2.073015380859375,-0.800656822508946,0.3087793507827445,0.8749462667524814,0.1918104439973831,0.2401240319013595,-0.2742850184440613
2.08304248046875,-0.8991660773821175,0.356414341128245,0.712215957185626,0.2280971109867096,0.2259902954101562,-0.3432274460792541
2.093070556640625,-0.9623029901009053,0.4017127782849595,0.5919096618503332,0.2592840790748596,0.1916400492191314,-0.4075318574905395
2.103097412109375,-1.0268869598228485,0.4049449651392176,0.4979717334806919,0.2753412425518036,0.1441566348075866,-0.4610160887241363
2.11312548828125,-1.0461007788587362,0.3423470912005752,0.4210094898313283,0.2695571184158325,0.094258576631546,-0.5003032684326172
2.123153564453125,-1.028688237091154,0.2807445667085237,0.351232773771882,0.248243048787117,0.0456987656652927,-0.5225987434387207
2.13318017578125,-1.0504684725489466,0.2664914022873155,0.2826929060310125,0.2147504985332489,0.0022203773260116,-0.529796302318573
2.14320849609375,-1.0581355000454933,0.2258635507575236,0.2205266649752855,0.180989071726799,-0.0365928001701831,-0.5275296568870544
2.1532353515625,-1.0106191311109811,0.1745461090396158,0.1090115788608789,0.1557186096906662,-0.075674682855606,-0.5248587727546692
2.163263671875,-0.9544971386555582,0.2164722750179469,0.1068979477077722,0.127786785364151,-0.1320882886648178,-0.5088937282562256
2.17329150390625,-0.8721854968022554,0.2523214409038424,0.0433335302919149,0.1092325374484062,-0.1465742886066436,-0.494258850812912
2.183318359375,-0.7826663347229361,0.24330975733269,0.0138765496611595,0.0940008759498596,-0.1541498154401779,-0.4811059236526489
2.193346435546875,-0.7038286525905132,0.2889368236555718,0.1251689329355955,0.0738178417086601,-0.1431136727333068,-0.4717116355895996
2.20337451171875,-0.6163762868478894,0.3083766517333686,0.1720072564780712,0.0483779124915599,-0.1101805567741394,-0.4591590762138366
2.2134013671875,-0.5424545799382031,0.2955165125731379,0.2784346640646457,0.0106827300041913,-0.0686344355344772,-0.4464893341064453
2.223429443359375,-0.4291782563049346,0.3008091938874684,0.3387099768072366,-0.0294993389397859,-0.026089571416378,-0.4376757740974426
2.233456298828125,-0.3705949152372777,0.3119192927762866,0.3450269048690795,-0.0627971068024635,0.0082742609083652,-0.4398052394390106
2.243484619140625,-0.3644173956461251,0.3573028874658048,0.2452110243767499,-0.0809943750500679,0.033470943570137,-0.4677379429340362
2.25351220703125,-0.3837643395423888,0.4084887386932969,0.0794593211621046,-0.0801213905215263,0.0486549586057662,-0.499441534280777
2.26353955078125,-0.3227328746702522,0.4639265117442235,-0.0390443086653947,-0.0670702904462814,0.0578091405332088,-0.5334508419036865
2.2735673828125,-0.3181191703297197,0.5278545017754659,-0.1891033527076244,-0.0480518601834774,0.0795426666736602,-0.5718371272087097
2.283594482421875,-0.3001691606845706,0.5434082639338448,-0.3364256652623414,-0.0361730977892875,0.09490617364645,-0.6059255599975586
2.293622314453125,-0.2397295242257416,0.5648795065077021,-0.4267202686935663,-0.0351363271474838,0.1127549484372139,-0.639132559299469
2.3036494140625,-0.2345750640720129,0.5643037524463609,-0.5600725080847739,-0.0444730855524539,0.1358398646116256,-0.67653888463974
2.313677490234375,-0.2572610161978751,0.5318510971309617,-0.7110796466320752,-0.0599021129310131,0.1500401049852371,-0.7104385495185852
2.32370556640625,-0.2015896170541644,0.4788214812003076,-0.8624766612797975,-0.0795539766550064,0.152030199766159,-0.7315153479576111
2.333732177734375,-0.0927042218562215,0.3964093381145969,-0.9705810621678828,-0.0975297838449478,0.1391796469688415,-0.7423189878463745
2.343760498046875,-0.0382239321932196,0.3376099066108465,-1.0141302810370922,-0.1201417967677116,0.1050334423780441,-0.7446218729019165
2.353788330078125,0.0341953342642635,0.2900867243430577,-0.9621066638112068,-0.1561338901519775,0.0420595444738864,-0.7501886487007141
2.363815673828125,0.0530130666546523,0.3098569168863818,-0.8669459156483411,-0.1995129287242889,0.0001201657578349,-0.7670949697494507
2.37384326171875,-0.1175112577892839,0.3290650003012269,-0.861289497321844,-0.2209950536489486,-0.0179959870874881,-0.8119450211524963
2.383870361328125,-0.3071483520474284,0.354668666504696,-0.8661234933495521,-0.2139051705598831,-0.0289529301226139,-0.8654834628105164
2.3938984375,-0.4566589684266596,0.5369664308506995,-0.838818137794733,-0.1939138770103454,-0.0197522416710853,-0.9201461672782898
2.403926513671875,-0.6605159458909183,0.7449303321771323,-0.8414619303017854,-0.174395278096199,0.0309768095612525,-0.98852276802063
2.413953369140625,-0.9461747159902004,0.8922051523283123,-0.9072668201208114,-0.1584810316562652,0.100754290819168,-1.0779976844787598
2.4239814453125,-1.2187536397639662,0.9817019564453512,-1.021187798333168,-0.1314149647951126,0.1725681871175766,-1.1859289407730105
2.434008544921875,-1.3117572829581796,0.9175774209287018,-1.2742384302943943,-0.0770926028490066,0.232798233628273,-1.2726622819900513
2.444036376953125,-1.07163262193501,0.7306023124214261,-1.545088338318467,-0.0183243751525878,0.2604202628135681,-1.311296820640564
2.454064208984375,-0.6682669984091073,0.4189534706169739,-1.6912924604982136,0.0112827848643064,0.2265099883079528,-1.31240975856781
2.464091552734375,-0.3397795057348907,-0.0133476304162293,-1.6450199541449546,0.006567183881998,0.1387135684490203,-1.299229383468628
2.474119384765625,-0.0578123566951602,-0.4799475626207888,-1.5479197623521088,-0.0267399065196514,-0.0005359281785786,-1.265807867050171
2.484146240234375,0.3389676778953522,-0.8166986604452132,-1.33107383171618,-0.0661701783537864,-0.1594922095537185,-1.1944047212600708
2.494174560546875,0.8336043486692011,-1.0839522975429892,-1.114810669404268,-0.1059932187199592,-0.3076116442680359,-1.096598505973816
2.504202392578125,1.237372488581389,-1.3374375215291976,-0.7795861966252327,-0.1452889740467071,-0.4394626915454864,-0.9880582690238952
2.514229736328125,1.5535434474527834,-1.50301766756922,-0.3224140910446643,-0.1765065491199493,-0.5206739902496338,-0.8882331252098083
2.52425732421875,1.7103563496693968,-1.5260991218186917,0.1201169102430343,-0.1932845711708068,-0.5308573246002197,-0.8145784735679626
2.534284423828125,1.7367355302900074,-1.4173437096759676,0.5251701215296983,-0.1937287896871566,-0.4714480638504028,-0.7714920043945312
2.5443125,1.7057864114053547,-1.294389091788977,0.8187813119381666,-0.1771333366632461,-0.3686817586421966,-0.7605711817741394
2.55434033203125,1.7834065344415604,-1.311781979008019,0.9698831430315972,-0.1395657211542129,-0.2436777800321579,-0.7664945721626282
2.564367431640625,1.915865332124382,-1.3637053507298231,1.037133555483818,-0.0931038111448288,-0.1084709465503692,-0.7750527858734131
2.5743955078125,1.991281369245052,-1.4098340646982193,1.0064403110563755,-0.0379835665225982,0.0169607475399971,-0.7886839509010315
2.58442236328125,1.9987392840355636,-1.3953553113602102,0.9446037403464316,0.0173451118171215,0.1084396466612815,-0.8063141107559204
2.594450439453125,1.929889327432215,-1.3956817668356,0.8679805193930864,0.0606454499065876,0.1666968166828155,-0.8275847434997559
2.604478271484375,1.79524047235921,-1.3802449821203946,0.7418710907369852,0.0990578159689903,0.191000297665596,-0.8582550883293152
2.614505615234375,1.6128399782910945,-1.3533077292256055,0.6289502294778824,0.1361189037561416,0.1743675172328949,-0.8904867768287659
2.624533447265625,1.5037240622729062,-1.292054803622514,0.5613479348480701,0.1613959372043609,0.138317584991455,-0.9050797820091248
2.6345615234375,1.4937319528296589,-1.195487111271173,0.5085761296033859,0.1807643175125122,0.1027446836233139,-0.8988860845565796
2.64458837890625,1.498259659387171,-1.0939635500781235,0.4974345578640699,0.1922231614589691,0.067360021173954,-0.8690657019615173
2.654616455078125,1.5111948365449903,-1.0055825982484965,0.6020365035891533,0.1903885155916214,0.0438879802823066,-0.8220776915550232
2.664642822265625,1.4655930690601466,-0.8422750733155757,0.7576824078530072,0.166975200176239,0.0211313590407371,-0.7715437412261963
2.6746708984375,1.3641256219685076,-0.5726999344676733,0.99706925612092,0.1266168504953384,0.0116869900375604,-0.7269725799560547
2.684698974609375,1.2274635273769496,-0.3183160080760717,1.2271446706861258,0.0837759152054786,0.0168111771345138,-0.7059738039970398
2.69472607421875,1.0572999260041862,-0.0567648889022646,1.3794821810543536,0.0595741719007492,0.0227747932076454,-0.705520510673523
2.704754150390625,0.8592284000735729,0.198346981871128,1.424676244521141,0.0592265166342258,0.0149003732949495,-0.7217430472373962
2.714781005859375,0.7892583533991128,0.464430260015279,1.4500070851325988,0.0797578915953636,0.0085402112454175,-0.7395001649856567
2.724808837890625,0.737655007411912,0.7045660269543528,1.4629004689753056,0.1074142083525657,0.0208404995501041,-0.7569403648376465
2.734837158203125,0.6905348712533712,0.8904076013870537,1.4770254404395815,0.1315967887639999,0.0524120070040226,-0.7660507559776306
2.74486376953125,0.6861136207450181,1.0292107996605335,1.498537599545717,0.1276147365570068,0.0964997857809066,-0.7729251980781555
2.75489208984375,0.6656945175725967,1.1084283479560166,1.5180968710184095,0.0998978912830352,0.1395111680030822,-0.7753473520278931
2.7649189453125,0.6714913672830909,1.13143359516412,1.430351367548108,0.0627235025167465,0.1796431541442871,-0.7749106884002686
2.774947021484375,0.704076051480323,1.1388624299906194,1.3005045059293507,0.0283705908805131,0.2149588018655777,-0.7635565996170044
2.78497509765625,0.7138909777257592,1.2482334898136556,1.110689790081978,-0.0003290511667728,0.2464170604944229,-0.7510554194450378
2.795001953125,0.6996692678887396,1.3170771628066895,0.90180504758358,-0.0288560315966606,0.261071115732193,-0.7493677735328674
2.805030029296875,0.6393849681220948,1.3251346509255468,0.7250637483209371,-0.0531201213598251,0.2401155680418014,-0.7611700296401978
2.81505712890625,0.5700819339890033,1.335510791250318,0.5545563750118017,-0.0730147361755371,0.1872715204954147,-0.7908017039299011
2.825084716796875,0.5008033767100424,1.3488001886732877,0.3507131338119507,-0.0816891267895698,0.1076921373605728,-0.8286810517311096
2.835113037109375,0.4693476965427398,1.359790807634592,0.1887730978399515,-0.0763992890715599,0.019275989383459,-0.8653112649917603
2.845139892578125,0.5282184031844139,1.3578453726552426,0.0866688141494989,-0.0676647871732711,-0.0685551539063453,-0.8919809460639954
2.855168212890625,0.5888161528144031,1.3261261461809275,0.0216910228043794,-0.0584843419492244,-0.1457900255918502,-0.9033864736557008
2.865195068359375,0.6459818091038614,1.2422484240546825,0.01012684173882,-0.0574440509080886,-0.204762652516365,-0.900032103061676
2.875222900390625,0.7356538236573338,1.164654166112095,0.0278957226634025,-0.0707721039652824,-0.2453537583351135,-0.875594437122345
2.8852509765625,0.8454149057112633,1.123201773391664,0.052091421765089,-0.0940846130251884,-0.2734881937503814,-0.8387149572372437
2.89527783203125,0.9103511960022151,1.0995935187891126,0.0829115074425935,-0.1193300485610961,-0.298251062631607,-0.7940763831138611
2.905305908203125,0.9621890813976526,1.039812565434724,0.0690653529196977,-0.1454219371080398,-0.3152101337909698,-0.7390892505645752
2.915333984375,1.0353132812540975,0.9946589801087976,0.0739127929508686,-0.1717464923858642,-0.3212208747863769,-0.6729301810264587
2.925361083984375,1.057062463986501,0.9617973786663264,0.1391840142846107,-0.2005400210618972,-0.3109658658504486,-0.6087973117828369
2.93538916015625,1.075661950516328,0.9031973056595772,0.210044433927536,-0.2279274463653564,-0.2990386188030243,-0.5472556352615356
2.945416015625,1.080731581930816,0.8343992253739386,0.23519582631886,-0.2480453997850418,-0.2832553386688232,-0.4961698353290558
2.955444091796875,1.0815385874647647,0.7868357293620705,0.2507470311939716,-0.2534934282302856,-0.2549936175346374,-0.4512052834033966
2.965471923828125,1.0401897281840442,0.818296597161144,0.1911772363722324,-0.2578548491001129,-0.2132295221090316,-0.4156272709369659
2.9754990234375,0.9597993367169052,0.82900430752784,0.1367483115702867,-0.2627002000808716,-0.1763069331645965,-0.3917626738548279
2.98552685546875,0.9068984251998364,0.793604785105586,0.1105751749157905,-0.2786872088909149,-0.1533044278621673,-0.382717490196228
2.995553955078125,0.7909244599804282,0.7474297477774322,0.059448798790574,-0.3001379072666168,-0.1578179597854614,-0.3919008672237396
3.00558203125,0.6773712921671569,0.6755687727898358,-0.0253840321034193,-0.3141749203205108,-0.1687414646148681,-0.3989702463150024
3.01560986328125,0.6416721292112022,0.6231356979802251,-0.1555026964008808,-0.3236536383628845,-0.1795562952756881,-0.3983156383037567
3.02563720703125,0.6542017943080515,0.604246873115003,-0.2577279761224985,-0.3204247653484344,-0.1891064494848251,-0.3972358405590057
3.0356650390625,0.5438587476477027,0.6319229616783559,-0.3842214356601238,-0.3000518679618835,-0.1859125196933746,-0.4165759682655334
3.045692138671875,0.309188114246726,0.6287254077460617,-0.5643745891928672,-0.2615285217761993,-0.1397380828857422,-0.4712028503417969
3.055719970703125,0.0995234734170138,0.5479606300085783,-0.8071160085856914,-0.2175067514181137,-0.0723617002367973,-0.5590043663978577
3.065747802734375,-0.0920158742658793,0.4554644248798489,-0.9872042801886796,-0.1857741028070449,-0.0032032066956162,-0.6712444424629211
3.075775146484375,-0.2679465877979993,0.3785096338845789,-1.2269459332436323,-0.1505474001169204,0.0742148905992508,-0.8013153672218323
3.08580322265625,-0.5136692149586976,0.3197216736229136,-1.667957177618146,-0.093644268810749,0.1509601026773452,-0.9346675872802734
3.095829833984375,-0.6817834095209837,0.2323206362087279,-2.158795990478992,-0.0282391589134931,0.2046704739332199,-1.0499663352966309
3.105858154296875,-0.6848116713009774,0.0355966615627054,-2.5838100397765635,0.0196082647889852,0.1877397894859314,-1.1420912742614746
3.115885986328125,-0.6103657213214785,-0.3356074442146345,-2.7978327296853065,0.0395982190966606,0.0862208902835846,-1.2173713445663452
3.125913330078125,-0.4345390526857227,-0.795407962070033,-2.8512831648439168,0.0170419123023748,-0.1076148077845573,-1.2550795078277588
3.13594091796875,-0.0585845831766724,-1.2142475605163725,-2.7021242845118043,-0.0253931637853384,-0.363781601190567,-1.227378010749817
3.145968994140625,0.4672095154702663,-1.5541966506645082,-2.4210627790749077,-0.074043869972229,-0.61570143699646,-1.136305332183838
3.15599609375,0.9118522482149304,-1.7170945718832311,-1.949996588176489,-0.1161329969763755,-0.7892037034034729,-1.0021014213562012
3.166024169921875,1.21837099712193,-1.761199817200005,-1.3600795614480972,-0.1471959352493286,-0.8321040868759155,-0.8521627187728882
3.176051025390625,1.4461260059155523,-1.70219569343701,-0.7109978135675191,-0.185855433344841,-0.754438042640686,-0.6942346096038818
3.1860791015625,1.6550274072878062,-1.6040546142891048,0.0825081873387098,-0.2426653653383255,-0.5834161043167114,-0.5509133338928223
3.196107177734375,1.7442884298875927,-1.5016164224691688,0.7954588885396718,-0.324395090341568,-0.356725662946701,-0.434339314699173
3.206134033203125,1.6724847380451855,-1.3811293637394904,1.333416010928154,-0.4117385149002075,-0.1230277121067047,-0.3561731576919555
3.216161865234375,1.556014659871906,-1.3082298394843934,1.599710739865899,-0.4740011096000671,0.0936260372400283,-0.3173514604568481
3.226189208984375,1.4127689491063355,-1.2407573087140915,1.5687468618035316,-0.4858782291412353,0.273879736661911,-0.3110405504703522
3.236217041015625,1.2485505929388103,-1.1210663687981663,1.3595757035791871,-0.4478562772274017,0.4000624418258667,-0.3284632265567779
3.246245361328125,1.0627568031705916,-0.9968493297599256,1.1016425602734088,-0.3692236542701721,0.4895690381526947,-0.3671855628490448
3.25627197265625,0.8549633630402386,-0.9136489223733544,0.8564917416512966,-0.2656970024108886,0.5605319142341614,-0.4260174334049225
3.266300048828125,0.5836915763422846,-0.8877835364937782,0.6549784047037362,-0.1563000977039337,0.6329058408737183,-0.4966223239898681
3.2763271484375,0.3129709937863051,-0.8849264665622264,0.4932727620095014,-0.0649342238903045,0.6977881789207458,-0.5704019665718079
3.28635498046875,0.1425510064996779,-0.9192351980730892,0.4079734826475382,-0.0141426799818873,0.7472783923149109,-0.6349034309387207
3.296383056640625,0.0625249913655221,-1.0607387413464486,0.3063900079607963,0.008689665235579,0.7633122205734253,-0.6882385611534119
3.30641015625,-0.0465890249565243,-1.2090109750371425,0.1899906569361686,0.0119320191442966,0.7325413823127747,-0.7369462251663208
3.31643798828125,-0.1421573310069739,-1.2793699479639529,0.0598188011467456,0.0168356969952583,0.6722040176391602,-0.7646561861038208
3.326465087890625,-0.1081326040692627,-1.3314569858148693,-0.1050268931388855,0.0299436710774898,0.596963107585907,-0.7573503255844116
3.336492919921875,0.012180267137289,-1.3191054537639022,-0.2417576690524816,0.0468590036034584,0.500352680683136,-0.7233039140701294
3.346521240234375,0.1030851114213466,-1.2437443617008626,-0.2679202843129635,0.0547548867762088,0.400358647108078,-0.6752186417579651
3.3565478515625,0.1147432543806731,-1.167343843587488,-0.240085936447978,0.0520086362957954,0.3114596605300903,-0.6285680532455444
3.366575927734375,0.1297429628528654,-1.0520027694441378,-0.1319809510380029,0.0342441722750663,0.2468154281377792,-0.5861651301383972
3.37660400390625,0.1228730040181428,-0.853060159767419,0.056337973293662,-0.0031415503472089,0.2060363143682479,-0.5625135898590088
3.386631103515625,0.0853024211671203,-0.7209699031360447,0.2387543955832719,-0.0367421731352806,0.1873331665992736,-0.5566202998161316
3.3966591796875,0.133049822378531,-0.6291875453650951,0.351555429854989,-0.0488963052630424,0.178453654050827,-0.5545539259910583
3.40668603515625,0.2811633583761751,-0.4551356678495183,0.4889613285511732,-0.0451308973133564,0.1753380000591278,-0.5485665798187256
3.4167138671875,0.3862089562155306,-0.2896411542663351,0.6117044956445694,-0.0248661078512668,0.1803615093231201,-0.5449420213699341
3.4267421875,0.4348309483043849,-0.1586170107628218,0.7270400168299674,0.001196235185489,0.1885951906442642,-0.550658106803894
3.436768798828125,0.4485854790210724,-0.0700042777376249,0.8714829745560884,0.0200900305062532,0.2001253515481948,-0.5673571825027466
3.446797119140625,0.4097418805595487,0.0173963395514525,0.964179962953925,0.0278667267411947,0.1994563639163971,-0.6043106913566589
3.456823974609375,0.2909713434241712,0.1386581637796014,1.0684791263401507,0.0363797880709171,0.1879243403673172,-0.6555565595626831
3.46685205078125,0.237068342192471,0.2549907331783324,1.0912339789837595,0.0417917147278785,0.1700838208198547,-0.7129579186439514
3.4768798828125,0.1600957232795655,0.357271067555435,1.071029979866743,0.0613449066877365,0.1419616490602493,-0.7870180606842041
3.486906982421875,0.0639361002724617,0.4080429311545565,1.026215855628252,0.1029692813754081,0.1072787269949913,-0.8528545498847961
3.49693505859375,-0.0017697861514985,0.4665159802481531,0.9086702571779488,0.161479189991951,0.0874930396676063,-0.9043957591056824
3.506962158203125,-0.058221595083177,0.5852558665169403,0.7925345255255699,0.2170315831899643,0.0788068175315857,-0.9347562789916992
3.51698974609375,-0.1111737983960658,0.6273145911000668,0.6407482192993164,0.2630640566349029,0.0836511105298996,-0.9480283856391908
3.52701806640625,-0.1864932432744652,0.5987924071013927,0.5448702627778053,0.2831137180328369,0.0807811468839645,-0.9520036578178406
3.537044921875,-0.1923927496418356,0.618290596036613,0.526834255349636,0.2768430411815643,0.0805124342441558,-0.9427672624588012
3.5470732421875,-0.2128698666118085,0.6905589097160846,0.4882359368860721,0.2515771090984344,0.0898826941847801,-0.9205704927444458
3.55710009765625,-0.3015074966162443,0.7683651299089193,0.4073258323937654,0.2172542959451675,0.1116905212402343,-0.8910844922065735
3.5671279296875,-0.383531845960766,0.7747855183452367,0.2872866635620594,0.1844789236783981,0.1299678832292556,-0.8521581888198853
3.577156005859375,-0.4055547310680151,0.7823458705969154,0.1332207219660282,0.1600052714347839,0.1484939008951187,-0.8018606305122375
3.587182861328125,-0.4124603092053905,0.8315485851831733,0.0172334588736295,0.136096179485321,0.1623114347457885,-0.7472288608551025
3.5972109375,-0.4589602311063557,0.8958233428254723,-0.0882400089889764,0.1118784546852111,0.1650822013616562,-0.7000845074653625
3.607239013671875,-0.4903899000495672,0.9378406759522856,-0.1789016921669244,0.0835214108228683,0.1645053476095199,-0.6675363779067993
3.61726611328125,-0.5350262931009754,0.9640137395415456,-0.2457937927007675,0.0563387908041477,0.1531272679567337,-0.6469730138778687
3.627294189453125,-0.5274744164166971,1.0065892910730092,-0.3107955494433641,0.0322258546948432,0.1368262320756912,-0.6343291401863098
3.637321044921875,-0.5101405293758958,1.0121130229305475,-0.360182972946763,0.0140801398083567,0.1064155921339988,-0.6172503232955933
3.64734912109375,-0.3832179211733862,0.9503495905220508,-0.3498819436848163,-0.0024975019041448,0.0650917664170265,-0.5945620536804199
3.657376953125,-0.22927567902226,0.9152025815561412,-0.3333043183714151,-0.0180093497037887,0.0340752564370632,-0.5709616541862488
3.667404296875,-0.171200397074595,0.9300434462048112,-0.310517901545763,-0.0342604927718639,0.0213225428014993,-0.5549941062927246
3.67743212890625,-0.1750808187045157,0.9843837428752332,-0.2887982371687889,-0.0506615713238716,0.0139479823410511,-0.5547765493392944
3.68745947265625,-0.1542026466529816,0.9685790746957064,-0.2673696646928787,-0.0613996796309948,0.0146698001772165,-0.5621211528778076
3.6974873046875,-0.1495606660660356,0.9537475623972712,-0.2580132228046655,-0.0688645169138908,0.026323527097702,-0.5793991684913635
3.707515625,-0.201099787710607,0.9547318241942674,-0.2761053443342447,-0.0812217593193054,0.0424475222826004,-0.6065862774848938
3.717542236328125,-0.2475879461085423,0.8631672738924622,-0.3043178778618574,-0.0954702049493789,0.0403390973806381,-0.6427863836288452
3.7275703125,-0.1939591952409595,0.7761534456975757,-0.3473626543402671,-0.1080997809767723,0.0249050557613372,-0.6729956269264221
3.73759765625,-0.060611887753196,0.6697731651883572,-0.4374696262449026,-0.1143603399395942,0.0077228741720318,-0.6895833611488342
3.747625244140625,0.0127675289733335,0.6375431396476924,-0.5056295547574758,-0.1089899390935897,0.0120142977684736,-0.6998212337493896
3.7576533203125,-0.0303348594438284,0.7080099568631499,-0.5786135424256325,-0.0964645594358444,0.0706621706485748,-0.7153162956237793
3.767680419921875,-0.1447002204228192,0.7429626853659749,-0.6711345897346734,-0.0753860920667648,0.1891269832849502,-0.7506983876228333
3.77770849609375,-0.314367635776475,0.7532020475685596,-0.7758657147973775,-0.0587155036628246,0.3254315853118896,-0.8138797283172607
3.787736328125,-0.5746401087500155,0.8302974160782992,-0.8815279832303523,-0.0509183481335639,0.4477035701274872,-0.8997477889060974
3.797763427734375,-0.7799435586955398,0.8498159902144223,-1.0770891337752342,-0.0464927032589912,0.5276338458061218,-1.007893204689026
3.80779150390625,-0.8307998857077211,0.6806904997177422,-1.3070552427470683,-0.0368562154471874,0.5292645692825317,-1.128610372543335
3.817818603515625,-0.7162431668750942,0.3725123662311583,-1.5152905814260242,-0.0089074047282338,0.4366403222084045,-1.2352765798568726
3.827846435546875,-0.4196064181003719,0.0231880381627939,-1.699818881303072,0.0338170193135738,0.2729374170303345,-1.294896364212036
3.837874267578125,0.0038973179657943,-0.3304785568935796,-1.7859359067887066,0.0822319537401199,0.0778582021594047,-1.298831820487976
3.8479013671875,0.4593191275466233,-0.6269825826667249,-1.6385826145738362,0.1162404343485832,-0.1016080155968666,-1.2509608268737793
3.857929443359375,0.8106509777788072,-0.8083627207111567,-1.3142279108554125,0.1187816262245178,-0.2294602543115615,-1.1770565509796145
3.867956298828125,1.025720984783396,-0.8703658070944249,-0.8438730830967426,0.0841901898384094,-0.2857164442539215,-1.082291603088379
3.877984375,1.2179546714060008,-0.8851502653807402,-0.3451040617585182,0.0159972850233316,-0.27211594581604,-0.968867838382721
3.888012451171875,1.4427414780437946,-0.8331342469394206,0.1234790801525115,-0.07320386916399,-0.2105251401662826,-0.8462446928024292
3.898039306640625,1.5772645147800444,-0.7774374210935086,0.5109738383948803,-0.1594562083482742,-0.1318753361701965,-0.7353719472885132
3.9080673828125,1.6078741725772618,-0.7285805242702365,0.7368868725836276,-0.2196210920810699,-0.0486327968537807,-0.6431022882461548
3.918094482421875,1.5747878955334425,-0.6574876841109245,0.8589052325338125,-0.2424470484256744,0.0299158059060573,-0.571656346321106
3.92812255859375,1.5372664125211537,-0.5321006514452398,0.9303402371942996,-0.233842521905899,0.0836329162120819,-0.5208291411399841
3.938150390625,1.4575909643903373,-0.4237283568685874,1.0088333436727523,-0.2076394110918045,0.1126547157764434,-0.4968231320381164
3.94817724609375,1.3812665802530943,-0.3663677990615367,1.04570907612741,-0.1650599390268325,0.137319341301918,-0.505218505859375
3.95820556640625,1.2334262351736425,-0.241092738870345,1.0415431886196136,-0.1195007190108299,0.1478039324283599,-0.536307156085968
3.9682333984375,1.0200459348216653,-0.0994679986364208,1.0816033963292837,-0.0667339488863945,0.1513436138629913,-0.591779351234436
3.978260498046875,0.7622419708535074,0.0611240978919202,0.995477018493414,-0.0019320526625961,0.1746534705162048,-0.6731439828872681
3.988288330078125,0.4040099858440458,0.1746868144182488,0.8346487431555986,0.0686689317226409,0.1968496143817901,-0.7680748105049133
3.9983154296875,0.1540718598801642,0.2905680963855236,0.7461743408888578,0.1377436220645904,0.205752283334732,-0.8492444753646851
4.008343505859375,0.0573723761090077,0.2980650280121714,0.620028671875596,0.1943624913692474,0.2048036307096481,-0.9031237959861756
4.018371337890625,-0.0112957028551027,0.2021444379253313,0.5202162985146045,0.2322648614645004,0.1736960411071777,-0.9290778636932372
4.0283984375,-0.0690944876826368,0.0892566021529957,0.4494084858417511,0.2436816692352295,0.1069686636328697,-0.9248281717300416
4.038426513671875,-0.0372108370273839,-0.0070108286101371,0.4047814086079597,0.2341006845235824,0.0150509942322969,-0.8855252265930176
4.048453369140625,0.03406572566838,-0.0672356532745063,0.3931067529052495,0.2091528177261352,-0.0796817541122436,-0.8131037354469299
4.0584814453125,0.0852399686564691,-0.0535623528341762,0.4521387875884771,0.1669249385595321,-0.1607132107019424,-0.711185097694397
4.06850927734375,0.1604796080306172,0.0126552825042046,0.618150603044033,0.113734982907772,-0.2022027820348739,-0.5995588898658752
4.07853662109375,0.2080210931400768,0.1301425566297024,0.8228373093307018,0.0453101173043251,-0.2035237103700637,-0.490466445684433
4.088564453125,0.2183279676209203,0.2701280600229278,1.0477204159498217,-0.0271847862750291,-0.18381929397583,-0.3992474377155304
4.09859130859375,0.2164788691555149,0.4562480130055919,1.286553721988201,-0.0933430343866348,-0.1537649780511856,-0.3345222473144531
4.108619384765625,0.1820422004160471,0.6402624085437506,1.440999018290639,-0.1348401308059692,-0.1187419146299362,-0.2945965826511383
4.1186474609375,0.1753130565578118,0.8031284002542495,1.5066554395496845,-0.1492718011140823,-0.0918794125318527,-0.2771440744400024
4.12867431640625,0.1895650519352406,0.9572698182392864,1.5084423229664563,-0.1372566521167755,-0.0666505545377731,-0.2775695025920868
4.138702392578125,0.1861096142517402,1.0858660952750592,1.496590557131171,-0.1067237704992294,-0.0479823276400566,-0.2912421524524688
4.14873046875,0.1866839618072845,1.1766709132507442,1.440247323140502,-0.0618375428020954,-0.0346879251301288,-0.3172189593315124
4.158757568359375,0.1965314203491434,1.2193104699291288,1.3770955781787633,-0.018072485923767,-0.0380554907023906,-0.3435395359992981
4.168785400390625,0.2914722786836325,1.249117871432751,1.3400450736790894,0.0118895107880234,-0.0485672689974308,-0.3629892468452453
4.1788125,0.4000897436603903,1.236621085692197,1.2728496062844992,0.0232654698193073,-0.0629707127809524,-0.3738024830818176
4.18884033203125,0.5228480352576822,1.2137008864190428,1.2081442021399735,0.0165443383157253,-0.0851134583353996,-0.3702959716320038
4.19886865234375,0.664474693454057,1.1886362955283374,1.170350770318508,-0.0030530644580721,-0.0999970659613609,-0.3570227921009063
4.208895263671875,0.7889661655195057,1.1928756866637618,1.1056371828675269,-0.0281059946864843,-0.1005790829658508,-0.3374882936477661
4.21892333984375,0.8398357904046774,1.1895052603825926,1.0035568645745516,-0.05140146240592,-0.0935611203312873,-0.3211942911148071
4.228950439453125,0.8246863712634891,1.252564066363871,0.8980845657557248,-0.072486363351345,-0.0882138460874557,-0.3106726109981537
4.238978515625,0.8120370983749627,1.3331785489104688,0.7959346893578767,-0.0859995111823082,-0.0867504402995109,-0.3089154362678528
4.24900634765625,0.7675414655011147,1.37092404993698,0.6180600021511315,-0.0844479724764823,-0.0933386608958244,-0.3201666176319122
4.259033447265625,0.7868738694153725,1.3943069713510572,0.4152706539183854,-0.0690839290618896,-0.1175116449594497,-0.3330991864204407
4.269061279296875,0.8079619578905403,1.429752086480707,0.2271627419888973,-0.045621071010828,-0.1488994807004928,-0.3436279594898224
4.279089599609375,0.82617902097404,1.430134071535617,0.0944119756221771,-0.033392634242773,-0.1887126713991165,-0.3502906560897827
4.2891162109375,0.8359143061120062,1.3994761906825006,0.0524655157744884,-0.040578868240118,-0.2296767681837082,-0.342142105102539
4.29914453125,0.9003311756387352,1.3168996142826974,0.0520896681994199,-0.0636415779590606,-0.2740522027015686,-0.3173536658287048
4.30917138671875,0.973961863712594,1.2088553460840137,0.0299941562473773,-0.0929000750184059,-0.303651362657547,-0.271569162607193
4.319199462890625,1.034208900208771,1.1244048655711114,-0.004804185411334,-0.1222486495971679,-0.313362568616867,-0.2087955027818679
4.329227294921875,1.0665776766330004,1.076948337065056,-9.3523502349e-06,-0.1555374562740326,-0.2984932363033294,-0.132132202386856
4.33925439453125,1.093375521057099,1.0439549990016967,-0.0165372933030128,-0.1884669065475464,-0.2487808167934417,-0.0558030791580677
4.349282470703125,1.068542693095654,1.013910208545625,-0.0496206477373838,-0.2340438663959503,-0.1914458870887756,0.0120243113487958
4.359309326171875,1.0102577504526824,0.9586769816234708,-0.0667734425902366,-0.2855049073696136,-0.1431545168161392,0.0576868690550327
4.369337158203125,0.9243241917751728,0.9445436807222664,-0.1101098954916,-0.3316892683506012,-0.104720264673233,0.081911101937294
4.379365478515625,0.7953339469857513,0.9471807512275874,-0.2271785240799188,-0.3642549216747284,-0.0886560827493667,0.0897115021944046
4.389392333984375,0.6835216314904391,0.9177426944930106,-0.3629629590541124,-0.3830876052379608,-0.1112508624792099,0.0948709622025489
4.399420654296875,0.6002352263208478,0.8488548900973051,-0.4867167644947767,-0.3817195296287536,-0.1670874953269958,0.0940752103924751
4.409447265625,0.3548372645372524,0.779528109762445,-0.6304051044613123,-0.3629907369613647,-0.2215665578842163,0.071548119187355
4.419475341796875,-0.0376596128413453,0.6928693786155432,-0.7570166374206543,-0.3224928379058838,-0.2674634754657745,0.0257079247385263
4.42950341796875,-0.2990698942057788,0.5148083750564605,-0.8791472255736589,-0.2620560526847839,-0.2904277145862579,-0.0376253575086593
4.4395302734375,-0.4939196085456758,0.3824943926718085,-0.9984417135179042,-0.1802150160074234,-0.2613326609134674,-0.1152658239006996
4.449558349609375,-0.7290847474653274,0.4099664465630426,-1.2082827338278292,-0.0751198977231979,-0.1448931396007537,-0.1921061277389526
4.45958544921875,-0.9644680591803044,0.5194459717292338,-1.527236455285549,0.0359818525612354,0.0574437119066715,-0.2546360790729522
4.46961328125,-1.200138955665007,0.5173607264203951,-1.879877926811576,0.1245422512292862,0.2997097373008728,-0.3023384213447571
4.479641357421875,-1.3712035975307226,0.3260019594687968,-2.089713101902604,0.1577625274658203,0.5022031664848328,-0.3039720058441162
4.48966845703125,-1.1110702407669275,-0.1161930695964954,-2.1600299161881207,0.1167213022708892,0.6346397995948792,-0.249596819281578
4.499696533203125,-0.7517063291180879,-0.6562090424772351,-2.159637117478251,0.0056262062862515,0.6537389755249023,-0.1303686946630478
4.509724365234375,-0.3611286562990397,-1.1880097611278295,-2.0719588340252635,-0.1658740937709808,0.557570219039917,0.0270321927964687
4.519751220703125,-0.0355916474608704,-1.7044665609784424,-1.909755178681016,-0.335087388753891,0.3545750081539154,0.2100275754928589
4.529779296875,0.2998886267101392,-2.0319440728925167,-1.714688533654809,-0.4424531161785126,0.1465674936771392,0.4003539681434631
4.539806396484375,0.5093016308663413,-1.9862376759894191,-1.591221143940091,-0.474923700094223,-0.0224359109997749,0.574446439743042
4.54983447265625,0.631242359003052,-1.7182041405603288,-1.2116460727810858,-0.4579304754734039,-0.1556359529495239,0.7097876667976379
4.5598623046875,0.7763543750971555,-1.4847086884185672,-0.6199567756831645,-0.4251134097576141,-0.2186857610940933,0.7927474975585938
4.569889404296875,0.8222914389509707,-1.2890424700640142,0.0636480040460825,-0.4041554629802704,-0.2251188457012176,0.8238943815231323
4.57991748046875,0.8432850540757179,-1.129887169439718,0.719935153260827,-0.3911919891834259,-0.1926226913928985,0.817635178565979
4.5899443359375,0.8062561038207262,-0.9941840560734272,1.166678803807497,-0.3677549958229065,-0.1316540688276291,0.7743827104568481
4.599972412109375,0.6813461140822619,-0.9534068592008202,1.4344716623485088,-0.3240663707256317,-0.0639631673693656,0.7002629637718201
4.610000244140625,0.488530462853238,-0.8699651173390448,1.5434125140607355,-0.2547894120216369,0.0041644913144409,0.6101819276809692
4.62002734375,0.3760231142984703,-0.7645614267770201,1.5560212357431649,-0.1679677218198776,0.04282933101058,0.5136894583702087
4.63005517578125,0.1836414340399205,-0.6798056066419929,1.457852537935972,-0.0623765587806701,0.0764528065919876,0.4115223884582519
4.640083251953125,-0.0258613672915846,-0.6316803120288997,1.2875251973688602,0.0567570216953754,0.1232637241482734,0.3019394278526306
4.650110595703125,-0.2148937005896121,-0.5917410272851586,1.0367226365953683,0.1729028522968292,0.1694782227277755,0.2034925371408462
4.660138427734375,-0.3087467636873945,-0.5761480290949345,0.8776227924853562,0.2578169703483581,0.2020593285560608,0.1193385198712349
4.6701650390625,-0.3489560244789347,-0.6503012066729367,0.7718892123818397,0.2963254749774933,0.2317615896463394,0.0448988825082778
4.68019287109375,-0.4206571327297017,-0.7753107112631201,0.6545645632058381,0.3013133108615875,0.2557076811790466,-0.0148307578638196
4.690220947265625,-0.4745706553554162,-0.8640113235011696,0.4832663317799568,0.2900392115116119,0.2712993919849396,-0.0487550236284732
4.700248046875,-0.4647429061610251,-0.9320409036323428,0.2325906122565269,0.2723792791366577,0.2624843418598175,-0.0587890185415744
4.710276123046875,-0.4385978265572339,-0.969141823145002,0.0271259073346853,0.2516827583312988,0.2360790818929672,-0.0381340719759464
4.720302978515625,-0.4851956193421036,-0.937971170464158,-0.1147702885180711,0.2263079136610031,0.189489483833313,-0.011545605957508
4.7303310546875,-0.5926007859196514,-0.9078184626542032,-0.2089566386908292,0.1943197548389434,0.138317659497261,0.0145209971815347
4.740359130859375,-0.5951810116712004,-0.8554314189434051,-0.2223901207596063,0.1497131288051605,0.0701923966407775,0.0429744757711887
4.750385986328125,-0.5229631860699504,-0.7713429036106914,-0.1220177754282951,0.0945763438940048,0.0109622431918978,0.0676256939768791
4.7604140625,-0.4835707580866292,-0.6649807432800531,0.0024134908825159,0.0441651009023189,-0.0351392067968845,0.0754963979125022
4.770442138671875,-0.5281519868846982,-0.5290795500583947,0.1218061785042285,0.0105774290859699,-0.0711693912744522,0.0685467645525932
4.78046875,-0.5263439876146614,-0.4126145864516496,0.2444850481897592,0.0029514671768993,-0.0983227118849754,0.0523129291832447
4.7904970703125,-0.473082060765475,-0.3370676164276898,0.3539168982893228,0.0100352484732866,-0.1327316164970398,0.0295441504567861
4.80052392578125,-0.3777498284932226,-0.2672990106094628,0.5428939942687749,0.023563040420413,-0.1685548722743988,0.0038039002101868
4.81055224609375,-0.3665293097661808,-0.2032809676745906,0.7270142978668213,0.0335443206131458,-0.1983096450567245,-0.0317273065447807
4.820580078125,-0.3865806390721351,-0.1506201119910925,0.8911655801475048,0.0408871881663799,-0.2133490443229675,-0.0743168443441391
4.83060693359375,-0.4145567700279876,-0.0610966025302186,1.03731651083529,0.0481970384716987,-0.212682619690895,-0.1227476745843887
4.840635009765625,-0.4732903697539121,0.0661528995390981,1.1291770484089851,0.0635517612099647,-0.1885546445846557,-0.1751823872327804
4.850662109375,-0.5822230746923014,0.1875167776359245,1.1378320640295745,0.0873688384890556,-0.1510868966579437,-0.2292718589305877
4.86068994140625,-0.64408211296238,0.3306009411642328,1.1580302179276942,0.1158374994993209,-0.1244928166270256,-0.2716400921344757
4.870718017578125,-0.650931759661436,0.4084659788722172,1.156100711169839,0.1422493159770965,-0.0886429101228714,-0.3249453008174896
4.880744873046875,-0.8393706571109593,0.4470323312949389,1.0330132606834173,0.1798014938831329,-0.0626014545559883,-0.3773400485515594
4.890773193359375,-0.938101445780322,0.4392052909310907,0.9702624977380035,0.2145531177520752,-0.0284234881401062,-0.418986052274704
4.90080078125,-0.9262406929209828,0.4415514887310564,0.8562006497502327,0.2338429242372512,6.59441575407e-05,-0.4446093738079071
4.910828125,-0.8357876840576529,0.4260200114697218,0.7854384297847747,0.2329265773296356,0.016109924763441,-0.453908622264862
4.92085595703125,-0.7657515864096581,0.3735079166071489,0.6820236480176448,0.2163507938385009,0.0232623759657144,-0.454992264509201
4.930883056640625,-0.7355920104674994,0.3273953135233372,0.5426262832432985,0.1933766901493072,0.0300078392028808,-0.445252001285553
4.940910888671875,-0.7068805144418031,0.3359045639976858,0.4139449582725763,0.1617228835821151,0.0419878028333187,-0.4286538362503052
4.95093896484375,-0.6395405970752239,0.3041532984172925,0.2805763522684574,0.1279139071702957,0.0493364185094833,-0.4115967452526092
4.960966064453125,-0.6820633955061435,0.2587493733257986,0.1414636496543884,0.0919463112950325,0.0482876673340797,-0.4071977436542511
4.970994140625,-0.646797144074738,0.2276681159614585,0.0260638310611248,0.0571076534688472,0.0364740788936615,-0.4064279496669769
4.981020751953125,-0.5643951570568606,0.2209972233627922,-0.0273766672253608,0.0204713437706232,0.0016385982744395,-0.4187325537204742
4.991049072265625,-0.5441791021758691,0.2100261676184833,-0.0919324337661266,-0.0007470042910426,-0.0365606360137462,-0.4511757493019104
5.001076904296875,-0.5977529079858214,0.2105212576590478,-0.2042033066838979,-0.0048245703801512,-0.0602566488087177,-0.5026437044143677
5.011104248046875,-0.566683341059275,0.1801323664730414,-0.3068208005934953,0.0119482539594173,-0.0768064484000206,-0.567162811756134
5.0211318359375,-0.4951380809573456,0.1249033682014327,-0.3754974464565515,0.0428126938641071,-0.0819969475269317,-0.6373315453529358
5.031158935546875,-0.4722432353211566,0.0286586972593795,-0.415101727092266,0.076559379696846,-0.0727648884057998,-0.7156569361686707
5.04118701171875,-0.4784085530178621,-0.0042525428779423,-0.4419020557343959,0.1075772121548652,-0.0520447008311748,-0.7792034149169922
5.051215087890625,-0.5026088917620479,0.0223169726829975,-0.4602268169760704,0.1261700391769409,-0.0282706879079341,-0.8380995392799377
5.061241943359375,-0.5486426939886063,0.0714422883512219,-0.5364964021861552,0.1323259323835373,0.0070881033316254,-0.883370578289032
5.07127001953125,-0.5969033054191619,0.0918640903708059,-0.6293979732453823,0.1319274455308914,0.042866114526987,-0.9089874625205994
5.081298095703125,-0.5285428128331899,0.0509082124630454,-0.7329536247879266,0.1193946078419685,0.0740352198481559,-0.9141201376914978
5.091324951171875,-0.4210664076503366,0.0305960630967048,-0.823413063392043,0.0959263518452644,0.0904763638973236,-0.8972688913345337
5.101352783203125,-0.2561481961177662,-0.0169618023253977,-0.8908253884077072,0.0596176199615001,0.0880086794495582,-0.8616344928741455
5.111380126953125,-0.0736165499506518,-0.0114769023576169,-0.8821013992041349,0.0089657697826623,0.0855707377195358,-0.8153878450393677
5.121407958984375,-0.003170117936097,0.0988607077925,-0.8590022631675004,-0.0441073030233383,0.0997036099433898,-0.7921624183654785
5.131436279296875,-0.0826844572210684,0.207944575571455,-0.8280600124150514,-0.0852360352873802,0.1182966902852058,-0.7981714606285095
5.141462890625,-0.2021015486316755,0.3045613129626028,-0.8262801432609558,-0.1075312197208404,0.1188527569174766,-0.8369460105895996
5.151490966796875,-0.3886554360521957,0.4766753725497051,-0.8894804035395383,-0.1016126722097396,0.1108188480138778,-0.8977024555206299
5.161518310546875,-0.5927921803059056,0.6257235955815762,-1.017066334488988,-0.0590116828680038,0.1018141657114029,-0.9803839921951294
5.1715458984375,-0.861422914443165,0.7772929711215197,-1.2063403675884008,0.0002954734954982,0.087990328669548,-1.0784865617752075
5.181573974609375,-1.002825773821026,0.880333220487833,-1.325055594339967,0.0645666047930717,0.0610114447772502,-1.1710628271102903
5.19160107421875,-1.0055256804294883,0.8703901378180832,-1.4188906468570233,0.1149250194430351,0.0197649598121643,-1.239778995513916
5.20162890625,-0.7779877484526485,0.7103029631711543,-1.4228162958681585,0.1378372460603714,-0.0334023907780647,-1.2657562494277954
5.211656982421875,-0.4226852044912055,0.4346114238021895,-1.337304250538349,0.1232100948691368,-0.0866451039910316,-1.252708911895752
5.221683837890625,0.0168109956778585,0.0860115466840099,-1.1939239536076784,0.074217788875103,-0.1438380926847458,-1.194443702697754
5.231712158203125,0.4763933407379314,-0.2653753856031224,-0.9666332013249396,0.0019776355475187,-0.1978082358837127,-1.1146414279937744
5.2417392578125,0.7540351373918354,-0.5430071357870474,-0.7407125683516264,-0.0713972523808479,-0.2459169030189514,-1.027617335319519
5.251766845703125,0.960155237482488,-0.7644852928008884,-0.5274333902865648,-0.1263036578893661,-0.3023208975791931,-0.9457568526268004
5.261794921875,1.1531145349659024,-0.8964790302552282,-0.2418628829926252,-0.1627700477838516,-0.3487699031829834,-0.8676681518554688
5.271822021484375,1.2781086958564818,-0.9421260251212864,0.0500040940970182,-0.1817474514245987,-0.3771896064281463,-0.8068342208862305
5.28185009765625,1.275898034069687,-0.9565617430351674,0.3688531861364841,-0.1910845041275024,-0.3936010897159576,-0.7722684741020203
5.291876953125,1.2051126524243505,-0.9953428707197308,0.6516676727205515,-0.1887176781892776,-0.4121135771274566,-0.7609843015670776
5.301905029296875,1.198893997105211,-0.9829925807777792,0.9398854796528816,-0.1711053848266601,-0.4251108467578888,-0.7594801187515259
5.31193310546875,1.206126651772484,-0.937311975903064,1.1476941173523665,-0.1446402370929718,-0.4162909090518951,-0.7631086111068726
5.3219599609375,1.1846150771882384,-0.8955801086541265,1.270733052521944,-0.1107397899031639,-0.3899213373661041,-0.7782638669013977
5.331988037109375,1.1123257937859743,-0.8866532172895968,1.361064480832219,-0.0832591950893402,-0.3569283485412597,-0.7947025895118713
5.34201513671875,1.038126219782978,-0.843670107870549,1.484762756693363,-0.0690160766243934,-0.314738005399704,-0.8170534372329712
5.352043212890625,0.9483916613873092,-0.7860957246497273,1.4907903464198111,-0.0476294681429863,-0.2642639577388763,-0.8497360944747925
5.36207080078125,0.848930074225366,-0.7358703159522265,1.3970727828025815,-0.012450972571969,-0.2022586464881897,-0.8887588977813721
5.372097900390625,0.7318688252259046,-0.5887741768362,1.2708406045496463,0.0299629140645265,-0.1168273761868476,-0.9335315823554992
5.3821259765625,0.5682400324493646,-0.3871554432854056,1.106615087988973,0.0770880803465843,-0.0145851578563451,-0.9852972626686096
5.392154052734375,0.3884828924968838,-0.2871729009892791,0.8909726879239082,0.1303311884403228,0.0818034186959266,-1.0409345626831057
5.40218115234375,0.293154678812623,-0.3146727196702733,0.6471954957425594,0.1775016337633133,0.141036108136177,-1.0850061178207395
5.412208984375,0.2706457637540996,-0.4378776225239038,0.4240162704318762,0.2085511535406112,0.1619485914707183,-1.112039566040039
5.422236083984375,0.2923841328315437,-0.6195717949535697,0.1792138268560171,0.2359966337680816,0.1486687362194061,-1.103055119514465
5.43226416015625,0.4070936310730874,-0.7350832572277635,-0.0377870020806789,0.251807153224945,0.1027062162756919,-1.0525085926055908
5.442291748046875,0.5456067603588104,-0.7477535729043185,-0.141344991710782,0.235219657421112,0.0220638401806354,-0.9674067497253418
5.452319091796875,0.6953321885325014,-0.7811969928227365,-0.138135382014513,0.1911021769046783,-0.0706136897206306,-0.875941276550293
5.46234716796875,0.7960022016361356,-0.8107252851240336,-0.0594371083527803,0.1253495216369629,-0.1719935685396194,-0.7858867645263672
5.472375244140625,0.840357256995514,-0.6488004467211663,0.1108423014193773,0.051922183483839,-0.2472520917654037,-0.7075059413909912
5.482402099609375,0.8603213829420506,-0.4237480479497462,0.3660626786351204,-0.0145692257210612,-0.2877289652824402,-0.641995906829834
5.492429931640625,0.9307466260381042,-0.1442829265925101,0.610498626986146,-0.064603567123413,-0.3016438484191894,-0.5929566025733948
5.502457275390625,1.003897713901475,0.1557213623865507,0.8764496570527553,-0.0996278673410415,-0.2971406877040863,-0.5626251101493835
5.512485107421875,1.0080280917044728,0.3854335879288613,1.121816164252162,-0.1156495064496994,-0.2811296582221985,-0.5567896366119385
5.522512939453125,1.0258919574361294,0.5918323588304222,1.317605862855911,-0.116372026503086,-0.2580294013023376,-0.5622683167457581
5.5325400390625,1.028144193342328,0.7869483959563076,1.485304023963213,-0.1064594164490699,-0.2229398190975189,-0.5792909860610962
5.542568115234375,1.008871702921763,0.9349578870575874,1.5952771413326263,-0.0916865989565849,-0.1705706119537353,-0.6006812453269958
5.552594970703125,1.032792749800533,1.0704423892371355,1.6755074468672275,-0.0824023410677909,-0.108800321817398,-0.611574649810791
5.562623046875,1.096441265303269,1.1435443772617726,1.699014579182863,-0.0801293328404426,-0.0462543852627277,-0.6160168051719666
5.572651123046875,1.183210324956849,1.1932644667856394,1.708106817176938,-0.097440168261528,0.0034949602559208,-0.6234524846076965
5.58267822265625,1.171234494350478,1.2744387751720845,1.6864625561237334,-0.1207782477140426,0.0586873739957809,-0.6445534825325012
5.592705810546875,1.1212154949452728,1.3342220666140316,1.5478683244258165,-0.1366025656461715,0.101041704416275,-0.6720356941223145
5.60273388671875,1.1272785943765191,1.3839375530280171,1.4009054928332567,-0.1460544019937515,0.1224905326962471,-0.7014819979667664
5.612760986328125,1.0702603106684982,1.450328426041454,1.2323445774167776,-0.1547155082225799,0.1250379532575607,-0.7378361821174622
5.622789306640625,0.968461147404462,1.4102046515762805,1.0281973848342896,-0.1487516313791275,0.1065529435873031,-0.7786635160446167
5.63281591796875,0.8469839085936546,1.344999188955128,0.7931716543853282,-0.1318090260028839,0.0889431163668632,-0.8108962774276733
5.642843994140625,0.7942108612399548,1.3019473982140422,0.5268529600501061,-0.1139879673719406,0.0787698403000831,-0.8209545016288757
5.6528720703125,0.810824507714808,1.19486722580716,0.270998376584053,-0.1082315444946289,0.0564855746924877,-0.809121310710907
5.6628994140625,0.8643360254108905,1.0632506511021405,0.1129085862994194,-0.1252342164516449,0.0262387245893478,-0.779688835144043
5.67292724609375,0.8556017340090125,0.9537276155877856,-0.0183358671575784,-0.1542146950960159,-0.0056163808330893,-0.7563864588737488
5.682954345703125,0.7189199848689138,0.8867502479232847,-0.1217781214535236,-0.1830205172300338,-0.0530097261071205,-0.7505155205726624
5.692982177734375,0.6020922523643821,0.8252845563523471,-0.202345696118474,-0.2044323086738586,-0.11436627805233,-0.7506428956985474
5.703010498046875,0.6174157859634608,0.7544246481660754,-0.2823281643718481,-0.2188986092805862,-0.1843483000993728,-0.7483344674110413
5.713037109375,0.6533683391585946,0.6794509479854256,-0.3350514542996883,-0.2194846123456955,-0.2583210468292236,-0.7385855317115784
5.7230654296875,0.6723763334240764,0.5877109680514783,-0.3643775020271539,-0.2088418155908584,-0.3125621676445007,-0.7119600772857666
5.73309326171875,0.7217808541927486,0.5564168351214379,-0.3350923708319663,-0.2017939388751983,-0.3353199660778045,-0.6728119850158691
5.743120361328125,0.7208353900361806,0.5183454631414264,-0.2698480375051498,-0.2069085389375686,-0.338723212480545,-0.630236029624939
5.753148193359375,0.7036787957910448,0.4319941905084997,-0.1511386559724807,-0.2215120941400528,-0.3269086480140686,-0.5953506231307983
5.76317529296875,0.6597387509733438,0.3675617946190759,-0.0989332524389028,-0.2424045950174331,-0.30013507604599,-0.5567355751991272
5.773203369140625,0.6367482629429548,0.4252980538707226,0.001184241348505,-0.2757904827594757,-0.2683097720146179,-0.5098176002502441
5.7832314453125,0.6073699005063623,0.5032016700234264,0.0261111773341894,-0.312594324350357,-0.2387987375259399,-0.4685972034931183
5.793258056640625,0.5801568263448774,0.5005913413945585,0.0083200845777988,-0.3434886336326599,-0.2278207093477249,-0.4346021711826324
5.803286376953125,0.5704029095716774,0.5359185292329639,-0.0213531691521406,-0.3677873313426971,-0.2187318652868271,-0.4104776680469513
5.813313232421875,0.5319376429032534,0.6674971100151539,-0.0451449636280536,-0.3934953212738037,-0.2144086360931396,-0.3954168856143951
5.823341552734375,0.4693361522354185,0.7809354192771017,-0.0382037661880254,-0.4099768102169037,-0.1966072618961334,-0.4066753983497619
5.833369140625,0.2095956672467291,0.8215886244438588,-0.1609440106719732,-0.4027847647666931,-0.1512902677059173,-0.4577586352825165
5.843396240234375,-0.081889617048949,0.8691486133243889,-0.3127805857807397,-0.3845556974411011,-0.0880039855837822,-0.5217552185058594
5.85342431640625,-0.2055271026335656,0.8491231125794351,-0.4798094693243503,-0.3578816950321197,0.0176590979099273,-0.5935907959938049
5.863452392578125,-0.462287402767688,0.8444169076498598,-0.8263853572010994,-0.3169880509376526,0.1791526526212692,-0.6881386041641235
5.873479248046875,-0.8677703107085079,0.963095528718084,-1.3967092101871967,-0.2406310588121414,0.381419688463211,-0.7821047306060791
5.88350732421875,-1.2710028093740344,1.0156389320343733,-2.043072931280732,-0.1621469110250473,0.540772557258606,-0.8554295301437378
5.8935341796875,-1.2413920994862913,0.8039291952431201,-2.5039374616384507,-0.1250979751348495,0.5860036015510559,-0.8872204422950745
5.903562255859375,-0.9035584671221673,0.3081902988484129,-2.794385219579935,-0.1390026062726974,0.5059036612510681,-0.8682888150215149
5.913590087890625,-0.5067855929248035,-0.3125942328957841,-2.978908258759976,-0.1960486769676208,0.3349899649620056,-0.8024061918258667
5.923617431640625,-0.0210641961429268,-0.9097234194926918,-2.9054005394786597,-0.2809209525585174,0.0541795939207077,-0.6883491277694702
5.933645263671875,0.498142633068189,-1.3495859322234989,-2.6516490657716987,-0.3563143908977508,-0.2168935388326645,-0.5384189486503601
5.943673583984375,0.8430063832648098,-1.6373793762639164,-2.291432775077224,-0.4168046116828918,-0.4248195588588714,-0.3821939527988434
5.9537001953125,1.0274788613013923,-1.7073206352353094,-1.736964078348875,-0.4621777534484863,-0.5315290093421936,-0.2555427849292755
5.963728271484375,1.0567106548741458,-1.6695926698654888,-1.0383370860546828,-0.4949777722358703,-0.5714548230171204,-0.1727235317230224
5.97375537109375,1.2192005067486316,-1.6175915567323564,-0.3196802821666002,-0.5099487900733948,-0.5581957101821899,-0.1206719279289245
5.983783203125,1.3709075371935964,-1.5298592050045727,0.3311176219820976,-0.5163717865943909,-0.4819352924823761,-0.09307412058115
5.993811279296875,1.433762637296319,-1.4400330958679315,0.7959580702334642,-0.507635235786438,-0.3602774739265442,-0.0899546816945076
6.00383837890625,1.3909433401368558,-1.4134373498871922,1.0404466255545617,-0.478079229593277,-0.1908935010433197,-0.1180299893021583
6.0138662109375,1.2960655005685984,-1.4154431367516518,1.1702461409002545,-0.431121826171875,-0.0411970280110836,-0.1720896065235138
6.023893310546875,1.1889382741495966,-1.4597741536483169,1.23112760284245,-0.3580705225467682,0.0898046568036079,-0.2638520002365112
6.033921142578125,0.9304190015189348,-1.441162392158806,1.0910048464030029,-0.2716974318027496,0.1883592903614044,-0.3734467327594757
6.043949462890625,0.683984280566126,-1.3863276630349457,0.9228899211883544,-0.1649347692728042,0.2559319138526916,-0.4959553480148315
6.05397607421875,0.4903139122039079,-1.3415692145064473,0.7087386364638805,-0.0442334972321987,0.2998876869678497,-0.6140413284301758
6.064004150390625,0.3734535195387899,-1.351610716049373,0.4847673839926719,0.0729360058903694,0.3366337120532989,-0.719444215297699
6.0740322265625,0.2942527031823992,-1.400380884437263,0.2833317884564399,0.1736198961734771,0.3565951883792877,-0.7999650239944458
6.084059326171875,0.2300930232871323,-1.4350059153556822,0.1699900714367628,0.241733431816101,0.3712750673294067,-0.8584581613540649
6.09408740234375,0.213711870393902,-1.4800785443998872,0.0773141258269548,0.2765849530696869,0.3759230971336365,-0.8893625736236572
6.1041142578125,0.2299035651296377,-1.4808753938660024,0.050058454632759,0.281211107969284,0.3629074394702911,-0.8842282295227051
6.11414208984375,0.2700703750189394,-1.4675116160325703,-0.0282218858778476,0.2663843035697937,0.3423833847045898,-0.8491663336753845
6.12417041015625,0.3168270846925676,-1.4013110048942268,-0.0644330169439315,0.2352873533964157,0.3182887136936188,-0.7924050688743591
6.134197021484375,0.3037945846401155,-1.2772908036023378,0.0036129298001527,0.2003513276576995,0.2970034480094909,-0.7320525646209717
6.144225341796875,0.1795071837794035,-1.086717816733569,0.0935404534846544,0.166546493768692,0.3034113049507141,-0.6761863827705383
6.154253173828125,0.0979694489080458,-0.882398117128387,0.1110170734643936,0.1376105993986129,0.3445371091365814,-0.6282840371131897
6.1642802734375,0.0306630684848874,-0.6206703307799994,0.1732481964498758,0.1041591688990593,0.3855023682117462,-0.6063047051429749
6.17430810546875,-0.0658117579512298,-0.4398689424715936,0.3202303172647953,0.0702087357640266,0.390352725982666,-0.6145139932632446
6.184335205078125,-0.1780178220044821,-0.3382547803856432,0.427181456464529,0.0504725836217403,0.3660918474197387,-0.6566401720046997
6.19436328125,-0.2355386484071612,-0.2236690181216225,0.4696089778274297,0.0476159378886222,0.3243706822395324,-0.7204632759094238
6.204391357421875,-0.2848454809550196,-0.1367921872446313,0.5237491488158702,0.058534100651741,0.2580843567848205,-0.7967562079429626
6.21441796875,-0.3009865414820611,-0.1145626005841419,0.589517213755846,0.0852833092212677,0.1759460866451263,-0.880074143409729
6.2244462890625,-0.2923523494537919,-0.0862397385498508,0.6679243955165147,0.1252003610134124,0.1099428385496139,-0.9654926657676696
6.23447314453125,-0.3442360467523336,-0.0043901247177273,0.7524298941522837,0.1604849249124527,0.0675093159079551,-1.0472701787948608
6.24450146484375,-0.4216589667160064,0.0824321994930505,0.8267705571264028,0.1898172348737716,0.0512680299580097,-1.1172133684158323
6.254529052734375,-0.4131530041772872,0.1227935090411454,0.9186690886229276,0.2057014852762222,0.0405904091894626,-1.1667048931121826
6.26455615234375,-0.4217664456784725,0.1975932226280681,0.9725602532863616,0.2110789269208908,0.0559848137199878,-1.2013704776763916
6.274584228515625,-0.4867466481763869,0.2957543033843859,0.9956237334877251,0.2063087075948715,0.0914127752184867,-1.229085087776184
6.2846123046875,-0.4906866910390555,0.3474152247777208,0.9540069439858198,0.2019089013338089,0.1374721378087997,-1.2433305978775024
6.29463916015625,-0.4920143594462424,0.4263205287862568,0.8813654861450195,0.1921051442623138,0.171710729598999,-1.2518742084503174
6.304667236328125,-0.476403241077438,0.4887199210107326,0.8028373083531856,0.1797672659158706,0.1868281662464141,-1.256880760192871
6.3146943359375,-0.4993549314673989,0.4945955350458622,0.6823363672286271,0.1668178141117096,0.1796445846557617,-1.259320616722107
6.324722412109375,-0.4835578620724379,0.5099781053557991,0.5801777230024338,0.1528085321187973,0.1579648554325103,-1.2565299272537231
6.33475,-0.439830948548764,0.5538398973055183,0.4964379480421543,0.1365560293197631,0.1247237846255302,-1.240097165107727
6.34477734375,-0.3952921341203153,0.6101632940845564,0.4502361688375473,0.1219200864434242,0.0911466553807258,-1.2204712629318235
6.35480517578125,-0.3624009412571787,0.6399365375902504,0.3823977273643016,0.109182484447956,0.0735224112868309,-1.2041537761688232
6.36483349609375,-0.3809357650529593,0.6599201719548553,0.3558516657441854,0.0955689400434494,0.0543156899511814,-1.1919578313827517
6.374860107421875,-0.3496681548036635,0.7040830657429993,0.3619020518243313,0.0836282670497894,0.040156289935112,-1.1746467351913452
6.38488818359375,-0.2515603934034705,0.7730847788419574,0.3050730801433324,0.0734994634985923,0.0483556278049945,-1.1593178510665894
6.394915283203125,-0.1948510295141488,0.8766982249863445,0.2478717680186033,0.0663941875100135,0.0629272311925888,-1.1443710327148438
6.404943115234375,-0.2096265007764101,0.9913472252123056,0.209156545177102,0.0557468719780445,0.074872575700283,-1.1380434036254885
6.41497119140625,-0.216557907474786,1.0542141618832943,0.1712374411493539,0.050935361534357,0.0785582289099693,-1.1425310373306274
6.424998291015625,-0.29322781711407,1.0635302717611193,0.054605450412631,0.0582313574850559,0.0816307216882705,-1.1509602069854736
6.435026123046875,-0.3036835985463112,1.0678324259344487,-0.0677069240480661,0.0770876407623291,0.0844669193029403,-1.146920084953308
6.445054443359375,-0.1875773852493613,1.0825578475099056,-0.1917050596386194,0.0973963737487793,0.0801430121064186,-1.126757025718689
6.4550810546875,-0.08453362875171,1.1214669124230745,-0.2491471947818994,0.1074032261967659,0.0835355371236801,-1.094699740409851
6.465109375,-0.0746068396296352,1.1394221096999944,-0.2878507271856069,0.1014515906572341,0.1011648625135421,-1.063915491104126
6.475136474609375,-0.0828057820457965,1.1322675617702305,-0.3492629350036382,0.0838506147265434,0.14315927028656,-1.0286579132080078
6.485164306640625,-0.0564990090742707,1.114362852571532,-0.3972060049176216,0.0590182393789291,0.2013749033212661,-0.990672528743744
6.495192138671875,-0.0645115620728582,1.094527175310254,-0.4927835171878337,0.0360230840742588,0.2736906111240387,-0.9506619572639464
6.50521923828125,-0.0555315522816032,1.0689875142537058,-0.6324415787249803,0.0145793128758668,0.3334628641605377,-0.9179465770721436
6.515247314453125,-0.0317391002185642,1.02847408288382,-0.7551993588656186,-0.0093077644705772,0.3498449325561523,-0.8902425169944763
6.525275146484375,-0.0191061208777129,0.9686354810580612,-0.8621943372070788,-0.0364424474537372,0.3221400678157806,-0.8757982850074768
6.53530224609375,-0.0613263196328654,0.8672634571649134,-0.9033610448539257,-0.0757069736719131,0.247792899608612,-0.8739647269248962
6.545330322265625,-0.0889335442110896,0.7920796944301575,-0.8725199163883924,-0.1182539016008377,0.1494442224502563,-0.8828117847442627
6.555357421875,-0.132564961471036,0.7657249175984412,-0.8579390178501606,-0.141045406460762,0.0652446374297142,-0.8987599611282349
6.56538525390625,-0.1334423653600737,0.8335111904930322,-0.7971160080969333,-0.1356306672096252,0.0209205783903598,-0.9079028367996216
6.5754130859375,-0.0618759894048795,0.9445429500699044,-0.69689680750072,-0.1144117265939712,0.0291539598256349,-0.9060042500495912
6.5854404296875,0.0160342026190832,1.0202379502624273,-0.5562158326566219,-0.1037444397807121,0.0658216923475265,-0.8992339372634888
6.59546826171875,0.0110703331340104,1.1490537883330136,-0.32376492113173,-0.1250928044319152,0.108499601483345,-0.8935551643371582
6.605496337890625,-0.0533129629166796,1.265698127094656,-0.0864449422657489,-0.161441758275032,0.1941820234060287,-0.9125850200653076
6.615523193359375,-0.3252830340771004,1.396557819017768,-0.2011293060660362,-0.1932795494794845,0.3132868707180023,-0.9629318118095398
6.62555126953125,-0.5203039037328213,1.4400322190850972,-0.3978980788350105,-0.2046493738889694,0.449453741312027,-1.0213658809661863
6.63557861328125,-0.5643729086924344,1.472264363517612,-0.6978712054908275,-0.2071695327758789,0.5717863440513611,-1.055463433265686
6.645606201171875,-0.4300388917222619,1.4289388704016803,-0.921577669546008,-0.2150088101625442,0.6663151979446411,-1.0622103214263916
6.65563427734375,-0.3000874006852507,1.2393145625598727,-1.0981541336357592,-0.2391015738248825,0.7190684080123901,-1.0525250434875488
6.665661376953125,-0.1742787268077023,0.905236118010804,-1.198924538373947,-0.2908617258071899,0.7091859579086304,-1.0355015993118286
6.675689208984375,0.0018671398705278,0.5530130180273205,-1.2022861237615343,-0.3638888299465179,0.6287571787834167,-1.0181493759155271
6.68571630859375,0.1723191719714552,0.1882285061018541,-1.1502362030506132,-0.4347251951694488,0.4849656820297241,-1.0140310525894165
6.695744384765625,0.2512078901713714,-0.0998935762378852,-1.0854156480938195,-0.4901241064071655,0.2968387603759765,-1.0211457014083862
6.7057724609375,0.2978645004713908,-0.2998247311610728,-0.986549031150341,-0.5076090693473816,0.0982745364308357,-1.0439190864562988
6.71579931640625,0.2790173958560452,-0.4037487045593559,-0.8548451434880494,-0.4860104322433471,-0.0729359090328216,-1.0645968914031982
6.7258271484375,0.3703145639259368,-0.445228131417185,-0.5506278033912182,-0.4378101527690887,-0.1975654512643814,-1.0750402212142944
6.735855224609375,0.4469151346560567,-0.5027416878288612,-0.1312082130998373,-0.3869384229183197,-0.2725089490413666,-1.0790342092514038
6.74588232421875,0.4792117956921458,-0.6500128181856125,0.3243763310283422,-0.3402191400527954,-0.2914256453514099,-1.0827072858810425
6.75591015625,0.5726512730203569,-0.8517094758108258,0.7170557984322309,-0.3002770841121673,-0.2650456130504608,-1.0693155527114868
6.765937255859375,0.7743577213872224,-1.03909301898852,1.0525520738899707,-0.2657071053981781,-0.226633533835411,-1.0360227823257446
6.77596533203125,0.964940645128116,-1.2004984366271645,1.3564865053921935,-0.2403158545494079,-0.1799235343933105,-0.9764045476913452
6.785993408203125,1.098801491628587,-1.2821565099425614,1.5618594403773545,-0.2138685286045074,-0.12452232837677,-0.8970162272453308
6.796020263671875,1.090554472286999,-1.253634910465777,1.6968576934099195,-0.1861795932054519,-0.0695027038455009,-0.8260582685470581
6.80604833984375,0.953283744277805,-1.1790737366087731,1.7151543976008892,-0.1483342051506042,-0.0192818772047758,-0.7738578915596008
6.816076171875,0.7312267279300838,-1.047469656059146,1.6261159317106006,-0.0928888842463493,0.0238040145486593,-0.7435073852539062
6.826103271484375,0.5587024618405848,-0.8686370836056768,1.4576917944163084,-0.014423900283873,0.0632329136133194,-0.7290922403335571
6.836131103515625,0.3944899508919566,-0.6527685466345399,1.2491992661058902,0.0841814130544662,0.1049584597349166,-0.7269377708435059
6.846158203125,0.2082502805197611,-0.4625638450888916,0.9693190794080496,0.2059973329305648,0.1526245176792144,-0.7283234000205994
6.8561865234375,0.1377726222498808,-0.3358690177602693,0.7341805362343787,0.3356908857822418,0.1952537298202514,-0.713554322719574
6.86621435546875,0.2475388097371905,-0.2341964765505865,0.5907715977311134,0.4479513764381408,0.2229021340608596,-0.6736598610877991
6.8762412109375,0.3700687724713236,-0.1346979183791205,0.5288035095959901,0.5287256836891174,0.2516219913959503,-0.6142604947090149
6.886269287109375,0.3872085617121308,-0.0469741883492097,0.5155132353901862,0.5547857880592346,0.2759345173835754,-0.5447586178779602
6.896297119140625,0.3275746886782348,0.0368899436431005,0.5720242271631956,0.5125229358673096,0.2945954203605652,-0.4745553433895111
6.906324462890625,0.3096077644309029,0.0581887339931912,0.6268167245805263,0.4162408411502838,0.2862240374088287,-0.4097462594509125
6.916352294921875,0.4101991958729922,0.0736250985832884,0.6392500896960497,0.3058797419071197,0.2195413261651992,-0.3434823751449585
6.926379150390625,0.4878970603205263,0.148428575029876,0.6048544836193323,0.1993782967329025,0.1158522069454193,-0.2762463688850403
6.936407470703125,0.5187827220475301,0.3040088849779218,0.552677721658349,0.122882105410099,0.0044911792501807,-0.2178922742605209
6.946435302734375,0.4309093544138595,0.4652268172204494,0.5495674806833267,0.0807876512408256,-0.105773277580738,-0.1799970865249633
6.95646240234375,0.3400196346336975,0.6220638309650123,0.6217454126656055,0.0649934858083725,-0.1964806467294693,-0.157524898648262
6.966490234375,0.2251666910671629,0.8057955005716532,0.7096352930426597,0.0775428339838981,-0.254803866147995,-0.1497226357460022
6.976518310546875,0.171160521721933,0.9822739841796456,0.8631868553757667,0.0952676460146904,-0.297313243150711,-0.1487270295619964
6.986545166015625,0.2514022619660012,1.10468032053411,1.0450988352745771,0.11094781011343,-0.3182624578475952,-0.1481009125709533
6.9965732421875,0.3228128080386668,1.1589757551494986,1.1686977424144744,0.1096084490418434,-0.3209638297557831,-0.1511998325586319
7.006600341796875,0.3379225527565926,1.1607485369756818,1.3228612991660833,0.0928592979907989,-0.2903076410293579,-0.1507910341024398
7.01662841796875,0.3339516032990068,1.176421687730029,1.3726432749450206,0.0545438602566719,-0.2499616593122482,-0.1445537209510803
7.026656494140625,0.3849433201938867,1.198257014375925,1.4439187051296234,0.0027187459636479,-0.2064288258552551,-0.1286783516407013
7.036683349609375,0.4008293830465525,1.1976616788312793,1.409079446938634,-0.0428402200341224,-0.163081094622612,-0.1125473305583
7.046711181640625,0.4265169281411916,1.1833556517116726,1.2715899616122246,-0.066831037402153,-0.1300709396600723,-0.1028853803873062
7.0567392578125,0.449814655489847,1.183920080661401,1.11974987937212,-0.0797025337815284,-0.103237397968769,-0.0958533361554145
7.06676611328125,0.4465084170186892,1.1955216711279004,1.0023404745221138,-0.0798780396580696,-0.0884046554565429,-0.1005516797304153
7.07679443359375,0.4066025230878964,1.1698171748984605,0.851712690681219,-0.0749759301543235,-0.0889431312680244,-0.1157181337475776
7.0868212890625,0.3962812547555193,1.1451382953897118,0.7001613622546196,-0.0585575401782989,-0.1105690598487854,-0.1336851567029953
7.096849365234375,0.3839041133392602,1.1027311592277138,0.5376408960461616,-0.0321067571640014,-0.1418452262878418,-0.1529001295566558
7.106877197265625,0.3202079958351329,1.043462247048691,0.3496317683160305,0.0153973763808608,-0.1775456964969635,-0.1754080951213836
7.116904296875,0.2510933604136109,1.006002504161,0.2030202343791723,0.0665507838129997,-0.2031071037054062,-0.1897903084754943
7.126932373046875,0.2500355767226778,0.9869012055888772,0.0849251853525638,0.1091648191213607,-0.2328628748655319,-0.1833979189395904
7.136960205078125,0.360079001115635,0.9178120334021748,0.0611316373109817,0.1282083541154861,-0.2661999464035034,-0.1579444110393524
7.146987060546875,0.4245870925897732,0.8067267900723963,0.076830726224184,0.1197149902582168,-0.2880564928054809,-0.1310616731643676
7.157015380859375,0.4587886008664965,0.6842005536653101,0.1013268695771694,0.0813796743750572,-0.3076010346412658,-0.0920385867357254
7.167042236328125,0.5441766179578379,0.5670435161411762,0.1750286501258611,0.0209200643002986,-0.3115680813789367,-0.044940311461687
7.177070556640625,0.6258724294677377,0.3801616023426875,0.1510398717731237,-0.0461909994482994,-0.3056218326091766,-0.0023367737885564
7.18709814453125,0.6071914751995354,0.2284534759191796,0.1342962422430515,-0.098675787448883,-0.2899845242500305,0.0239755250513553
7.197125244140625,0.4837674497025087,0.1683996969727799,0.0493079285264015,-0.1244807243347168,-0.2569859027862549,0.0357543230056762
7.2071533203125,0.4298302539402618,0.11248840639228,-0.0888724616736173,-0.126720443367958,-0.2217003554105758,0.0423411205410957
7.217181396484375,0.4452641891112551,0.0333789672469254,-0.193141814443469,-0.1158099398016929,-0.1955833882093429,0.0401049330830574
7.227208251953125,0.3627907442923635,-0.0280988257537595,-0.2832610613077879,-0.0996059402823448,-0.174936443567276,0.0246269050985574
7.237236328125,0.2985714796969667,-0.0506532969870604,-0.3308317907780408,-0.0837457776069641,-0.1696232855319976,0.0032571034971624
7.24726318359375,0.2965034047186374,-0.0471232688305433,-0.3488625375092029,-0.0838206186890602,-0.1973792761564254,-0.0146827483549714
7.25729150390625,0.3098608624091372,-0.0519641238573007,-0.2796171518474817,-0.0942883118987083,-0.2393976598978042,-0.0293479394167661
7.267319091796875,0.2781655647996813,0.0143794120162259,-0.1984492732018232,-0.1168311685323715,-0.2845563292503357,-0.042121522128582
7.277346435546875,0.2091181859280914,0.0888539579025469,-0.1256459027975797,-0.1388815492391586,-0.3397880494594574,-0.0599369369447231
7.287374267578125,0.1272738693255931,0.1805422624481842,-0.0621826076686382,-0.1561367064714431,-0.3885364234447479,-0.091428019106388
7.29740234375,-0.0466585099961608,0.2785404807929881,-0.1175081890493631,-0.1458317339420318,-0.4119784533977508,-0.1420719772577285
7.30742919921875,-0.1932112264178693,0.4117614402210339,-0.2217980000853538,-0.1113147661089897,-0.3991598486900329,-0.2022982984781265
7.317457275390625,-0.3697863753333688,0.6152062201552093,-0.3019739450842142,-0.0626845508813858,-0.3501152098178863,-0.2663666903972626
7.327484375,-0.5295712790980934,0.7669346587143838,-0.40416532253623,-0.012540690600872,-0.28853440284729,-0.3358901143074035
7.33751220703125,-0.6042850131683051,0.8206777201440185,-0.526353193834424,0.033839177340269,-0.2336855232715606,-0.4040413498878479
7.347540283203125,-0.6425684204638004,0.7878238636165857,-0.676902067220211,0.0735548958182334,-0.2041955441236496,-0.4689820110797882
7.3575673828125,-0.7521087724391371,0.7524549555283039,-0.8917688067376613,0.1057358607649803,-0.1727539151906967,-0.5209288597106934
7.36759521484375,-0.8368712415106594,0.6814340115614235,-1.0130915856391192,0.1240893006324768,-0.1614807546138763,-0.5409497022628784
7.37762353515625,-0.7829094227638095,0.5898553596690297,-1.1154735172271728,0.1174577251076698,-0.1826931238174438,-0.5313562154769897
7.387650146484375,-0.6664584146171808,0.41459085496068,-1.1117454366147517,0.0854827538132667,-0.232027918100357,-0.4930695295333862
7.397678466796875,-0.5411012656331062,0.2209988125316798,-1.0745552313834428,0.0367433540523052,-0.2940516769886017,-0.4294596314430237
7.407705322265625,-0.3680792791545391,0.0760215104668401,-1.018793012151122,-0.0118689239025115,-0.3459540009498596,-0.3396623730659485
7.417733154296875,-0.218398201579228,-0.0265332295380067,-0.9873276143074036,-0.0472053699195385,-0.3581941127777099,-0.2383609414100647
7.42776123046875,-0.0543386161699891,-0.089272639972344,-0.9571271218329668,-0.080802746117115,-0.3266417682170868,-0.1148499175906181
7.437788330078125,0.1657888934198766,-0.148139684219053,-0.8187123383551835,-0.1276721656322479,-0.2700322270393371,0.025103697553277
7.44781640625,0.4111748359721153,-0.2488922336401417,-0.5872171201199293,-0.1868209689855575,-0.1959366798400879,0.1650594770908355
7.45784423828125,0.60769350643754,-0.4098364269752055,-0.3290957607656717,-0.2525389790534973,-0.1367984563112259,0.2960356771945953
7.46787109375,0.7263088530112057,-0.4845594037977978,-0.0997825627446174,-0.3158202171325683,-0.0958592742681503,0.4038545489311218
7.4778994140625,0.752879902942106,-0.507213462948054,0.0872644419550895,-0.3623543083667755,-0.0838631615042686,0.4798500537872314
7.487926025390625,0.6595355565514415,-0.5045275848649442,0.2192658512592315,-0.3783540725708008,-0.1059460937976837,0.505815863609314
7.497954345703125,0.4940167853098362,-0.4710576422657817,0.295219210126996,-0.3659132421016693,-0.169468343257904,0.5001059174537659
7.507982177734375,0.372490081334114,-0.3985151878200471,0.4219605069458484,-0.3362927436828613,-0.2478965818881988,0.466737300157547
7.51800927734375,0.1536376331813633,-0.3098762426413595,0.4902788408905267,-0.2894062995910644,-0.3199894726276397,0.4072108864784241
7.528037353515625,-0.0845426157757639,-0.2410164587637409,0.5379541997790336,-0.2256491482257843,-0.3719232380390167,0.3291911780834198
7.538065185546875,-0.2742373585052788,-0.2162219169860705,0.5457184040397405,-0.1496760845184326,-0.3789754509925842,0.2539950609207153
7.54809228515625,-0.3338866483040154,-0.2415865502692759,0.5862883148372173,-0.0741254016757011,-0.3518034815788269,0.1888842135667801
7.558120361328125,-0.3046890492618084,-0.3385143811699003,0.6503302866369486,-0.0044841272756457,-0.3026912212371826,0.1460935771465301
7.56814697265625,-0.302225143366307,-0.4965619762806221,0.6387339568674564,0.0472807995975017,-0.2009856551885604,0.1063043475151062
7.57817529296875,-0.434666697653383,-0.647549569877237,0.5724900911092757,0.0913212299346923,-0.0720622017979621,0.0674861967563629
7.588203125,-0.512030800101906,-0.7856482731431722,0.4447247119396925,0.1264158338308334,0.0410015061497688,0.0463705249130725
7.59823046875,-0.4268002020619809,-0.8788204778373241,0.3651034782141447,0.1411437094211578,0.1220519244670867,0.0409895963966846
7.608258056640625,-0.3987392058342695,-1.0052559966426342,0.223809924429655,0.1450910419225692,0.1865464895963668,0.040766954421997
7.618286376953125,-0.410484004163742,-1.1350601881634443,0.0568839167386293,0.1405616402626037,0.2112309485673904,0.0459260866045951
7.628313232421875,-0.3379293478235602,-1.2513614125758408,-0.1088578496038913,0.1327268779277801,0.1942876577377319,0.0618997290730476
7.63834130859375,-0.233873637804389,-1.3201039632819591,-0.2528390350371599,0.1260208487510681,0.1489299833774566,0.0815918296575546
7.6483681640625,-0.1785894113473594,-1.404124454879761,-0.3477034306019544,0.11964151263237,0.0691906884312629,0.0979955643415451
7.658396240234375,-0.1053118475601077,-1.3930178083233535,-0.293106163495779,0.105928786098957,-0.0249335803091526,0.117566280066967
7.668424072265625,0.0867402719505131,-1.3536089041292667,-0.1957446904182433,0.0843555778264999,-0.1028174608945846,0.1365314424037933
7.678451171875,0.1761421643257141,-1.2974505251862107,-0.0105120416641235,0.0531230866909027,-0.1631510108709335,0.1407758444547653
7.688478759765625,0.2383563361763954,-1.1986410452574492,0.3019657617777586,0.0187339559197425,-0.2046705037355423,0.1313871294260025
7.698507080078125,0.3486835276804864,-1.0486280323140322,0.5282932219862938,-0.0080433543771505,-0.2003450989723205,0.1127353236079216
7.708533935546875,0.3283694923177361,-0.884667450299859,0.6891226663678884,-0.0259658955037593,-0.1617106199264526,0.0743807405233383
7.718562255859375,0.2969149081289768,-0.7256720164123922,0.8313818503141402,-0.0291739962995052,-0.1063761264085769,0.0233371965587139
7.7285888671875,0.2526857441715896,-0.6152506438188254,0.923521204829216,-0.0257984399795532,-0.0542825646698474,-0.0297467932105064
7.738616943359375,0.1655291465051472,-0.5008473985148594,0.9097586369365454,-0.0137052033096551,0.002788063371554,-0.0976496264338493
7.74864501953125,-0.0320759309574961,-0.3994724154796451,0.8568962307989597,0.0186998751014471,0.0605078190565109,-0.1846553683280944
7.758672119140625,-0.1888617990367114,-0.4102767180886119,0.7047200484722852,0.1800929456949234,0.032030489295721,-0.2613845765590668
7.768699951171875,-0.2836445076674223,-0.1885419559651985,0.3047656216293573,0.3631849884986877,0.1103798896074295,-0.2982706725597381
7.77872802734375,-0.3944102367192506,-0.0759575783851556,-0.0290776259243488,0.4375026524066925,0.1915056407451629,-0.3584176301956177
7.7887548828125,-0.5587568954415619,-0.2510746009142138,0.4151069877892732,0.3957405388355255,0.2202962785959243,-0.4420755207538605
7.798783203125,-0.7876261490873993,-0.3181802893998101,0.6605635113596916,0.2860084772109985,0.2763925790786743,-0.5315476059913635
7.808810791015625,-0.9125909377530216,-0.3041084546285681,0.4748065464705228,0.189750924706459,0.3207424879074096,-0.592850387096405
7.818838134765625,-0.742347914468497,-0.3188309718608856,0.2107218947976827,0.1196572035551071,0.3363510072231293,-0.6151883006095886
7.828865966796875,-0.6318386443957686,-0.3898717165067791,-0.0954313817977905,0.0967769250273704,0.3529946804046631,-0.6164186596870422
7.838892822265625,-0.6724640847727656,-0.4363581213390454,-0.3935995048582553,0.1113797202706337,0.3634464740753174,-0.6012538075447083
7.8489208984375,-0.6150955263223499,-0.3635295799609273,-0.4602542895048856,0.1297129243612289,0.3796161115169525,-0.5789698362350464
7.858948974609375,-0.5999922113452106,-0.2736495486799627,-0.3581722176462412,0.129970371723175,0.3801044821739197,-0.5534197092056274
7.86897607421875,-0.5709801249377429,-0.237614888425637,-0.1982476131498813,0.1191025450825691,0.3710353374481201,-0.5432344079017639
7.879004150390625,-0.5413404812164604,-0.154166059235949,-0.0903267521351575,0.1123457551002502,0.3707325756549835,-0.5484152436256409
