seconds_elapsed,ax,ay,az,gx,gy,gz
0.061398193359375,0.2198814624069258,0.3047160833992063,0.4700082062780857,-0.0352229699492454,-0.1432157307863235,0.0039133019745349
0.071426025390625,0.1146452921652235,0.367116462004371,0.3931143516898155,-0.0216269996017217,-0.1583166420459747,0.0469438582658767
0.0814541015625,-0.0343876054333522,0.4735545371154323,0.3524310436457395,0.0092637799680233,-0.156498298048973,0.0793726220726966
0.09148193359375,-0.1613492670046165,0.6069821067651734,0.3404033367216587,0.0456564091145992,-0.1384631097316742,0.0966544076800346
0.101510009765625,-0.1950005209874361,0.6490871547080576,0.3707727560222149,0.0806232988834381,-0.1112681552767753,0.1092437505722045
0.1115380859375,-0.225011463972833,0.6280276347402483,0.356464244684577,0.1156502589583396,-0.0828820541501045,0.1110483109951019
0.12156591796875,-0.2226249158961698,0.6467112193569541,0.3922551045119762,0.1319489032030105,-0.0518878921866416,0.1172034367918968
0.13159423828125,-0.21363979153838,0.6894480989299714,0.3751426416695118,0.1346786469221115,-0.0169040746986866,0.1212373226881027
0.1416220703125,-0.2174161317393183,0.6944551865022629,0.344697819045186,0.1292546987533569,0.0162149220705032,0.1201269179582595
0.151650146484375,-0.2656825153235346,0.6660589669708162,0.2273421902090311,0.1194097846746444,0.0375194102525711,0.1130516976118087
0.161677978515625,-0.226239380066283,0.6135598411876708,0.0872831466555595,0.1112743839621543,0.0310211069881916,0.1044669151306152
0.1717060546875,-0.1087310083538293,0.5534096161294728,0.0071048635691404,0.1083132177591323,-0.013321322388947,0.1018112078309059
0.181734130859375,-0.0377986400028341,0.4974471981499344,-0.0787707543760538,0.1152081191539764,-0.0644554272294044,0.1087890416383743
0.19176220703125,-0.0482054654435254,0.4429368786748498,-0.113867786720395,0.1357525438070297,-0.1042252033948898,0.1216172203421592
0.2017900390625,-0.0830026015258394,0.4406060976397246,-0.0710123953342437,0.1510393619537353,-0.127131775021553,0.143259048461914
0.211818115234375,-0.0918005692810751,0.4718303071387112,0.0178133045881986,0.1596046239137649,-0.1334429383277893,0.1689734607934951
0.221845947265625,-0.1165466962066013,0.533524108377099,0.0877244606822729,0.1550056338310241,-0.1150166243314743,0.1882305294275283
0.231874267578125,-0.2058664175905287,0.6085283498264848,0.1487017842143774,0.1382490247488021,-0.0924175754189491,0.1964607536792755
0.241902099609375,-0.2663447968908585,0.6829596867587417,0.170770992681384,0.1112501844763755,-0.0737292990088462,0.1935074925422668
0.251929931640625,-0.2719562618307769,0.7010514429621398,0.1241688159823417,0.0924932733178138,-0.0755730047821998,0.1817568391561508
0.2619580078125,-0.251561635512486,0.7074459663048386,0.0875239696741104,0.0855951085686683,-0.1041179746389389,0.1735639572143554
0.271986083984375,-0.2408838818926364,0.7242321928676217,0.0741594611883163,0.0942312106490135,-0.146474227309227,0.1763083338737487
0.28201416015625,-0.2463756294430233,0.754302190830186,0.1165817218542099,0.114281490445137,-0.1898721158504486,0.1933232396841049
0.292042236328125,-0.3059713806899264,0.7884742903493345,0.2175432652503252,0.1396169513463974,-0.2236138433218002,0.2143488973379135
0.302070068359375,-0.4875853274902328,0.8324252218872308,0.2242120754897594,0.1732298135757446,-0.2182242572307586,0.22221739590168
0.31209814453125,-0.6396922074403614,0.92887783649154,0.2100637231498956,0.202504351735115,-0.1926176995038986,0.225591629743576
0.3221259765625,-0.6550768966421484,1.0324009740039706,0.22381927677989,0.216546282172203,-0.1686323881149292,0.2326763868331909
0.332154296875,-0.6082831428937614,0.9915593335930256,0.2598264097064733,0.2107555121183395,-0.1244356408715248,0.2422885298728943
0.34218212890625,-0.5825583710612728,0.8826998034887016,0.2888192799568176,0.1896653771400451,-0.0659534037113189,0.2522211372852325
0.3522099609375,-0.5409335809160024,0.8159928502634167,0.3295253843545913,0.1559966206550598,-0.0029121148400008,0.268328994512558
0.362238037109375,-0.4775517535254359,0.782792810646817,0.31380583717525,0.1203460544347763,0.0666261464357376,0.2926109433174133
0.372265869140625,-0.4794523629823699,0.7544543857172131,0.2702969503164291,0.0843848586082458,0.1444399803876876,0.3172478377819061
0.382294189453125,-0.5633173717575147,0.740681954017654,0.186520934998989,0.055987998843193,0.2164098471403122,0.3323988020420074
0.392322021484375,-0.5467060268376023,0.713616106307134,0.0586181931853294,0.0353897772729396,0.2731791138648987,0.3418594002723694
0.40235009765625,-0.5698646379765123,0.7028955364588647,-0.0697042353451252,0.0231124702841043,0.3023023903369903,0.3342938423156738
0.4123779296875,-0.6328630190074443,0.6865793385606259,-0.2402601239711046,0.0337086580693721,0.3087746500968933,0.3111525774002075
0.422406005859375,-0.6335301046140491,0.708938469884917,-0.3729056763976812,0.0531680211424827,0.2899118959903717,0.2891949713230133
0.43243408203125,-0.6659577716186642,0.7480209916688502,-0.4732780217289924,0.0845376625657081,0.2661629021167755,0.2735153436660766
0.442462158203125,-0.7061012006323785,0.7800355478279292,-0.4863204586535692,0.1093751043081283,0.2323546111583709,0.2522261142730713
0.452489990234375,-0.7610036612302065,0.7947736096892506,-0.4795996259659528,0.1254190504550933,0.1887584030628204,0.2272696495056152
0.462518310546875,-0.7688009640429169,0.812050323182717,-0.4171972380667925,0.1243414506316185,0.1270914524793625,0.1968679428100586
0.4725458984375,-0.7676506980292499,0.7732148349624127,-0.3379980291455984,0.1090288087725639,0.0651612356305122,0.1683066040277481
0.482574951171875,-0.7278440266892313,0.708295568871498,-0.2520633744895458,0.0933519899845123,0.0122172310948371,0.1473397761583328
0.49260205078125,-0.6439473806668072,0.6682134415909647,-0.1717050586611032,0.0853915363550186,-0.0298740286380052,0.1413415372371673
0.502631103515625,-0.5766510832462459,0.6922891675747931,-0.0705254886001348,0.084303967654705,-0.0520228073000907,0.143403097987175
0.512658203125,-0.639546880685538,0.7763415886808186,0.0730067840218544,0.0797888413071632,-0.0539115220308303,0.1481571197509765
0.522687255859375,-0.7079652409385889,0.8286503064583987,0.1932844377845525,0.0685157254338264,-0.0434500984847545,0.1440635770559311
0.53271484375,-0.7508319574363529,0.8399439269542693,0.2669686826765537,0.0616764612495899,-0.033338077366352,0.1296015530824661
0.5427431640625,-0.7788212036021054,0.8445086045213043,0.3354775707572698,0.0542578883469104,-0.026154950261116,0.1069485917687416
0.55277099609375,-0.7595310313943773,0.8670354936279356,0.3998766854315996,0.0481107793748378,-0.0187851842492818,0.0868068411946296
0.562799072265625,-0.7342055245451629,0.8311162581805139,0.4270423402547836,0.0494859367609024,-0.0138349272310733,0.0705868303775787
0.5728271484375,-0.7118236699324101,0.8080286664512007,0.4360568368375301,0.0577308163046836,-0.0107816141098737,0.0585187152028083
0.582855224609375,-0.6861282337922603,0.8035399767298251,0.4670622159540653,0.0760794654488563,-0.0081408247351646,0.0486175194382667
0.592883056640625,-0.6740500387899577,0.8242270101234316,0.5082213248163462,0.087001085281372,0.0003091185353696,0.0394376032054424
0.6029111328125,-0.7069946423407644,0.8550923962473869,0.5203817182093858,0.0973800420761108,0.0097890309989452,0.0339420214295387
0.61293896484375,-0.6900237799260764,0.8816399922374636,0.4913011696755885,0.1025769338011741,0.0239189658313989,0.0231018904596567
0.62296728515625,-0.7038184234574437,0.8771964568320662,0.4105477170497179,0.1043648645281791,0.0557508319616317,0.0126423798501491
0.6329951171875,-0.7493125658493489,0.9030167614609004,0.3458382212519645,0.0989759564399719,0.0883521884679794,-0.0017437497153878
0.643023193359375,-0.7314172090008855,0.8940262302756309,0.2565682846933603,0.0825465247035026,0.123099148273468,-0.0059109358116984
0.653051025390625,-0.6976133582722395,0.8605918704465031,0.1438420692235231,0.0649563446640968,0.1588265150785446,-0.0039045105222612
0.6630791015625,-0.6672591365408151,0.8370453559685498,0.0170674546569585,0.0482546463608741,0.1751800775527954,0.000276944541838
0.673107177734375,-0.6533334139756858,0.8269476672589778,-0.0791658911734819,0.0307797845453023,0.1764171123504638,0.0068959644995629
0.68313525390625,-0.6479301666926592,0.7875574677653611,-0.1777823327481746,0.0154260778799653,0.165597602725029,0.0068080550990998
0.6931630859375,-0.642998701639846,0.7235041708540171,-0.2128308497756719,0.0057050073519349,0.1218908727169036,0.0020737533923238
0.70319091796875,-0.6137495185408741,0.6893937383942306,-0.2919289364099502,0.0042383228428661,0.0815262869000434,-0.004917066078633
0.713218994140625,-0.6135528999902308,0.6928579804386943,-0.4162812922656536,0.0154763301834464,0.0591181851923465,-0.0130804535001516
0.7232470703125,-0.5792282402578741,0.7174947013061493,-0.4406529324561357,0.0285517107695341,0.0516949370503425,-0.0104222474619746
0.733275146484375,-0.5116397184250876,0.7438168910425156,-0.4345943630695342,0.0297858193516731,0.0554012581706047,0.000433596316725
0.74330322265625,-0.473285145589523,0.7588025709893554,-0.3828706055730581,0.0196807719767093,0.0572629533708095,0.0057475971989333
0.7533310546875,-0.4813556027878075,0.7332759155448526,-0.3251058143466711,-0.0042237630113959,0.0609626173973083,-0.000342785671819
0.76335888671875,-0.4916034040251746,0.7114873506501317,-0.283635739839077,-0.0333389155566692,0.0584580078721046,-0.0169957559555768
0.77338720703125,-0.4987396491132676,0.6971143957741558,-0.2945464254319667,-0.0527693405747413,0.0509372428059577,-0.0386608392000198
0.7834150390625,-0.5146751771308481,0.6987364440180361,-0.3459942885965109,-0.0598303936421871,0.0353501699864864,-0.0566750615835189
0.793443115234375,-0.4725410126913338,0.6834221897039562,-0.3851543325960636,-0.0544934198260307,0.0123263448476791,-0.0723461732268333
0.803470947265625,-0.4657653080113232,0.6561040477328002,-0.4309849404007196,-0.0430283434689044,-0.0035005765967071,-0.0779937952756881
0.8134990234375,-0.4695279119478538,0.7040465331248938,-0.3970166198253631,-0.0345949120819568,-0.0143787898123264,-0.0744549855589866
0.823527099609375,-0.5067614448642358,0.7607395304013043,-0.3610328677743673,-0.0299082919955253,-0.0037255212664604,-0.077450156211853
0.833555419921875,-0.6427466996401549,0.8148906611751765,-0.3738520173370838,-0.0338218063116073,0.0182269159704446,-0.0949814766645431
0.843583251953125,-0.7549288713611662,0.8548471893146634,-0.3532324231564998,-0.0447022542357444,0.0444395765662193,-0.1317956447601318
0.853611572265625,-0.8583394153445959,0.8251935901332647,-0.4005997390091419,-0.0571666471660137,0.0739258304238319,-0.1847746968269348
0.86363916015625,-0.9825244518093764,0.750605674399808,-0.51393970246315,-0.0570875108242034,0.102792352437973,-0.2462691962718963
0.87366748046875,-1.0278736327726394,0.6830071060970425,-0.7004191364079714,-0.0457560271024704,0.1360541731119156,-0.2977483868598938
0.8836953125,-0.924538419047743,0.6013117695111782,-0.8684265095949173,-0.0283117033541202,0.1634526252746582,-0.3256376683712005
0.893723388671875,-0.7760096533127129,0.5361750612773001,-0.9767916072458028,-0.0199555046856403,0.1645139008760452,-0.3205627501010895
0.90375146484375,-0.5942525717146694,0.4529083837214857,-0.971114146131277,-0.0317847356200218,0.1305276900529861,-0.2822602093219757
0.913779296875,-0.4226934973955154,0.3814521901424973,-0.90329674744606,-0.0666473805904388,0.0648578703403472,-0.2246826589107513
0.923807373046875,-0.2846246595448814,0.3621308921441435,-0.7702151416897773,-0.1161116734147071,-0.0271979663521051,-0.1529461741447448
0.93383544921875,-0.2366909785137511,0.4040266447179019,-0.5528659377068281,-0.1722100973129272,-0.1251676827669143,-0.0923563241958618
0.94386328125,-0.3594015402454882,0.4856336454331874,-0.3481067507058382,-0.2177397906780243,-0.2200034409761428,-0.064724713563919
0.9538916015625,-0.393142262610048,0.5198866281688213,-0.1897819826215505,-0.231563463807106,-0.304769217967987,-0.0578337796032428
0.963919189453125,-0.1896724578324705,0.4779320580799132,0.027206571355462,-0.2188344597816467,-0.3866119682788849,-0.0523722134530544
0.973947265625,0.0408153643253725,0.4284002576697617,0.2809592141062021,-0.1796343326568603,-0.4539667665958404,-0.0514313168823719
0.983975341796875,0.0982072671187575,0.3898712050501257,0.3731710493355989,-0.1216073334217071,-0.4397805035114288,-0.070758432149887
0.994003173828125,-0.0755472440185956,0.3945625777367502,0.4865829089820385,-0.0645970404148101,-0.3523941934108734,-0.1054082885384559
1.004031494140625,-0.1331434737450443,0.3977271061822772,0.7059896300166845,-0.0391666255891323,-0.2394364029169082,-0.1422526240348816
1.01405908203125,-0.0262972585077979,0.3191189219567925,0.8046686154335737,-0.048962265253067,-0.1149733141064643,-0.166258618235588
1.024087158203125,0.1084579452998004,0.161692198690772,0.9302858766585588,-0.0981071665883064,-0.018684959039092,-0.1737048178911209
1.034115234375,0.2437327867840416,-0.0286336084838956,0.9765741651028396,-0.1650273501873016,0.044348869472742,-0.1662873774766922
1.044143310546875,0.3909825638255104,-0.2112404387790709,0.8919061693817376,-0.2233670502901077,0.0721080377697944,-0.1411497145891189
1.05417138671875,0.4959265279212966,-0.3378025796387344,0.749866765666008,-0.2565670609474182,0.0631813928484916,-0.1041410937905311
1.064199462890625,0.5631573954228312,-0.4213459552440792,0.6152309162050486,-0.2565010786056518,0.0210482496768236,-0.0643355399370193
1.07422705078125,0.5901408620795234,-0.4254842240925878,0.5452051938205957,-0.2317235320806503,-0.0207026600837707,-0.0337731055915355
1.08425537109375,0.5063352553414181,-0.3891029240913689,0.461799765381217,-0.1824313104152679,-0.0370849482715129,-0.0184243116527795
1.094283203125,0.379798212390393,-0.3143723850168287,0.4422346486896276,-0.1216997802257537,-0.0367563143372535,-0.0192986261099576
1.1043115234375,0.3228443356880918,-0.2105401084899902,0.4577934523493051,-0.0667238160967826,-0.0145297907292842,-0.0329365693032741
1.11433935546875,0.21613959073117,-0.185545294899866,0.4262994129329919,-0.0300531554967165,0.0315290465950965,-0.062351182103157
1.1243671875,0.1804347469530999,-0.2273728776082396,0.4086766624808311,-0.0166418086737394,0.0673738047480583,-0.0873938873410224
1.134395263671875,0.2663804527261294,-0.2990945902556181,0.3949041577160358,-0.018273526802659,0.0930317640304565,-0.1014375314116478
1.14442333984375,0.2872906090848148,-0.4013653896193951,0.300217456805706,-0.0262532010674476,0.1139813810586929,-0.1111690923571586
1.154451416015625,0.2785148896940052,-0.508898493425548,0.210191733443737,-0.0281118210405111,0.1301973760128021,-0.1058472990989685
1.1644794921875,0.2827291646544821,-0.5805686220161617,0.128814011439681,-0.0231214687228202,0.1424368172883987,-0.0884850397706031
1.174507080078125,0.2788342395751736,-0.5953599484346807,0.0484019195973873,-0.0139860277995467,0.1344867497682571,-0.0581636242568492
1.184535400390625,0.2809795627744868,-0.5878481845650821,0.033152328017354,-0.006380851380527,0.1020210608839988,-0.0161269623786211
1.194563232421875,0.2796875319362618,-0.5812223366845399,0.0373024334341287,0.0041732564568519,0.0437857098877429,0.0272940155118703
1.204591552734375,0.2642980386951938,-0.5443099985465407,0.1111322242766618,0.0202700868248939,-0.037769541144371,0.0727559030055999
1.214619384765625,0.2161320832781493,-0.451010660341382,0.2322884144395589,0.0462929010391235,-0.1246857941150665,0.10750163346529
1.2246474609375,0.17789927365873,-0.2990283200863748,0.3861503578960895,0.0810643583536148,-0.1893845349550247,0.138599693775177
1.23467529296875,0.1133267843120265,-0.1279316756471991,0.5321855532497167,0.1275626122951507,-0.2250384092330932,0.1665383726358413
1.244703125,0.0670501680392306,0.0900007350511848,0.7018804411321878,0.1732077151536941,-0.2250283658504486,0.1871981620788574
1.2547314453125,0.0263019666489562,0.2978312192562967,0.8982605068445205,0.2027810513973236,-0.1922640204429626,0.2042035162448883
1.26475927734375,0.0407771877394523,0.4450512404803186,1.0685299797445535,0.208806425333023,-0.1374526917934417,0.2234425246715545
1.274787353515625,0.0750034879641374,0.5600037536974996,1.247386663725972,0.1805137991905212,-0.0825763866305351,0.241354689002037
1.284815185546875,0.1062845833160914,0.6186412361051887,1.341153911703825,0.1285497695207595,-0.0220350883901119,0.257025271654129
1.29484326171875,0.1214868468893691,0.6648448419407009,1.3279910632699727,0.0736572220921516,0.0436358004808425,0.2672952115535736
1.304871337890625,0.1243682658108882,0.75335745732598,1.2309469855785369,0.0223115850239992,0.0946376547217369,0.280094712972641
1.3148994140625,0.1168499078037217,0.841000158008933,1.0702607490599154,-0.0109094837680459,0.126425951719284,0.289581686258316
1.32492724609375,0.0358349364311434,0.901406549785286,0.8678717983216047,-0.0191254317760467,0.1437833458185196,0.2860340476036072
1.33495556640625,-0.0473445377652533,0.9281872969441116,0.611410481134057,-0.0027645681984722,0.1499064862728119,0.2678734064102173
1.344983154296875,-0.0963575658651534,0.976189695829898,0.3945212958782911,0.0251859128475189,0.1446626782417297,0.2437335699796676
1.355011474609375,-0.0652010513075161,1.0206487230204044,0.2583031456619501,0.0521200597286224,0.1151676252484321,0.225440576672554
1.365039306640625,-0.0369811359077575,1.0101469835545869,0.1703641654461622,0.0682963207364082,0.0666457563638687,0.203451469540596
1.3750673828125,-0.0259168329390231,0.9703217536445706,0.0687181469172239,0.07269798964262,0.016154084354639,0.1830953359603881
1.385095458984375,0.0215904827560647,0.955022843030095,0.0308007964551448,0.0709176659584045,-0.0415251925587654,0.1702053695917129
1.395123291015625,0.0858345004835166,0.9591253099128604,-0.0051326867133378,0.063664011657238,-0.0900154933333396,0.1661893129348755
1.4051513671875,0.1359135777791962,0.9540029984630644,-0.0300800809651613,0.0516367405652999,-0.1218293309211731,0.1721577644348144
1.415179443359375,0.1965030162385664,0.9217785989455878,-0.0191734870254993,0.0397190935909748,-0.1389457434415817,0.1837773919105529
1.425207275390625,0.2969627658586949,0.8937158491522074,0.012648469170928,0.0216848719865083,-0.1491848081350326,0.2088654041290283
1.435235595703125,0.3823801551749929,0.9237032833978532,0.0513765514940023,-0.0026913073379546,-0.1442997753620147,0.2446058243513107
1.44526318359375,0.4898605424132198,0.9276568433292208,0.0982961235791444,-0.0362316668033599,-0.138245016336441,0.2828922569751739
1.455291259765625,0.5187987233342602,0.9131701258804648,0.1113788925141096,-0.0668937042355537,-0.13389952480793,0.3104785978794098
1.4653193359375,0.5843615114931017,0.8730464244805276,0.0958060603290796,-0.0863790214061737,-0.1445099115371704,0.3295219540596008
1.475347412109375,0.6352730027586221,0.8337449261836707,0.0097942487835884,-0.0851499736309051,-0.1537715941667556,0.3504586815834045
1.48537548828125,0.6660512951210141,0.8528278853815049,-0.0401315193802118,-0.0715337172150611,-0.1605725288391113,0.3719326257705688
1.4954033203125,0.6377613855082541,0.8921534221410751,-0.0422165089607238,-0.0536322183907032,-0.1543111652135849,0.3956795036792755
1.50543115234375,0.5098388430155814,0.8611066150356084,-0.0631505759179592,-0.0404484681785106,-0.1245892271399498,0.4050129354000091
1.515459228515625,0.3842856600027531,0.8413766631711274,-0.0330506212085485,-0.0417997539043426,-0.0659144669771194,0.4105459153652191
1.5254873046875,0.3111381523359566,0.8047223183821887,-0.0581178424477577,-0.0558244027197361,0.0039298776537179,0.4222856760025024
1.535515380859375,0.281615613922011,0.7744502950415014,-0.0816670603394508,-0.0822384282946586,0.070951260626316,0.438338428735733
1.54554345703125,0.2554879786433652,0.7461725142579525,-0.0763578480154275,-0.1265633255243301,0.1196132004261016,0.4616864919662475
1.555571044921875,0.2100183496382087,0.6557354336161166,-0.1951198365181684,-0.1656782329082489,0.1606178879737854,0.4818136096000671
1.565599365234375,0.1085040494638495,0.5673642725281417,-0.3709101186662912,-0.1866405606269836,0.1851000785827636,0.5048398971557617
1.575627197265625,0.0278468054877594,0.5539233378052711,-0.5573989049613476,-0.1914909780025482,0.1913372129201889,0.5364319086074829
1.585655517578125,-0.0368267239474691,0.5974989332247526,-0.6878712050020694,-0.1840713769197464,0.1676761656999588,0.5738984942436218
1.595683349609375,-0.1850453825537115,0.6416060782376677,-0.7490811682462691,-0.1770683228969574,0.1164563819766044,0.5989822745323181
1.605711181640625,-0.3845532979629933,0.6386120109882205,-0.7826146045356989,-0.1762312352657318,0.0430826134979724,0.5987098217010498
1.6157392578125,-0.5578190666021778,0.6448058971922844,-0.7675216648221016,-0.172034353017807,-0.0316105335950851,0.5793845653533936
1.625767333984375,-0.6584638356667012,0.6807989285282791,-0.7882622550338506,-0.1522229164838791,-0.0792126357555389,0.5541805028915405
1.63579541015625,-0.7364671858668327,0.7036425554338842,-0.8341057223200797,-0.1192708164453506,-0.0832806080579757,0.5384939312934875
1.645823486328125,-0.855928700941056,0.7347340784639119,-0.7868149788349866,-0.0882837548851966,-0.0589807629585266,0.5252178311347961
1.655851318359375,-0.9419484765972942,0.722643608501926,-0.7219757191777229,-0.0753895342350006,-0.0180056318640708,0.5032859444618225
1.66587939453125,-0.9987027025416492,0.6331994844201951,-0.6543956363797188,-0.0831877663731575,0.0218952558934688,0.4740215241909027
1.6759072265625,-0.994648020323366,0.4714871197242289,-0.6566881312310695,-0.1006770133972168,0.0519402362406253,0.4408055245876312
1.685935546875,-0.8895839369792491,0.2411835954915732,-0.7236720017015934,-0.1066290363669395,0.0568398237228393,0.4231939613819122
1.69596337890625,-0.7488542276225983,0.0519545705776661,-0.8003986830294132,-0.0991484820842742,0.0512583702802658,0.4303743839263916
1.705991455078125,-0.643255891271308,-0.0800036571718752,-0.7943348529458045,-0.0845891535282135,0.0379982516169548,0.46074378490448
1.716019287109375,-0.5527053403176367,-0.1766555206753313,-0.711337420785427,-0.0754004493355751,0.0076848184689879,0.509530246257782
1.72604736328125,-0.4578983009632676,-0.2007708480171859,-0.5862450602173805,-0.0723515078425407,-0.0292044151574373,0.5662792325019836
1.736076171875,-0.4471890927592292,-0.2015694510489702,-0.4951864866763353,-0.0762128233909607,-0.0522615313529968,0.6083416938781738
1.746103515625,-0.5652799405347556,-0.0746494366623461,-0.3818295720875263,-0.0877384543418884,-0.0598600581288337,0.6347927451133728
1.75613232421875,-0.6204441208086907,0.0618142858128994,-0.25116028816998,-0.110311135649681,-0.0430768206715583,0.6479133367538452
1.766160400390625,-0.5986802519638091,0.1351596541393548,-0.1824351269900798,-0.1273866295814514,-0.0128583908081054,0.6574461460113525
1.776188232421875,-0.5325273889573291,0.1782216009482741,-0.0745323861539363,-0.1374587118625641,0.0123281870037317,0.669444739818573
1.78621630859375,-0.5429072190765292,0.2064736627686768,-0.0171399353712797,-0.1390859186649322,0.0365800894796848,0.6850314140319824
1.796244384765625,-0.674646251117438,0.1801031769111752,0.046281858703494,-0.1398385167121887,0.0603943429887294,0.6945497989654541
1.8062724609375,-0.8394269904080778,0.0934246816178783,0.1526642581045627,-0.136862426996231,0.0788636952638626,0.690614640712738
1.81630029296875,-0.96917850189358,0.0069094140622764,0.2260971585839986,-0.1249807327985763,0.0804860889911651,0.6830922961235046
1.82632861328125,-1.0505405879370868,-0.0530113496216014,0.2947708818376064,-0.1015494838356971,0.0696383714675903,0.6800058484077454
1.8363564453125,-1.1378330869428812,-0.1020418129134923,0.3217909907102584,-0.0589175969362258,0.0553718209266662,0.6840642690658569
1.846384521484375,-1.2272158362261951,-0.1154130434010177,0.3671054656863212,-0.0080391420051455,0.0495823919773101,0.6929033398628235
1.85641259765625,-1.3320511523157357,-0.1538517873886972,0.4451017285585403,0.041425347328186,0.0643240511417388,0.7036678194999695
1.8664404296875,-1.413625858196616,-0.2313040430447086,0.5482119744211434,0.0826014876365661,0.0924885421991348,0.7193505167961121
1.87646875,-1.4617074597984552,-0.2746161652224138,0.7329109546899795,0.101465456187725,0.1070863902568817,0.7536150217056274
1.886496337890625,-1.4752742128580807,-0.3576306215828284,0.7359118900716304,0.1158772259950637,0.1514085382223129,0.7976962924003601
1.8965244140625,-1.5141465259574354,-0.4234221769962459,0.8030851456344127,0.131217822432518,0.185697004199028,0.847017228603363
1.906552490234375,-1.5082666741386055,-0.3966633494082838,0.8064794642478227,0.1408897340297699,0.2384204119443893,0.9040201902389526
1.91658056640625,-1.4888677077941597,-0.3818441120695322,0.7474696413964033,0.1426823139190673,0.3037171363830566,0.9600594639778136
1.926608642578125,-1.4667659122318029,-0.4037689801624045,0.6986416053414345,0.1376177072525024,0.3604647815227508,1.0023356676101685
1.93663671875,-1.430225549211353,-0.4550661462772637,0.5827326681822538,0.1331952661275863,0.4029499292373657,1.035986304283142
1.946664306640625,-1.3404092308163642,-0.486169980799593,0.4746493100821972,0.1302172243595123,0.4256559312343597,1.071153998374939
1.956692626953125,-1.240953561938554,-0.4769850595533847,0.3715039929062128,0.13191819190979,0.4246204793453216,1.103335738182068
1.966720458984375,-1.1829827998112887,-0.4226233182361349,0.2991302460908889,0.14040607213974,0.4008726477622986,1.1370794773101809
1.976748779296875,-1.1037232390049845,-0.3689167528919875,0.2925613890945911,0.1495271325111389,0.3530840575695038,1.1645795106887815
1.986776611328125,-1.0687013907887042,-0.3043584290679544,0.3006605243980884,0.1601214557886123,0.2882996201515198,1.1834248304367063
1.996804443359375,-1.053727401279658,-0.2092858706451952,0.3613409108102321,0.1682981550693512,0.217644914984703,1.195574164390564
2.00683251953125,-1.0761769873663782,-0.050255292379111,0.4882750998526811,0.1726523488759994,0.1514346301555633,1.2004458904266355
2.016860595703125,-1.122770980758965,0.1182438098475337,0.5909481233417987,0.1799603253602981,0.1067971214652061,1.197373867034912
2.026888671875,-1.224204087189585,0.2924568327415734,0.6868430309981107,0.1847626268863678,0.0899261236190795,1.1829566955566406
2.036916748046875,-1.3790242081537842,0.4970885939706116,0.8308692246168852,0.182223305106163,0.107619896531105,1.1546515226364136
2.0469443359375,-1.4657662336699664,0.6282257145956158,0.9240180484354495,0.1664623916149139,0.1418023109436035,1.1185088157653809
2.056972412109375,-1.5268293357893823,0.7155231820374727,0.98518943323493,0.1465360969305038,0.1746619790792465,1.0727277994155884
2.06700048828125,-1.5978009607218204,0.7533850029200315,0.9976683910578488,0.1239501982927322,0.2068028002977371,1.0279452800750732
2.077028564453125,-1.6298036803126337,0.7829724049974233,0.9361702585220336,0.1028816625475883,0.2296849489212036,0.9916689991950988
2.087056640625,-1.6593514079667626,0.7640492394711822,0.8153080828696488,0.094792790710926,0.2448464483022689,0.9644192457199096
2.09708447265625,-1.7031784208640457,0.7297894616685807,0.6674439185231924,0.1032427325844764,0.2558434307575226,0.945046603679657
2.107112548828125,-1.787318447188288,0.7162652325764298,0.542453849285841,0.1170834004878997,0.2643528878688812,0.9218218922615052
2.117140380859375,-1.8632224139563736,0.7201796295411884,0.4259533759742975,0.1282817274332046,0.2718262672424316,0.8996486663818359
2.127168701171875,-1.8896600467659528,0.743509286398068,0.3844780407696962,0.1217283308506012,0.2651040852069855,0.8851459622383118
2.137196533203125,-1.878994275844842,0.7194891630589961,0.3782739254325628,0.0956767573952674,0.2530109584331512,0.8736184239387512
2.147224609375,-1.904825905585289,0.6430117072518915,0.3387660909086465,0.0627913922071456,0.2524396181106567,0.857424795627594
2.15725244140625,-1.912421329150349,0.5721852629438042,0.2706231135308742,0.0273138228803873,0.260157972574234,0.8440759778022766
2.167280517578125,-1.850140667934716,0.567491552169621,0.2027221282154321,-0.0067405849695205,0.2642749845981598,0.8374890089035034
2.17730859375,-1.744218141130358,0.5319079784173518,0.1080792664468288,-0.0310938619077205,0.2637205123901367,0.8413004875183105
2.187336669921875,-1.6871262807294725,0.4980831579659134,0.0382984587341546,-0.0539162084460258,0.2542893588542938,0.8455604314804077
2.197364501953125,-1.6551915118083358,0.4588627620812505,-0.0386105934232473,-0.0762175247073173,0.2366320639848709,0.8404940366744995
2.207392822265625,-1.6564932420566678,0.4988880446080118,-0.0944827027708292,-0.0997979491949081,0.2166828662157058,0.8317444920539856
2.21742041015625,-1.6519493150167166,0.5065012960907072,-0.2320306402862071,-0.1122828498482704,0.207219585776329,0.811396062374115
2.227448486328125,-1.5903861544206737,0.4498801219414919,-0.3424246134161949,-0.1125309690833091,0.1919156014919281,0.792159378528595
2.2374765625,-1.463253227935731,0.3977132968526333,-0.4282663290917873,-0.1009251773357391,0.1633348166942596,0.7820342779159546
2.247504638671875,-1.3144061900317667,0.3426777844596654,-0.4455681770265102,-0.0895987898111343,0.1251014322042465,0.7815507650375366
2.25753271484375,-1.2386793333962558,0.3047844724602997,-0.3828852186203003,-0.0830287709832191,0.0896971076726913,0.7835292220115662
2.267560546875,-1.2241647050272673,0.3044701458141207,-0.2987175736367702,-0.0819175392389297,0.0644120573997497,0.7853835821151733
2.27758837890625,-1.1945924274537711,0.2831434993427246,-0.1959545337766408,-0.0805151239037513,0.0598948076367378,0.7834354639053345
2.28761669921875,-1.1807511683017016,0.2775624112747609,-0.1021831941455602,-0.0864762291312217,0.0789286196231842,0.7833481431007385
2.29764453125,-1.1794341674190014,0.296219400145486,-0.0367108972817659,-0.1042496338486671,0.1148402690887451,0.7835209369659424
2.307672607421875,-1.2359936014436184,0.2902537697393447,-0.0160141462117433,-0.1253384798765182,0.1589436084032058,0.7834566831588745
2.317700439453125,-1.214636048377305,0.2749225642904639,-0.0579272883117198,-0.1366912722587585,0.1921801269054412,0.7924453616142273
2.327728271484375,-1.105524224012345,0.2853251542307436,-0.1105728368282318,-0.1393494457006454,0.2129187434911728,0.8128397464752197
2.337756591796875,-1.0496171894818545,0.3133992291357368,-0.1567389601975679,-0.1365789473056793,0.2228909432888031,0.8371155261993408
2.347784423828125,-1.135451014111936,0.4158201044946908,-0.177294841492176,-0.1356572359800338,0.2424643784761428,0.8529583811759949
2.357812744140625,-1.3199910044267773,0.5184452702540904,-0.2565747144341468,-0.1263268440961837,0.2736089825630188,0.8383362889289856
2.36784033203125,-1.4500966631121932,0.6294876973554492,-0.4373825324833393,-0.1168590635061264,0.3290166556835174,0.8054587841033936
2.377868408203125,-1.576000778454542,0.7217194793943316,-0.6129957044988871,-0.1072415858507156,0.389273077249527,0.7492554783821106
2.387896484375,-1.7372256518945095,0.7031221117563545,-0.8187146764427423,-0.1034627929329872,0.436128169298172,0.6800816059112549
2.397924560546875,-1.8223501592114568,0.6009264234554023,-1.056710362613201,-0.094595268368721,0.4507297575473785,0.6094050407409668
2.40795263671875,-1.78244221945405,0.4783982142869383,-1.2776678202211855,-0.0769833549857139,0.4047972559928894,0.5468506217002869
2.417980712890625,-1.6740581248417497,0.2698548325721174,-1.513306714132428,-0.0414123125374317,0.3137387037277221,0.5058033466339111
2.42800830078125,-1.493624546932429,0.0445214249022304,-1.6397686094880104,0.0034160201903432,0.1859425604343414,0.50592440366745
2.43803662109375,-1.2137887838982044,-0.1262484718006104,-1.5361767175883054,0.0400794893503189,0.0430565066635608,0.5580642819404602
2.448064453125,-0.9629792088620364,-0.2229492890123277,-1.2437959457576273,0.0549045093357563,-0.0943916290998458,0.6485965847969055
2.4580927734375,-0.7621092113193124,-0.2732530967082828,-0.8157417981117964,0.0453983545303344,-0.1943911910057068,0.7616946697235107
2.46812060546875,-0.6752234664835035,-0.2154097603529691,-0.3869090673089027,0.0079745529219508,-0.2373844683170318,0.8663720488548279
2.4781484375,-0.7225961891636252,-0.0635780806150287,0.0564098694860935,-0.0475145392119884,-0.2340603172779083,0.9447848200798036
2.488176513671875,-0.844538999659568,0.085639178840816,0.434594947591424,-0.1090087071061134,-0.2002577632665634,0.9814212322235109
2.49820458984375,-0.9273093450658024,0.2120488325525075,0.6702806032538413,-0.1613414138555526,-0.1444634646177292,0.994468867778778
2.508232666015625,-0.8792119613729417,0.2550654789149761,0.739760382193327,-0.1890488713979721,-0.0768541991710662,0.9917951822280884
2.5182607421875,-0.7641581797383725,0.2015687203966081,0.7317524323046207,-0.1938127279281616,-0.0278605595231056,0.9921411275863647
2.528288330078125,-0.593552716349624,0.152448788722977,0.7559925550699234,-0.1841591298580169,-0.0151141723617911,1.007097840309143
2.538316650390625,-0.3372339859705418,0.0632880116272717,0.8099374957472085,-0.1793388128280639,-0.0328833125531673,1.036486029624939
2.548344482421875,-0.141608391887322,-0.0775190738145261,0.9070499624997376,-0.1770739257335662,-0.058419469743967,1.072628140449524
2.55837255859375,-0.0982329952150583,-0.1664305523242801,1.003735143750906,-0.1907809525728225,-0.0888101309537887,1.1061432361602783
2.568400634765625,-0.141092332123965,-0.156777830903232,1.1103507673859596,-0.2099231481552124,-0.1087493598461151,1.1324365139007568
2.578428466796875,-0.2194200189076364,-0.0775857093099504,1.134787289506197,-0.2304257601499557,-0.1036861538887023,1.1458628177642822
2.58845654296875,-0.3201095404293388,0.0189672969289124,1.1418763709843158,-0.2410940080881118,-0.0916199833154678,1.1488815546035769
2.598484375,-0.4137416542528196,0.1267038874179124,1.1027788708269597,-0.2464442998170852,-0.064961738884449,1.1364206075668335
2.608512451171875,-0.5503779202833772,0.1764949963513761,0.988505425915122,-0.2436669021844864,-0.0202747620642185,1.1026606559753418
2.61854052734375,-0.7210648879431187,0.1716158094750717,0.8040437615334988,-0.2261544913053512,0.0230527371168136,1.0493518114089966
2.628568603515625,-0.8644102596908807,0.0971029682718217,0.5857078846007585,-0.195421889424324,0.0603205747902393,0.9762009382247924
2.638596435546875,-0.958028600717336,-0.0006532762769609,0.3062222501784563,-0.1475869864225387,0.0899655520915985,0.9029123187065125
2.64862451171875,-0.9505983045861124,-0.1355424063792452,0.0770633659362793,-0.0907515510916709,0.0993626192212104,0.8468541502952576
2.65865234375,-0.7990633427724242,-0.3233879045128822,-0.1344511405438184,-0.03416683152318,0.0843735486268997,0.8195649981498718
2.6686806640625,-0.5990794073492288,-0.5541943367663771,-0.2422784780561923,0.0107270022854208,0.0428844168782234,0.8192728161811829
2.67870849609375,-0.3979595632312819,-0.743338386810571,-0.2749561742991209,0.0407653301954269,-0.0157741047441959,0.8454554080963135
2.68873681640625,-0.2300735879343003,-0.8683348127234727,-0.1989583917677402,0.0468711219727993,-0.0857462435960769,0.8945426344871521
2.698764404296875,-0.0866233310399577,-0.9422237133421004,-0.1078665004789829,0.0401130840182304,-0.1453592330217361,0.959476888179779
2.70879248046875,0.0247516890166327,-0.9206740717697888,-0.0020528408765792,0.0281469598412513,-0.1793746203184127,1.039400339126587
2.718820556640625,0.1129342321973294,-0.7970162009842693,0.1875567077875137,0.0083381012082099,-0.1915689706802368,1.1239585876464844
2.7288486328125,0.1412474861530587,-0.6227440683141351,0.3678255966544151,-0.016687586903572,-0.1838098764419555,1.197381615638733
2.738876708984375,0.045939767267555,-0.3986639121083542,0.5730214215070009,-0.0543686524033546,-0.1626388132572174,1.2391595840454102
2.748904541015625,-0.1448901717706583,-0.191803368913941,0.7335948453009128,-0.0956095457077026,-0.1356318891048431,1.2394102811813354
2.758932373046875,-0.3662054481066763,-0.0401311540540307,0.8118097193598747,-0.1207551136612892,-0.1172547414898872,1.2035486698150637
2.768960693359375,-0.4808377529261633,0.0530009012928232,0.8316314411610365,-0.1139644607901573,-0.0976199582219123,1.1567764282226562
2.778988525390625,-0.4429260650198906,0.1344210376664996,0.799365832850337,-0.0833335816860199,-0.0900182276964187,1.1177858114242554
2.789016845703125,-0.3371661814313382,0.1867110507436096,0.8087631912708282,-0.0393235012888908,-0.0942602083086967,1.0910778045654297
2.79904443359375,-0.2992038958489895,0.2084436111347749,0.8469353932768106,0.0102259442210197,-0.1104644760489463,1.0677224397659302
2.809072509765625,-0.3128402070134878,0.2334061664231121,0.9478864152789116,0.0413449890911579,-0.1180279627442359,1.0412485599517822
2.8191005859375,-0.3514582165582105,0.2453524056088179,1.0467506941348317,0.0544775687158107,-0.1167879924178123,1.0051952600479126
2.82912841796875,-0.4923370155293494,0.2620017809841781,1.1049965468764305,0.0527591407299041,-0.0970215573906898,0.9585657119750975
2.83915673828125,-0.6290788973588496,0.276471766493842,1.0463368526369332,0.0448807105422019,-0.0581226274371147,0.9117151498794556
2.849184814453125,-0.6363662048228085,0.3008528686324134,0.971336264449358,0.037100613117218,-0.0081363655626773,0.8734734058380127
2.859212646484375,-0.5826503967262804,0.290691941960901,0.8532143274158239,0.0299652088433504,0.0369309782981872,0.8409612774848938
2.86924072265625,-0.5324870934795588,0.2430413521874695,0.6500608220458031,0.0301783923059701,0.0700324699282646,0.8123213052749634
2.879268798828125,-0.4616804863831028,0.2234084309566766,0.5231792399734259,0.0302465688437223,0.0875329002737999,0.7812467813491821
2.889296630859375,-0.3999246892917901,0.1994038705129176,0.4314472972154617,0.0291385855525732,0.0848415791988372,0.7606754302978516
2.899324951171875,-0.3013235914167017,0.1790709477866068,0.3349579307973385,0.0251963082700967,0.058474950492382,0.7539584040641785
2.9093525390625,-0.1800942629523575,0.1237774420445784,0.2003852097004652,0.0262136571109294,0.0091695189476013,0.7562403678894043
2.919380859375,-0.1075946886671241,0.073522003534995,0.0835199947297573,0.0320920534431934,-0.0437610745429992,0.763584554195404
2.92940869140625,-0.0284071701837237,0.1072941074185073,0.0266764100015163,0.0411233939230442,-0.084291897714138,0.777944028377533
2.939436767578125,0.0044209765137173,0.1822404812008142,0.0251911398798227,0.0422533713281154,-0.1035923585295677,0.7884877920150757
2.94946484375,0.0030270562035962,0.2833818381432443,0.0696563045501709,0.0358598791062831,-0.1133653670549392,0.7953861355781555
2.959492919921875,0.0579028388570528,0.3428290294986218,0.1119476323127746,0.0169378537684679,-0.1164796650409698,0.7887855172157288
2.969520751953125,0.0938535014891996,0.3684054423689842,0.1098982985675334,-0.0014347264077514,-0.1203431412577629,0.7762477993965149
2.979548828125,0.1185250562080182,0.3669518825598061,0.093578447407484,-0.0167665444314479,-0.1227793917059898,0.7579545378684998
2.98957666015625,0.1615234545277431,0.3611427578896284,0.0407961207687854,-0.024429690092802,-0.1178871318697929,0.7535580396652222
2.99960498046875,0.233027341439668,0.3378465649109333,-0.0160199914306402,-0.0259535498917102,-0.1057708114385604,0.7568220496177673
3.0096328125,0.3363955989176407,0.26597068461515,-0.1180751752823591,-0.0155477942898869,-0.1024678722023963,0.7640455961227417
3.019660888671875,0.3837854919282719,0.2288827707145363,-0.1655880370855331,-0.006879205815494,-0.1047621890902519,0.7695207595825195
3.029688720703125,0.378748118815571,0.194009975580126,-0.1663134287506341,-0.0049766656011343,-0.0944952294230461,0.772213876247406
3.039716796875,0.3572584638021886,0.1323196814730763,-0.1634521941006183,-0.01042309589684,-0.0767548456788063,0.7780272960662842
3.049744873046875,0.3866520603405311,0.1006494817722588,-0.1133738657236099,-0.0298608541488647,-0.0498307235538959,0.7975072860717773
3.05977294921875,0.4229976314412429,0.0941305648649111,-0.1295727208524942,-0.0617170520126819,-0.0176496151834726,0.8335174322128296
3.06980078125,0.3537748229375109,0.156858202663064,-0.1365811383098363,-0.0947795510292053,0.0016138989012688,0.868994414806366
3.079828857421875,0.1254269445509649,0.2951300340062007,-0.2239022788882255,-0.1225821450352668,0.0179236307740211,0.8841384649276733
3.089856689453125,-0.1745242990666069,0.4591306192371994,-0.417498266839981,-0.1316975653171539,0.0492936894297599,0.8681333661079407
3.099884765625,-0.5875360133433715,0.5489851872833446,-0.6751555158138275,-0.1126850023865699,0.1033244356513023,0.8108514547348022
3.109912841796875,-0.9004265257719903,0.5589939190678298,-0.9197919551730156,-0.0767454802989959,0.1482038348913192,0.7281379103660583
3.11994091796875,-1.0887195850100368,0.4789547887237742,-1.1218564962625504,-0.0322874709963798,0.1817407608032226,0.6340404152870178
3.12996875,-1.2165782684862614,0.2665731440203264,-1.3716361437290907,0.0201245341449975,0.2136305719614029,0.5391899943351746
3.13999658203125,-1.275320964834094,-0.0407236035218462,-1.6087468637585638,0.0807524621486663,0.2307528257369995,0.458620548248291
3.15002490234375,-1.162544261286035,-0.3445247640332207,-1.777992254307866,0.1346269249916076,0.2052489519119262,0.4139779210090637
3.160052734375,-0.9004740181755274,-0.6770049430727958,-1.849672173640132,0.1668546497821808,0.1329433321952819,0.4268119633197784
3.170080810546875,-0.6280104644097387,-0.939117271759361,-1.7378765170186756,0.1756287217140197,-0.0001680562272667,0.4831470549106598
3.180108642578125,-0.4439106190778314,-1.093648931171,-1.5305769978851078,0.1583032608032226,-0.1604996770620346,0.5706508159637451
3.19013671875,-0.3591974690407514,-1.141427238977328,-1.2795149093925953,0.1438899338245391,-0.3086241483688354,0.6578891277313232
3.200164794921875,-0.3773569932507351,-1.0213884354718028,-0.9096820645689964,0.1278795301914215,-0.4072452485561371,0.7323867678642273
3.21019287109375,-0.4693063050864264,-0.7900911509614438,-0.4273059596270323,0.1147448197007179,-0.4405938982963562,0.79427170753479
3.220220703125,-0.5340187600262463,-0.5351249677024782,0.0970072528123855,0.0923633500933647,-0.4208191037178039,0.8394916653633118
3.230248779296875,-0.578432486770302,-0.3168035576865077,0.6499591152369976,0.0574360638856887,-0.3657202124595642,0.8683781027793884
3.240276611328125,-0.5567189598731697,-0.1574750924523919,1.087898697081208,0.0213430430740118,-0.2960622906684875,0.8895323872566223
3.250304931640625,-0.573903465038538,-0.0115109895735979,1.4158546401619911,-0.01619478687644,-0.2266584634780883,0.8974545001983643
3.260332763671875,-0.6839440946862101,0.1319222796533256,1.6159119330823422,-0.044612843543291,-0.1558585911989212,0.8823460936546326
3.27036083984375,-0.9330913625333458,0.2469516574990004,1.6922382169157266,-0.0550587922334671,-0.0707082971930503,0.8424984812736511
3.280388916015625,-1.213840952476859,0.3562080049011856,1.6187404345065357,-0.0443821810185909,0.0332548543810844,0.7830085158348083
3.290416748046875,-1.367364457759261,0.494624249683693,1.5038620094388722,-0.0257446654140949,0.1337877213954925,0.7182669639587402
3.30044482421875,-1.503083864673227,0.5286961767639965,1.2914169441103935,-0.0055802753195166,0.2216659188270568,0.6464524269104004
3.310472900390625,-1.602636564184725,0.4560557418365031,1.044470474243164,0.0129651948809623,0.2862381637096405,0.5773056149482727
3.320500732421875,-1.6035615700751542,0.3067450319435447,0.8558540282696485,0.0220953095704317,0.3183625340461731,0.5067174434661865
3.330529052734375,-1.5730318456463517,0.1254991878032684,0.6191168177276849,0.0258034951984882,0.3163324296474457,0.4398798048496246
3.340556640625,-1.586846143726259,-0.0886054082352668,0.2921089691519737,0.04714260622859,0.3053575158119201,0.3764329254627228
3.3505849609375,-1.6266830640740693,-0.2394689005281776,-0.0119821142166852,0.0736388340592384,0.2845062911510467,0.3226032257080078
3.36061279296875,-1.548834100718051,-0.4063098602842539,-0.2424351299226284,0.1017096117138862,0.2597098648548126,0.283620148897171
3.370640625,-1.450632377424091,-0.6197685596346855,-0.399704251474142,0.1267610341310501,0.2245670408010482,0.2590244710445404
3.3806689453125,-1.268557315918058,-0.7584508349422365,-0.4578396295785903,0.1322111934423446,0.1687658280134201,0.2638208270072937
3.390696533203125,-1.0619858187980948,-0.8178132706236094,-0.4114712616354227,0.1231849789619445,0.0936891734600067,0.2856621146202087
3.400724853515625,-0.8632861510317772,-0.8707516646068543,-0.3016103724688291,0.0961589515209198,0.0073577454313635,0.3172730505466461
3.410752685546875,-0.6537709286101162,-0.9003677813220768,-0.1720294683098792,0.0667812898755073,-0.0839686468243599,0.3547786176204681
3.42078076171875,-0.463778006651625,-0.8454858520556241,0.0065688569962978,0.0452131517231464,-0.1755142658948898,0.3950205743312835
3.430808837890625,-0.3311667218208313,-0.8127630745619535,0.2514730073809623,0.0274635013192892,-0.2556016445159912,0.4337756931781769
3.4408369140625,-0.2221093493231572,-0.7498973799999803,0.4693804297685623,0.0165706388652324,-0.3205622434616089,0.4648723602294922
3.45086474609375,-0.0868569571327418,-0.6240683757204563,0.6976116777718067,0.0149208148941397,-0.3590783476829529,0.4882068932056427
3.460892822265625,-0.0409409543332643,-0.4268002020619809,0.957831470710039,0.0175014175474643,-0.3595268130302429,0.504813551902771
3.470920654296875,-0.0392600155089981,-0.2347781854286789,1.2074895376235246,0.0158713795244693,-0.3155755996704101,0.5174139738082886
3.480948974609375,-0.0252908373946323,-0.0419920525550842,1.4240151502639051,0.008760473690927,-0.2492517381906509,0.525463879108429
3.490976806640625,-0.0411383218025788,0.1336479344021529,1.5802964298218487,0.0007973557803779,-0.1626204252243042,0.5232723951339722
3.501004638671875,-0.097787224208936,0.2680585237398743,1.6218571052223445,-0.0115653043612837,-0.0637894570827484,0.5083836913108826
3.51103271484375,-0.1853957303613424,0.3760190591778606,1.6035422808527946,-0.0269156079739332,0.0322607234120368,0.4767930209636688
3.521060791015625,-0.2780988562390208,0.468282405398786,1.4945213496416807,-0.0454743765294551,0.1109073385596275,0.4349795281887054
3.5310888671875,-0.3739435315454378,0.5281546902984381,1.2732798143953084,-0.0526066944003105,0.1637884527444839,0.3840888738632202
3.541116943359375,-0.4256169105615466,0.5237880195215344,0.9964812270998954,-0.0434081368148326,0.1903713345527649,0.3361389338970184
3.55114453125,-0.480061325193569,0.5253332762021571,0.7095569671094417,-0.023220457136631,0.1908404231071472,0.2899639904499054
3.5611728515625,-0.5155055635403841,0.5020264887642115,0.4869225161999463,0.0010771602392196,0.1722177416086197,0.2530952095985412
3.57120068359375,-0.5526072137054056,0.3903799582898616,0.2840507503807544,0.0344590693712234,0.1545650660991668,0.2265544086694717
3.58122900390625,-0.6173308841589837,0.3273416836399584,0.152555537033081,0.0667709410190582,0.1417664438486099,0.2070009559392929
3.5912568359375,-0.6713128689110278,0.2886895891625434,0.0489554618269205,0.0871112719178199,0.1316548287868499,0.1925656944513321
3.601284912109375,-0.6959944518335163,0.2558106712590903,-0.0008902268379926,0.0893682986497879,0.1271740645170211,0.1790506839752197
3.611312744140625,-0.7705800294794142,0.183257257027924,-0.084100424966216,0.0809957310557365,0.1295951604843139,0.1566383689641952
3.621340576171875,-0.7469035319462418,0.1205523059856146,-0.1596107162415981,0.0621988736093044,0.1225771903991699,0.138388529419899
3.631368896484375,-0.6431560110934078,0.0622678747992962,-0.2465437342852353,0.041852880269289,0.1070169359445571,0.1330706477165222
3.641396728515625,-0.4952378515373915,-0.0190596513874828,-0.3209410958826542,0.0211444031447172,0.0799618810415268,0.1465651541948318
3.6514248046875,-0.3621542364871129,-0.0766877375569194,-0.3647662090837955,0.007658140733838,0.0445965193212032,0.1697378456592559
3.66145263671875,-0.3263692584112286,-0.0722686059404164,-0.4214256694167852,-0.0035636213142424,0.0217838808894157,0.1965377628803253
3.671480712890625,-0.3582940904602408,0.0100585988081991,-0.4328706080168485,-0.011498617939651,-0.0026595974341034,0.2099579274654388
3.6815087890625,-0.4183228810958564,0.1146899167582392,-0.4116530479431152,-0.0250804722309112,-0.0120115531608462,0.208318218588829
3.691536865234375,-0.4833435252020135,0.1874324968859553,-0.3702770814597606,-0.0432693809270858,-0.0128402207046747,0.1868172585964203
3.701564697265625,-0.4570356197193265,0.2232162693854421,-0.310372355595231,-0.0588392838835716,-0.0093490825966,0.1576340794563293
3.711593017578125,-0.405019601278007,0.278204289374873,-0.317248671105504,-0.0712478831410408,0.0001903800293803,0.1291364282369613
3.72162060546875,-0.3462997012838721,0.3348941448461264,-0.3424287050694227,-0.0814658999443054,0.0071209906600415,0.1058502867817878
3.73164892578125,-0.3084585578631609,0.4011567883700132,-0.3244505653083324,-0.0917091369628906,0.0021971594542264,0.0873815491795539
3.7416767578125,-0.3100058969030156,0.4174353576716035,-0.3377233038574457,-0.0925251245498657,-0.0067944708280265,0.0646160468459129
3.751704833984375,-0.3738122698485851,0.4264559186689555,-0.3922001594543456,-0.0834075361490249,-0.0095086377114057,0.0350755602121353
3.76173291015625,-0.3883639422923326,0.465861607992649,-0.3931950157105922,-0.0693769380450248,-0.0088692130520939,0.0034502572380006
3.7717607421875,-0.3729659917501732,0.5254234387036413,-0.3887462196081876,-0.0553849190473556,0.0009865881875157,-0.0197731181979179
3.781788818359375,-0.3782516405355185,0.5563589674543589,-0.3725228145599365,-0.046443622559309,0.0223166439682245,-0.0430840291082859
3.79181689453125,-0.3853482842655852,0.5396379150822759,-0.3238116828829049,-0.0474511682987213,0.051267921924591,-0.0635697096586227
3.8018447265625,-0.3580750408820807,0.5553468678023665,-0.274079391464591,-0.0661297813057899,0.0864818319678306,-0.0794722437858581
3.811873046875,-0.3310373963527381,0.5112146614134312,-0.2791945425212383,-0.0991165488958358,0.1194663718342781,-0.095632679760456
3.821900634765625,-0.2986184971764684,0.4153436460893601,-0.3195359052598476,-0.1310348063707351,0.1353209763765335,-0.1031909957528114
3.831928955078125,-0.2359770398244261,0.3859566619548946,-0.372732657918334,-0.1590129137039184,0.1348687261343002,-0.1038398444652557
3.841956298828125,-0.2197888887526467,0.4562467708965763,-0.432865931841731,-0.1797293871641159,0.1217420101165771,-0.0974069759249687
3.851984375,-0.2711231720075011,0.5365144127668813,-0.5092793094366789,-0.1909585297107696,0.09926038980484,-0.0975812003016471
3.862012451171875,-0.372139696993865,0.5665985488526523,-0.6394651937514543,-0.1849240660667419,0.0901380032300949,-0.1156108006834983
3.872040283203125,-0.4957995770733803,0.5639018936472013,-0.7019973455101252,-0.1652407199144363,0.0711540654301643,-0.153107151389122
3.882068359375,-0.5650348066672682,0.6063365023380145,-0.6949620400458574,-0.1437519490718841,0.0567098744213581,-0.1973047107458114
3.892096435546875,-0.5956495790310203,0.6263590439409017,-0.7456669758886099,-0.1251502186059951,0.0750280246138572,-0.2474085092544555
3.902124267578125,-0.706355467654392,0.6248213860448449,-0.8313333349972963,-0.1038736850023269,0.1348175853490829,-0.3077315092086792
3.912152587890625,-0.8396876141056417,0.5888643028050661,-0.9963614001125096,-0.0913958325982093,0.243045687675476,-0.381928026676178
3.92218017578125,-0.88530202187635,0.4799055501099675,-1.134024488440156,-0.1018061265349388,0.3465188145637512,-0.440831571817398
3.93220849609375,-0.692043083859235,0.268441020251438,-1.1991080782473087,-0.1371512115001678,0.3711541891098022,-0.4727746248245239
3.942236328125,-0.300273242113553,-0.1141417813561856,-1.2276175488948822,-0.1868958622217178,0.3108570277690887,-0.4622924029827118
3.952264404296875,0.0871029860493727,-0.4769046512609347,-1.221875205850601,-0.2291076332330703,0.1624111086130142,-0.4147227108478546
3.96229248046875,0.3661236515747383,-0.7179353577457368,-1.1104624110668897,-0.2445891201496124,-0.0485099107027053,-0.3440637290477752
3.972320556640625,0.5268779483608901,-0.7827212067153304,-0.8912094192892313,-0.2302272170782089,-0.25266233086586,-0.2745030224323272
3.982348388671875,0.4233298590702936,-0.7437440450020134,-0.5920101996153593,-0.190335988998413,-0.4128168523311615,-0.2289371341466903
4.0017763671875,0.3795933740006759,-0.7278495796471833,-0.3143050188690424,-0.1042574867606163,-0.5354968905448914,-0.2128090113401413
4.0118046875,0.1522548096539918,-0.5872804311471059,0.2866629787057638,-0.090210847556591,-0.51650071144104,-0.2131843119859695
4.021832275390625,0.1216750446715392,-0.5022700517291203,0.815126881083846,-0.1032427623867988,-0.47592693567276,-0.198594182729721
4.0318603515625,0.2295600854542106,-0.4932589161472395,1.2732049955934286,-0.133132591843605,-0.3956314921379089,-0.1812852621078491
4.041888427734375,0.2636161391119472,-0.5087274477075785,1.566069751548767,-0.1668175756931305,-0.276636928319931,-0.1761307120323181
4.05191650390625,0.1712538990938104,-0.5131202393064275,1.7496973031938077,-0.1980814933776855,-0.1403571218252182,-0.1727839261293411
4.061944580078125,0.0885117203361354,-0.4607405386518686,1.8292384574204683,-0.220516487956047,-0.0122079420834779,-0.1601906269788742
4.07197265625,0.1064944084081798,-0.4312876496743411,1.7571762607723471,-0.2248806655406952,0.0798014551401138,-0.1425359398126602
4.082000244140625,0.1509324293432757,-0.4159460689619183,1.588266970309615,-0.204233169555664,0.1355827003717422,-0.1296089589595794
4.0920283203125,0.1079754407461732,-0.4073316410800441,1.2957108419120311,-0.1577119678258896,0.1530314832925796,-0.1345175951719284
4.102056396484375,-0.0066121846813708,-0.4098823850087821,0.9637988546818494,-0.0893656611442565,0.1475128829479217,-0.1454397439956665
4.11208447265625,-0.0936271271211095,-0.3748524265512823,0.670602090293169,-0.0128317046910524,0.1371419727802276,-0.1528548598289489
4.122112548828125,-0.117598625545483,-0.3414736328342929,0.4114917199015617,0.0547806285321712,0.1165594756603241,-0.1446081101894378
4.13214013671875,-0.1084173758273944,-0.3202259698832407,0.2771609908670187,0.0986672490835189,0.0905487537384033,-0.1210066080093383
4.14216845703125,-0.0753443783902563,-0.3555709125740453,0.2288847434759139,0.1217499300837516,0.0578991994261741,-0.0809207111597061
4.1521962890625,0.0179316520045511,-0.4379744339618832,0.2065367180675268,0.1300597637891769,0.0192014928907156,-0.0195332653820514
4.162224609375,0.1601291323588229,-0.4826385552704334,0.2077437557697296,0.1250777840614318,-0.0221363604068756,0.0573268942534923
4.17225244140625,0.3116589248070493,-0.4536130248595029,0.2784679818123579,0.10955810546875,-0.0667335763573646,0.1462996155023574
4.1822802734375,0.4042882913287728,-0.4166712414313107,0.3816168061196804,0.0854173526167869,-0.1118198260664939,0.2363919615745544
4.192308349609375,0.4705979157995432,-0.3712607222022488,0.5254425087302923,0.0631643310189247,-0.139508843421936,0.3154237568378448
4.20233642578125,0.4702591853644698,-0.2338473708519712,0.6943933002471924,0.0507302992045879,-0.1456322371959686,0.3670685887336731
4.212364501953125,0.3291396364400163,-0.0323784941006451,0.8229471994459628,0.0488262474536895,-0.1329210698604583,0.3926898241043091
4.222392578125,0.2299514776582829,0.2069377183501608,0.9468886364132164,0.0519991368055343,-0.1034385338425636,0.3979506492614746
4.232420166015625,0.1722037836971692,0.3774826289243996,1.0470844561338424,0.0623057261109352,-0.0671674087643623,0.3907631039619446
4.242448486328125,0.1326210573061369,0.469756350408867,1.091653081178665,0.0778055861592292,-0.0353807136416435,0.3857952356338501
4.252476318359375,0.1786171213381923,0.512178757205233,1.12637017429471,0.0906699523329734,-0.0104572298005223,0.3851103484630584
4.26250439453125,0.2500036289481446,0.5563382899925112,1.112315929979086,0.1084928885102272,0.0105130337178707,0.3750678300857544
4.272532470703125,0.2576970329949632,0.5823004142448306,1.0347791013121603,0.1270169019699096,0.011975354515016,0.3618712723255157
4.282560546875,0.2690141256979666,0.5876368799019605,0.9570137245863676,0.1430081129074096,0.0059044123627245,0.3547177612781524
4.29258837890625,0.3315680691633373,0.5640873332167043,0.8916074786961078,0.1493811905384063,0.0067206425592303,0.3501485288143158
4.302616455078125,0.3698137017317116,0.531407956473343,0.8137614379495381,0.1474197655916214,0.0144288968294858,0.3444083631038666
4.312644287109375,0.3664101038333028,0.5230079750597477,0.7537573433637619,0.1366525739431381,0.0314847379922866,0.3367373049259186
4.322672607421875,0.3535889815092086,0.5525213620528578,0.6526742194145918,0.1179372072219848,0.0396681018173694,0.3275864124298095
4.332700439453125,0.3770004714306443,0.5682515767566859,0.5658861627995968,0.095881775021553,0.0372621491551399,0.3177844882011413
4.342728271484375,0.4276453111166134,0.5513442810975014,0.4646218370646238,0.0810956358909607,0.023503191769123,0.3038087487220764
4.35275634765625,0.4924389415338635,0.5525731287727133,0.3584107025772333,0.0733535066246986,0.0037398412823677,0.2919815480709076
4.372186279296875,0.4989474466450512,0.5333464867878704,0.1506716229826211,0.0621952414512634,-0.0602705031633377,0.2648665010929107
4.382214599609375,0.5644267577715217,0.5043710060637444,0.1183598374426364,0.0599126480519771,-0.0836509317159652,0.2584842443466186
4.392242431640625,0.6197729435488581,0.4694939731456339,0.0669832859486341,0.0583661496639251,-0.1036992073059082,0.2618027925491333
4.4022705078125,0.6358786405015736,0.462370222212933,0.0695756405293941,0.0534813776612281,-0.1167518869042396,0.2720703482627868
4.41229833984375,0.6742083711568265,0.4621479577643796,0.1058124905586242,0.0466761514544487,-0.1266082823276519,0.282064288854599
4.422326416015625,0.6686887309525161,0.4274757267033681,0.1588128438621759,0.0328602045774459,-0.1295798271894455,0.2936450541019439
4.4323544921875,0.6364468688435853,0.4217096009247005,0.2105319251835346,0.0095241665840148,-0.122162789106369,0.3082332015037536
4.442382568359375,0.6342999199427664,0.4335054353216663,0.2598532977133989,-0.022774651646614,-0.1099753752350807,0.3230430483818054
4.452410400390625,0.573602326667495,0.4325467463573441,0.2726975817173719,-0.0582994818687438,-0.0915511921048164,0.3288784921169281
4.4624384765625,0.4543771410997956,0.4383572592670097,0.2254448321551084,-0.0870906487107276,-0.0643339529633522,0.3246888220310211
4.47246630859375,0.325819040649943,0.4315681836487725,0.1135878007352352,-0.1068203821778297,-0.0345143266022205,0.3169034421443939
4.482494384765625,0.240752401000075,0.4178009030483662,-0.0687356825739145,-0.1144428849220275,-0.0012109633535146,0.30064457654953
4.4925224609375,0.1147700693223625,0.3532703805467113,-0.3037672582417726,-0.1222767233848571,0.0189874563366174,0.2921795845031738
4.502550537109375,0.0142765818294137,0.2754381491297856,-0.4536071065753698,-0.1466305255889892,0.0001024482771754,0.3052431941032409
4.51257861328125,0.0036541751259937,0.1725839969201013,-0.4963379947990178,-0.1924935132265091,-0.0532162487506866,0.3326008021831512
4.522606201171875,-0.0281509395334869,-0.0173278226261958,-0.5194534974485635,-0.2346351146697998,-0.1323938965797424,0.3629747033119201
4.53263427734375,-0.1698098194990307,-0.210457891832944,-0.6059861179977655,-0.2466302067041397,-0.1971479654312133,0.390839010477066
4.542662353515625,-0.3978568335091695,-0.2485841906042769,-0.8324497718065976,-0.2144810557365417,-0.2264363318681717,0.4266785085201263
4.5526904296875,-0.5443881418166682,-0.1619942869098856,-1.019205100083351,-0.169324517250061,-0.2152597904205322,0.4481829106807709
4.562718505859375,-0.7245647127576172,-0.0665278885976411,-1.1098346345573662,-0.1317081749439239,-0.1857192069292068,0.4324899613857269
4.572746337890625,-0.9652060180660336,-0.0973600117728114,-1.125048570302129,-0.1018584668636322,-0.1575700640678405,0.3613353371620178
4.582774169921875,-1.206338321761787,-0.1736446118889376,-1.14783674069345,-0.0797137469053268,-0.1235614866018295,0.2457213848829269
4.592802490234375,-1.342749948723614,-0.2852339505496434,-1.1865502099692822,-0.0505661591887474,-0.0931537896394729,0.113968625664711
4.602830322265625,-1.304907417063415,-0.5342267767537385,-1.3010925349503757,-0.000158114824444,-0.077809453010559,0.0035310632083564
4.612858642578125,-1.0765281388916077,-0.9173518685445188,-1.4923919363975524,0.0604721270501613,-0.1003412306308746,-0.049735639244318
4.62288623046875,-0.6767679194465279,-1.2842165112122892,-1.584855700561404,0.1114351823925972,-0.1679793894290924,-0.032414972782135
4.632914306640625,-0.2203704880328849,-1.6001308649741113,-1.4697902284890412,0.1390513032674789,-0.275811493396759,0.0479093976318836
4.6429423828125,0.1443393146885558,-1.8729304457612332,-1.186850654220581,0.1443645656108856,-0.3905141353607178,0.1590897142887115
4.652970458984375,0.3621724662635475,-1.9535425902202723,-0.7737380551189184,0.1295440196990966,-0.4741434454917907,0.2703173458576202
4.66299853515625,0.3394830070063471,-1.8402705774359405,-0.2954810759335756,0.1052205562591552,-0.5041868090629578,0.3583691716194153
4.673026611328125,0.1504245163537561,-1.5001710459664463,0.1710585774511099,0.0797496661543846,-0.4758104085922241,0.4144417941570282
4.68305419921875,-0.141669036033377,-1.08568540494591,0.6080827980160712,0.0569764412939548,-0.3947363197803497,0.4403634071350097
4.69308251953125,-0.3943038537353277,-0.6768972449146211,0.9689134212166072,0.0287612602114677,-0.2711339890956878,0.4357549548149109
4.7031103515625,-0.6337726081330329,-0.3297622618503868,1.2251999663591384,-0.0049349190667271,-0.128076434135437,0.3977290093898773
4.713138671875,-0.8799618298921733,-0.0742431756827048,1.3717670766323804,-0.0288570448756217,0.0276125855743885,0.3307185471057892
4.72316650390625,-1.0936327837537974,0.0269244847447611,1.337429338222742,-0.0377027355134487,0.1800402104854583,0.2551273703575134
4.7331943359375,-1.1943897444885223,0.0388081618219614,1.1601163765519855,-0.042291697114706,0.3030717670917511,0.1942052245140075
4.743222412109375,-1.1457357498262075,0.0483246713764034,0.9702607441723348,-0.0518175549805164,0.3857850134372711,0.1275883913040161
4.75325048828125,-1.0835147829085587,-0.0279289125469513,0.7138596327394247,-0.060997225344181,0.4239547550678253,0.0521179474890232
4.763278564453125,-1.026663380200043,-0.2519316744012758,0.3998100499361753,-0.0649181976914405,0.4174433052539825,-0.0214923564344644
4.773306640625,-0.8842709252629428,-0.5028579711522907,0.1360959851413965,-0.0543119646608829,0.3600359857082367,-0.0735061392188072
4.783334228515625,-0.6721474931042641,-0.6806938607186078,-0.0694558135420084,-0.0229444541037082,0.2789925336837768,-0.1101224720478057
4.7933623046875,-0.5467714932892471,-0.8356034135319292,-0.282130595973134,0.0217878483235836,0.1930518746376037,-0.1374941766262054
4.803390380859375,-0.4905785910220816,-0.9626710196956992,-0.3925368440628051,0.0702480524778366,0.1012764126062393,-0.1537663638591766
4.81341845703125,-0.4335608918359503,-1.0201391660630703,-0.3743102824985981,0.1142539158463478,0.0165836568921804,-0.1613606065511703
4.823446533203125,-0.3898905308051034,-1.0352122320324182,-0.3041220630288124,0.146464318037033,-0.0516601093113422,-0.1561413556337356
4.83347412109375,-0.334690913891606,-1.0051264519788323,-0.1270510934203863,0.1549697965383529,-0.0963059812784195,-0.1331623047590255
4.843502685546875,-0.2582767325790598,-0.9326945452354848,0.1532300752937793,0.1370318084955215,-0.1072627529501915,-0.0973646268248558
4.853530517578125,-0.1855731327548622,-0.8658701761756091,0.4391349291086197,0.091692104935646,-0.0935713201761245,-0.0617346055805683
4.86355859375,-0.1850234629828482,-0.7808660073027014,0.7057049678564071,0.0283632017672061,-0.0702817067503929,-0.0359703861176967
4.873586669921875,-0.1956112732969224,-0.7000026645615697,0.9197679897755384,-0.0242243707180023,-0.0470713190734386,-0.0239265970885753
4.88361474609375,-0.2324356408905237,-0.6689616296097636,0.9928419938147068,-0.0449083447456359,-0.0216152276843786,-0.029756523668766
4.893642578125,-0.2422888533197343,-0.5497736707799137,0.9625620063632726,-0.0374478697776794,0.0105278454720973,-0.0277644321322441
4.903670654296875,-0.2610181037090718,-0.4116144694983959,0.9403279627233744,-0.0024246368557214,0.0355434492230415,-0.0305841863155365
4.913698486328125,-0.3132890467595309,-0.3225782686304301,0.9634458034604788,0.0355444923043251,0.0502072386443614,-0.0332528762519359
4.923726806640625,-0.2989090776208788,-0.2605857401737943,1.0323135879814624,0.0608794093132019,0.054435808211565,-0.0450693219900131
4.933754638671875,-0.3598524623507633,-0.17800185725037,1.1645523131728173,0.0745220705866813,0.0483902990818023,-0.0705284923315048
4.943782958984375,-0.4844745019933208,-0.0668401876835152,1.2462936077922582,0.0843368843197822,0.0461785458028316,-0.1042049601674079
4.953810546875,-0.5510821960952133,0.026364750236459,1.2797849585056305,0.1059435158967971,0.0469085425138473,-0.1397988647222519
4.963838623046875,-0.6448419183537364,0.1341322107877582,1.2279103943616152,0.1388221085071563,0.059202492237091,-0.1787089705467224
4.97386669921875,-0.755424399793148,0.266207708241418,1.1053957753270864,0.1730325669050216,0.0886370465159416,-0.2124704718589782
4.983894775390625,-0.8247235614687204,0.3388528558766469,1.0230278732419014,0.2006170600652694,0.1284747421741485,-0.2335203737020492
4.9939228515625,-0.8531243841100483,0.3531903741130605,0.942090880742669,0.2210839837789535,0.1696846336126327,-0.2421038150787353
5.00395068359375,-0.8626034294646233,0.3039989481057971,0.8606623053342104,0.215147003531456,0.2028889209032058,-0.2359231561422348
5.013977783203125,-0.8120960620205849,0.2499849242476746,0.796542007601261,0.1992766112089157,0.2245227098464965,-0.2252197712659835
5.024005615234375,-0.8204230147305875,0.2245961429039016,0.6599550240725278,0.1761052459478378,0.2445614039897918,-0.2223622053861618
5.03403369140625,-0.8877119325622915,0.2272202808624133,0.4191530483096837,0.1586626470088958,0.2548925876617431,-0.2254363596439361
5.0440615234375,-0.9481791876804084,0.2472276614287868,0.1445253753125667,0.1468467265367508,0.2515702843666076,-0.2252486050128936
5.054089599609375,-0.8918026359420269,0.2764865256715565,-0.1016243912190198,0.1419562548398971,0.2268778085708618,-0.2206661403179168
5.06411767578125,-0.8013999690264463,0.3044034372534602,-0.3229863379746675,0.1374642997980117,0.1800871342420578,-0.2106148302555084
5.074145751953125,-0.7052424649111926,0.3213547181848436,-0.4501245251566171,0.1204687803983688,0.1250345557928085,-0.2004681229591369
5.084173583984375,-0.632620296292752,0.3470630503391846,-0.4858247840911149,0.0972686484456062,0.0665464773774147,-0.1927635967731475
5.094201904296875,-0.5594472523258999,0.3663788319122046,-0.5095119491487741,0.077881634235382,0.0115980096161365,-0.1956973373889923
5.1042294921875,-0.4476014729524031,0.4116569569332525,-0.507395395386219,0.0577167123556137,-0.0377780608832836,-0.199413776397705
5.1142578125,-0.3409905254924669,0.5075789717921987,-0.4171913928478956,0.0423871129751205,-0.0675796419382095,-0.2045855969190597
5.12428564453125,-0.2409592486837878,0.5540303053110838,-0.3427221350580454,0.0310921147465705,-0.0855898037552833,-0.2087662369012832
5.134313720703125,-0.2001670003725215,0.6418882561799139,-0.2300871050029992,0.0157890580594539,-0.0978048145771026,-0.2174093574285507
5.144341796875,-0.1949031250275671,0.7516733766965568,-0.0866810891091823,0.0012777606025338,-0.0835726112127304,-0.2338469177484512
5.15436962890625,-0.2060917142463847,0.7702294624760746,0.0040431379109621,-0.0085939075797796,-0.0607900097966194,-0.2554369270801544
5.164397705078125,-0.1838712972730398,0.767446261498332,0.0663292059540748,-0.0120229944586753,-0.0307444930076599,-0.2770521938800812
5.17442578125,-0.1511836276253685,0.8092835618831217,0.1001905590236186,-0.0156906992197036,0.0075435051694512,-0.2912878692150116
5.18445361328125,-0.1344730235820636,0.8409788960251957,0.0914203925907611,-0.0217003896832466,0.042382713407278,-0.3091723322868347
5.19448193359375,-0.1792521495724096,0.867310438111797,0.0711520960658788,-0.0339539647102355,0.0685500800609588,-0.3276659846305847
5.204509521484375,-0.2552598324432969,0.8541083536460995,0.0444365230977535,-0.0451818518340587,0.080912210047245,-0.3466055691242218
5.21453759765625,-0.2723230493165552,0.7740311928465962,-0.0115285252302885,-0.0513623878359794,0.0855045318603515,-0.3599992096424103
5.224565673828125,-0.2710239494167268,0.6946021937575191,-0.1054676226437091,-0.0506238937377929,0.1040971204638481,-0.3591358065605163
5.234593505859375,-0.2857071027530357,0.6164297706007957,-0.2295902613967657,-0.0499317198991775,0.1208794936537742,-0.3449933528900146
5.244621826171875,-0.2598603119760752,0.5750844549840316,-0.2580512167274952,-0.0546553656458854,0.1348842531442642,-0.3188773393630981
5.2546494140625,-0.1766854774221777,0.4755759234078228,-0.2349357140779495,-0.0773181617259979,0.1464572846889495,-0.2862496376037597
5.264677490234375,-0.137593365825992,0.3824172357823699,-0.1800748275995254,-0.1163318753242492,0.1556683629751205,-0.2570448815822601
5.27470556640625,-0.1734500574312172,0.3524416746376082,-0.1112216561257839,-0.1622236222028732,0.1664672642946243,-0.2358427196741104
5.284733642578125,-0.2644756054854951,0.3573552752401679,-0.1168278055697679,-0.2025856971740722,0.1710090190172195,-0.2268851697444915
5.29476171875,-0.3311320158336311,0.38768447212819,-0.1429869136989116,-0.221491739153862,0.1754200160503387,-0.2266161888837814
5.304789794921875,-0.3977366411956027,0.4213697379784658,-0.2996633300542831,-0.212524339556694,0.1861155331134796,-0.2342195212841034
5.3148173828125,-0.4879342870583757,0.4468491202151403,-0.4768266541212796,-0.1877001225948333,0.1936473548412323,-0.2445308864116668
5.324845703125,-0.5016407043170183,0.4707842321518808,-0.6462965010762214,-0.1463305801153183,0.1854232549667358,-0.2519720196723938
5.33487353515625,-0.4343175188895314,0.4650780929321423,-0.7865455142438411,-0.103585697710514,0.1715938597917556,-0.26604163646698
5.34490185546875,-0.4219416195822879,0.4538956777257844,-0.96549513720572,-0.0638574585318565,0.1598053723573684,-0.294437050819397
5.3549296875,-0.522732555651851,0.4645829663589596,-1.1210106930881738,-0.0273076873272657,0.1433441638946533,-0.340318888425827
5.36495751953125,-0.6057165803413838,0.4838841348847374,-1.3178887714505194,0.014184096828103,0.1154693812131881,-0.4020144641399383
5.374985595703125,-0.6391990170959383,0.469167554202862,-1.5485428626865148,0.0615794137120246,0.0490432791411876,-0.4653366208076477
5.385013671875,-0.5628063534954563,0.4266764295518398,-1.6605109532654283,0.0986077412962913,-0.0453665778040885,-0.5169129371643066
5.395041748046875,-0.3818290971634909,0.3370215487962588,-1.5988351260751483,0.1126887425780296,-0.1554079055786132,-0.5571593642234802
5.40506982421875,-0.1969990378608927,0.1736567772507667,-1.3541519249647855,0.0992757305502891,-0.2392463535070419,-0.5777391791343689
5.41509765625,-0.0124623172153718,-0.0806730078008025,-0.9438286643207072,0.0526799820363521,-0.2936799526214599,-0.5666258335113525
5.425125732421875,0.1851459933839738,-0.3999161771917715,-0.3450011859059333,-0.0029153686482459,-0.3066005408763885,-0.5234102010726929
5.435153564453125,0.3497831594854593,-0.6278949482712894,0.1675648901164531,-0.0612726844847202,-0.2539780735969543,-0.4494416713714599
5.445181884765625,0.4753251269845291,-0.8009440419524908,0.5727642318755388,-0.1290442645549774,-0.1662868559360504,-0.3424044251441955
5.455209716796875,0.5829359356693923,-0.9215301040772348,0.9913462022989988,-0.2044117003679275,-0.049447875469923,-0.2254621833562851
5.46523779296875,0.5927047942833975,-1.0563194635994733,1.326718559116125,-0.2924278378486633,0.061611533164978,-0.1121926307678222
5.475265625,0.5671191386606544,-1.1261866344213485,1.6269576432317494,-0.3721003234386444,0.1322487145662307,-0.0107740517705678
5.48529345703125,0.4898947004111483,-1.0907555478170514,1.7687497941881418,-0.401002287864685,0.1496822983026504,0.0564148388803005
5.49532177734375,0.3375371701681986,-0.9429945515841244,1.5760738436907529,-0.3711487650871277,0.1369838565587997,0.0855560451745987
5.505349609375,0.2176641334173269,-0.7220043607503175,1.405807877922058,-0.2982212901115417,0.1226563230156898,0.07864860445261
5.515377685546875,0.0584872420157305,-0.558617633101344,1.3085060260772703,-0.1998507380485534,0.1200390011072158,0.0293804965913295
5.525405517578125,-0.2116643815458752,-0.4002498295929282,1.2525111671328544,-0.0998490378260612,0.1379090696573257,-0.0525010526180267
5.53543359375,-0.4630326681770384,-0.1978535905973054,1.2061930680721995,-0.0110467988997697,0.1896888315677642,-0.1573690772056579
5.545461669921875,-0.6856808553509414,-0.0660366344819776,1.112759582093358,0.0547846816480159,0.2604040205478668,-0.2640201449394226
5.55548974609375,-0.8250203524582087,-0.0919739530866034,0.97580844142735,0.1026156768202781,0.321880578994751,-0.3334041833877563
5.565517578125,-0.7278295597724617,-0.2344044202128425,0.8053361394315958,0.1236080378293991,0.36117684841156,-0.3564980328083038
5.5755458984375,-0.4971130342921241,-0.4262676295552402,0.599248918697238,0.1249927952885627,0.3932875096797943,-0.3386488556861877
5.585573486328125,-0.3804208378007635,-0.6210744546014815,0.3169996647804975,0.1088508442044258,0.4151776134967804,-0.2978841066360473
5.5956015625,-0.3351670069707557,-0.7648912432532757,-0.0027776480197906,0.077563352882862,0.4132474660873413,-0.2370990216732025
5.605629638671875,-0.2906130315057933,-0.8587081755917518,-0.2805781058341264,0.045088768005371,0.3830525577068329,-0.1652517318725586
5.61565771484375,-0.2367475310065783,-0.8905597962740808,-0.5838280622035265,0.0188788045197725,0.3190812468528747,-0.0868598744273185
5.625685791015625,-0.2081263984117657,-0.8496217097513377,-0.7805921587973833,6.22405204921e-05,0.2123369425535202,-0.0102639021351933
5.635713623046875,-0.1901174616536125,-0.7070278870232403,-0.8599977039456367,-0.0078997053205966,0.0851552039384841,0.0519779361784458
5.645741455078125,-0.1828188838769681,-0.5670772357476875,-0.834707779866457,-0.0061478777788579,-0.0586461685597896,0.0991720780730247
5.655769775390625,-0.2063663299366831,-0.428194140638411,-0.6646458122372627,0.0086195105686783,-0.1879613399505615,0.1286624670028686
5.665797607421875,-0.1971454240616411,-0.2864496830149554,-0.3963233768641948,0.027865644544363,-0.2770081162452698,0.1535779386758804
5.675825927734375,-0.1390007758053485,-0.0841441179774701,0.0124789578229188,0.0454008840024471,-0.3251172602176666,0.1814959347248077
5.685853515625,-0.1207976407825015,0.1323387149671092,0.4493085325986146,0.0486033335328102,-0.3231052458286285,0.2076172828674316
5.695881591796875,-0.1044435768255963,0.3205920632492751,0.8290197973579168,0.0356839187443256,-0.2815369665622711,0.2301598042249679
5.70590966796875,-0.0619041377871297,0.4530278819153085,1.1878911031842232,0.0042298566550016,-0.2122647017240524,0.2536419630050659
5.715937744140625,-0.0898063541234005,0.5946305747142061,1.4640572377949952,-0.0381627306342124,-0.1177771836519241,0.2699378132820129
5.7259658203125,-0.1499150781274307,0.7461516176003963,1.5995172631204126,-0.0794268175959587,-0.0120781883597373,0.2741765081882477
5.73599365234375,-0.2210413364991545,0.8776610786691308,1.6241922701716422,-0.1101918444037437,0.0800205245614051,0.2654262483119964
5.746021484375,-0.3027063144793733,0.984807886571437,1.5263596724510191,-0.1278773695230484,0.1550084799528122,0.2389440387487411
5.756049560546875,-0.4183206160735339,1.0793931729339064,1.320620242241025,-0.1307032406330108,0.2048759162425995,0.2028084099292755
5.76607666015625,-0.5126517815444618,1.1455565208017826,1.055384666967392,-0.1116629764437675,0.2214927077293396,0.1641829907894134
5.776104736328125,-0.523997534086369,1.1441764646202326,0.7437883225351571,-0.082775168120861,0.2115759253501892,0.1301233768463134
5.786132568359375,-0.5075473710775376,1.1210780592359602,0.4783136778086423,-0.0463039800524711,0.185196503996849,0.097749188542366
5.79616064453125,-0.4932173054952174,1.1028453601919117,0.2425362522095441,-0.0174457002431154,0.1499658226966858,0.0717474147677421
5.806188720703125,-0.5043314047057181,1.0638974976383149,0.0516167899906635,-0.0002635165583342,0.100405715405941,0.0568680651485919
5.816216552734375,-0.4660378413423895,1.0112957151982933,-0.0608674334168434,0.0088701844215393,0.0496534332633018,0.0579280480742454
5.826244873046875,-0.3651291971772909,0.8899149224992841,-0.177794607707858,0.0120691731572151,0.0078676389530301,0.0743248611688613
5.8362724609375,-0.3255557500712573,0.7594483215469866,-0.3109779202729463,0.0111529752612113,-0.0387951470911502,0.108849436044693
5.846300537109375,-0.2849707147698849,0.6793688226599246,-0.3795885151624679,0.0009264361578971,-0.0948975682258606,0.1533788293600082
5.856328369140625,-0.2052927824210375,0.603609488526918,-0.4035071508884429,-0.0149695295840501,-0.1664801388978958,0.2068627923727035
5.8663564453125,-0.1466332891109399,0.4694403797948733,-0.3743611359030008,-0.0350138135254383,-0.238459512591362,0.2690140306949615
5.876384521484375,-0.1082156609765254,0.3728755004551261,-0.2607768422991037,-0.0451278910040855,-0.3006794154644012,0.3490311205387115
5.886412109375,-0.0044179054905078,0.3355567734733223,-0.1328618255257606,-0.0548007600009441,-0.3457821905612945,0.4469694197177887
5.8964404296875,0.0893812057801987,0.3597823562566191,0.0545125114321708,-0.0593375973403453,-0.3533658385276794,0.548161506652832
5.90646826171875,0.1138897428238764,0.3793508339490741,0.2543441789031028,-0.0672724843025207,-0.3221943378448486,0.6499373912811279
5.916496337890625,0.0167972913794917,0.4062441746369004,0.4611404246896505,-0.0810920149087905,-0.2581426203250885,0.7452147006988525
5.9265244140625,-0.0490029176978394,0.4664459472192451,0.6627104602605104,-0.1028588339686393,-0.1840036660432815,0.8357541561126709
5.936552490234375,-0.1268941036272328,0.537782788734883,0.8255886538654565,-0.1224841549992561,-0.1072389930486679,0.9130279421806335
5.946580322265625,-0.2251486074212007,0.6128356185663492,0.86763798956573,-0.1295066624879837,-0.030490692704916,0.9771329164505004
5.9566083984375,-0.2926745306128636,0.6739964819718152,0.7854045275151729,-0.1343394815921783,0.0263666342943906,1.0323201417922974
5.96663623046875,-0.3302384279947727,0.7420133487518876,0.7166898877292871,-0.1453796178102493,0.0697098448872566,1.081138014793396
5.97666455078125,-0.4002711646419018,0.7784929945610464,0.6315484292775392,-0.1605372875928878,0.0973323285579681,1.120868444442749
5.9866923828125,-0.5064702433653175,0.7869399203889071,0.5058616099476814,-0.1672082394361496,0.1194437518715858,1.1395130157470703
5.996720458984375,-0.6954421517129987,0.767108700107038,0.2830330977708101,-0.1419413238763809,0.141118124127388,1.144469976425171
6.006748291015625,-0.9509401037611068,0.7773409749817103,-0.0567138208687305,-0.0902802571654319,0.1725623458623886,1.136148452758789
6.0167763671875,-1.1243890104148535,0.8201677978605032,-0.4182248275488615,-0.0305169001221656,0.1828767359256744,1.1205488443374634
6.026804443359375,-1.2178585906203836,0.7756497339591384,-0.7278864045262337,0.0244278386235237,0.1747210770845413,1.102877140045166
6.03683251953125,-1.2458498095475137,0.6043275371357798,-0.957415875646472,0.0735863670706749,0.1531412899494171,1.097353458404541
6.046860595703125,-1.2503842381067574,0.4187717939071357,-1.1518465608567,0.1092463582754135,0.1106007620692253,1.1170343160629272
6.056888427734375,-1.2272332257524132,0.2773365300970152,-1.290063775935769,0.1270818412303924,0.0536657720804214,1.1581705808639526
6.066916259765625,-1.075638569640741,0.1506570830006152,-1.3484130890518429,0.1453788131475448,-0.0228495094925165,1.2079203128814695
6.076944580078125,-1.0530577583897858,-0.0429959963000845,-1.3818255293101072,0.1707829236984253,-0.1146675944328308,1.2605985403060913
6.086972412109375,-1.0354182029332966,-0.1820322635439224,-1.3324246618032454,0.1938139349222183,-0.1949113011360168,1.3275448083877563
6.097000732421875,-0.9431059030041098,-0.2156079863388091,-1.1938140634924173,0.2065618634223938,-0.2600723505020141,1.407141089439392
6.1070283203125,-0.8773284126486629,-0.2121499548394232,-0.9206763367921114,0.204788476228714,-0.2960564494132995,1.4863139390945437
6.117056396484375,-0.9184410520207136,-0.2211078989293426,-0.6253770471662282,0.2057980000972747,-0.2844020128250122,1.5528428554534912
6.12708447265625,-1.0423829273793843,-0.2726668395192362,-0.3936269773870706,0.2061511278152465,-0.2552273571491241,1.6186591386795044
6.1371123046875,-1.1349316664129494,-0.262792584301997,-0.0987742624849081,0.1943299323320388,-0.2152068316936493,1.6825093030929563
6.147140625,-1.1682382351439446,-0.1914074466652236,0.1732154632240533,0.1652599424123764,-0.1782213747501373,1.7480440139770508
6.157168212890625,-1.162021625651419,-0.2131035840361378,0.4502209712684154,0.1364908516407013,-0.147987499833107,1.8088434934616089
6.1671962890625,-1.14280320350565,-0.3297942644238472,0.6634118865281343,0.1172633618116378,-0.1259338706731796,1.870121955871582
6.177224365234375,-1.1339025425609202,-0.4038764956574887,0.7790718173623085,0.114080935716629,-0.1176744401454925,1.9409385919570925
6.18725244140625,-1.1578676477771253,-0.3765639797095209,0.9192512724250554,0.1242592707276344,-0.1095416769385337,2.002791404724121
6.197280517578125,-1.2517271771483125,-0.3041554538417607,1.0495195743262766,0.1453213989734649,-0.0928615629673004,2.034695863723755
6.20730859375,-1.4766472547769545,-0.1967548538414761,1.1312784046024082,0.1746561229228973,-0.0548441410064697,2.029557943344116
6.217336181640625,-1.7741877474583685,-0.1147222115926444,1.1910533666074274,0.2098104655742645,-0.0016549518331885,2.0011556148529053
6.227364501953125,-2.039524152757972,0.0284198561353608,1.223199732452631,0.2336723953485489,0.0597665980458259,1.9626834392547607
6.237392333984375,-2.200962230557203,0.1630183692606165,1.2209984230160713,0.2561084032058716,0.1136693432927131,1.92193603515625
6.24742041015625,-2.2805434245333074,0.1720048818578943,1.160300500947237,0.2702080011367798,0.1435995399951934,1.88817036151886
6.257448486328125,-2.2773130643099546,0.114760205515474,1.1102052214354277,0.2821840941905975,0.179267480969429,1.8564882278442385
6.267476318359375,-2.323621226498485,0.0461381393838673,0.9501263031601904,0.2935959994792938,0.2286747246980667,1.8281327486038208
6.27750439453125,-2.3300664571151137,-0.0619110241856425,0.7804524580657481,0.3030877113342285,0.2637641727924347,1.813415765762329
6.287532470703125,-2.205202790736407,-0.1365044928770512,0.6413894398123026,0.3020016849040985,0.2987099289894104,1.807279586791992
6.297560302734375,-2.16484827625528,-0.1594995109520852,0.5102630597770214,0.2829489111900329,0.3384023010730743,1.7862194776535034
6.307588623046875,-2.269466150201857,-0.1547990416435524,0.3823538882225751,0.2437913715839386,0.3693751096725464,1.7551816701889038
6.3176162109375,-2.365736028650403,-0.1651167297793552,0.2238794825345277,0.1968869715929031,0.3725858032703399,1.7179611921310425
6.32764453125,-2.3646615312866865,-0.2168437752114608,0.0391600439995527,0.1536034047603607,0.3448289930820465,1.6739319562911987
6.33767236328125,-2.373324145691842,-0.2784743384879082,-0.1893885993897914,0.1334083974361419,0.2944755554199219,1.6296805143356323
6.347700439453125,-2.440623950243741,-0.3588547565503046,-0.3859995512485504,0.1273931115865707,0.2115630954504013,1.6074362993240356
6.357728515625,-2.354564061772823,-0.3926923268854618,-0.4765186110854149,0.1359028369188308,0.0964874774217605,1.601851463317871
6.36775537109375,-2.227779656464606,-0.4372034130567684,-0.4976701201856136,0.1514189392328262,-0.0227204021066427,1.609502196311951
6.377783447265625,-2.134748321545869,-0.5065144478332251,-0.4107090450912714,0.163578912615776,-0.1224125698208808,1.6190385818481443
6.387811279296875,-2.086057355874032,-0.476233437468484,-0.2140875718384981,0.1615258753299713,-0.1841875314712524,1.6277601718902588
6.397839599609375,-2.108066066325456,-0.3983060751140117,0.0780558841049671,0.1522660702466964,-0.2064749896526336,1.624300241470337
6.407867431640625,-2.152270388102531,-0.3071812314037233,0.3797773157328367,0.132460132241249,-0.1958665549755096,1.6079596281051636
6.417895263671875,-2.210299383223057,-0.1749376839067787,0.6536597233206033,0.1072025075554847,-0.1501799821853637,1.574286937713623
6.42792333984375,-2.271077969312668,-0.0398496336989104,0.8179448611140251,0.0870740711688995,-0.0859980508685112,1.529903531074524
6.437951416015625,-2.315736026206612,0.0781559104133397,0.8870043688148259,0.0748582780361175,-0.027875930070877,1.4928712844848633
6.4479794921875,-2.2459205855719744,0.1429747118044644,0.8805378031492233,0.0697322264313697,0.0121511137112975,1.4561071395874023
6.458007568359375,-2.1616049104198813,0.1497690481197089,0.8101420784085989,0.0715674087405204,0.0511698871850967,1.414878249168396
6.46803515625,-2.216486839686334,0.1484621302396059,0.650323856896162,0.0755637511610984,0.0737801194190979,1.374610424041748
6.4780634765625,-2.224757093773037,0.1701853017479181,0.5607154821634293,0.0767295658588409,0.0831855610013008,1.336737036705017
6.48809130859375,-2.1209766935639083,0.183392427714914,0.4078104010403156,0.0784257352352142,0.0860007926821708,1.3055044412612915
6.49811962890625,-2.020003167469054,0.1937148650910705,0.2677688931435346,0.0779331251978874,0.0855011045932769,1.2799652814865112
6.5081474609375,-1.958306443621218,0.1793637567207217,0.1784732376217842,0.0734957680106163,0.0891168713569641,1.261317253112793
6.518175537109375,-1.88829548041448,0.1678237602483481,0.1102116023004055,0.0553876906633377,0.090890035033226,1.252509593963623
6.528203369140625,-1.8150309222392735,0.1731380140736699,0.1302308925002813,0.03357720002532,0.092183269560337,1.232494592666626
6.538231201171875,-1.8043381171807649,0.1339688369195908,0.0469990670621395,0.0128745660185813,0.0944919139146804,1.2031124830245972
6.548259521484375,-1.7849360820963978,0.0842347919356077,-0.0235205763190984,-0.0059260199777781,0.0930370241403579,1.181366801261902
6.558287353515625,-1.6981887958832085,0.1180839431107044,-0.0900613791972398,-0.0206900686025619,0.0808936133980751,1.165072679519653
6.5683154296875,-1.5710415486119689,0.1370265439897775,-0.1326022978067398,-0.0381425619125366,0.0579097419977188,1.149481177330017
6.57834326171875,-1.4784914213389158,0.1113243127826601,-0.1662836181342601,-0.0568161159753799,0.0216534659266471,1.1339901685714722
6.588371337890625,-1.3850161420449614,0.1081133879121392,-0.1472948400259018,-0.073170855641365,-0.0184508115053176,1.118912935256958
6.5983994140625,-1.2709538556657731,0.0992860844645649,-0.1159393322974443,-0.08255235850811,-0.0607014074921608,1.101428508758545
6.608427490234375,-1.2123485219620167,0.132837713997811,-0.0451695135474205,-0.0858711898326873,-0.0903469175100326,1.079471230506897
6.618455322265625,-1.205477467148751,0.1532695305213332,0.0898562120139598,-0.0829893946647644,-0.1018798127770423,1.0538923740386963
6.6284833984375,-1.1924556346207855,0.184769707417488,0.1951794577509164,-0.0715095698833465,-0.1011080294847488,1.025834321975708
6.63851123046875,-1.1909841007634996,0.197393918929994,0.3081961805999278,-0.0626568719744682,-0.0896949097514152,0.992322027683258
6.64853955078125,-1.2204817787308244,0.233141706800647,0.3997276323497295,-0.0596309900283813,-0.0451607257127761,0.9529418349266052
6.6585673828125,-1.2686746586874127,0.2735483167951926,0.472883469453454,-0.0631661191582679,0.0081001929938793,0.915957808494568
6.668595458984375,-1.3478189225509762,0.2452181117046624,0.5236947882801294,-0.0679632723331451,0.0698541104793548,0.8860704898834229
6.67862353515625,-1.3951181416034697,0.203448506261222,0.475574608233571,-0.0783351808786392,0.1310316771268844,0.8622100949287415
6.6886513671875,-1.4649015796646474,0.1778056405585259,0.3616635668933391,-0.0915686935186386,0.1424451768398285,0.8443050980567932
6.698679443359375,-1.4068380977526307,0.1382864078577607,0.2520095984756946,-0.0910778641700744,0.1627377569675445,0.8186236023902893
6.70870751953125,-1.5823647605285047,0.0452522599274292,0.0128512982666492,-0.0739164501428604,0.1461968570947647,0.797214150428772
6.7187353515625,-1.647932334460318,-0.0071814359366893,-0.1108586680322885,-0.0517697073519229,0.112900361418724,0.778867244720459
6.728763671875,-1.7196873648554083,0.0562784251261502,-0.209509011876583,-0.0273953936994075,0.0948521196842193,0.7604413628578186
6.738791259765625,-1.8353706765651705,0.1393676637558266,-0.347211847692728,-0.015454507432878,0.088086299598217,0.7342021465301514
6.7488193359375,-2.04551973991096,0.1657523973343893,-0.452332848855853,-0.0104120774194598,0.0919572040438652,0.7014836072921753
6.758847412109375,-2.255772409761697,0.1489422053741291,-0.5478653529405594,-0.0160273537039756,0.0985091179609298,0.6795690059661865
6.76887548828125,-2.288047516553104,0.121059488322772,-0.6640373249500989,-0.0215142648667097,0.0855080932378768,0.6699382066726685
6.778903564453125,-2.1926456531107426,0.0790395248474553,-0.8713631475687027,-0.0210619531571865,0.080134816467762,0.6682945489883423
6.788931640625,-2.105032689978928,0.0134866735607385,-1.1137304729521271,-0.0171833261847496,0.0820208713412284,0.6814447045326233
6.798959228515625,-1.9275449562631544,-0.0369225307384505,-1.3381570679754018,-0.011688744649291,0.0866956114768982,0.721935510635376
6.8089873046875,-1.562052624861896,-0.0758061689494177,-1.4426818568110464,-0.035410851240158,0.0854362025856971,0.7952158451080322
6.819015380859375,-1.1354385930217803,-0.1028380047924816,-1.4063941533774136,-0.0918109342455864,0.0691273733973503,0.8732468485832214
6.82904345703125,-0.8704962285410612,-0.1278568933779373,-1.2619967883586882,-0.1708011031150818,0.0281455814838409,0.923926830291748
6.839071533203125,-0.7402209854423999,-0.1754253212932497,-1.1660890212208033,-0.2370569407939911,-0.0347946137189865,0.9428893327713012
6.849099609375,-0.5802806353876366,-0.2199110903602093,-1.1260843430906533,-0.2665168344974518,-0.1218261793255806,0.9523696303367616
6.8591279296875,-0.3246711492564529,-0.2231224901547655,-1.0560387469619512,-0.2618120908737182,-0.2157124578952789,0.9575161933898926
6.86915478515625,-0.0714323012467473,-0.1808429624278098,-0.8895102141559124,-0.2318983972072601,-0.2943231165409088,0.9516007900238036
6.87918310546875,0.0995236195474863,-0.2379069119084626,-0.6727917092919349,-0.1896814405918121,-0.3556972444057464,0.936190903186798
6.8892109375,0.2337500114247202,-0.3587481178380549,-0.3615671207815408,-0.1549381017684936,-0.3997035920619964,0.917140245437622
6.899239013671875,0.3466857779920101,-0.4635907404512167,0.0022241057902574,-0.1285236924886703,-0.4094290137290954,0.8963176012039185
6.909266845703125,0.4789005377858877,-0.5871895745258778,0.336627909836173,-0.1111199408769607,-0.3839428424835205,0.8839384317398071
6.919294921875,0.6540182544346899,-0.731952850247547,0.638994069108367,-0.106837198138237,-0.3408311307430267,0.8850417733192444
6.929322998046875,0.8429454468578099,-0.815174665748328,0.8963093727767467,-0.1237836927175521,-0.2915184497833252,0.9040346741676332
6.93935107421875,1.021099462462589,-0.8945040038552134,1.1388923867374658,-0.1442811340093612,-0.2406966388225555,0.9252049922943116
6.94937890625,1.1091335005506873,-0.9870007935058324,1.287025431153178,-0.1678679585456848,-0.190529853105545,0.9416928887367249
6.959406982421875,1.1535112791985274,-1.0143720539037138,1.3619605528891086,-0.1783344596624374,-0.1373827904462814,0.950930118560791
6.969434814453125,1.152505463156849,-0.967291080711782,1.3796429245740174,-0.1735444962978363,-0.0644875541329383,0.9427781701087952
6.979463134765625,1.0988456230312584,-0.8710843306273222,1.2651076138556003,-0.1447791010141372,0.0291810892522335,0.9046130776405334
6.989490966796875,0.9442606990624218,-0.7689212294217198,1.098038398301601,-0.1070564910769462,0.1301764100790023,0.8442533612251282
6.999518798828125,0.7874315032981336,-0.6642050096672028,0.9197223970681428,-0.0580371022224426,0.2218512296676635,0.7651121616363525
7.009546875,0.6396242567706852,-0.6038481561210006,0.7394903330802917,-0.0119497692212462,0.305132508277893,0.6792259812355042
7.01957470703125,0.5308467058613896,-0.6108047703258693,0.5181307244122028,0.0296013671904802,0.361804336309433,0.6027076244354248
7.02960302734375,0.52611127483733,-0.713754418799281,0.3110515700310468,0.0563863739371299,0.3769846260547638,0.545237123966217
7.039630859375,0.5320011000609025,-0.8488058633238077,0.1266974576771259,0.0718958675861358,0.3549017906188965,0.5159650444984436
7.049658935546875,0.6098911991449073,-0.9809905202403664,-0.0089057755112648,0.0759856849908828,0.2986374497413635,0.5173450708389282
7.059686767578125,0.6916239816643297,-1.1173432566218078,-0.1199789630770683,0.0763897821307182,0.2060025185346603,0.5507239103317261
7.06971484375,0.7912552263047545,-1.243132805673778,-0.158697108528018,0.0778864845633506,0.1007237508893013,0.607218861579895
7.079742919921875,0.826806651353091,-1.2637182053238152,-0.1510463015139103,0.0819633975625038,0.0100703295320272,0.6733624935150146
7.08977099609375,0.7083712644562125,-1.135473518204689,-0.0949737011581659,0.0836869925260543,-0.054446343332529,0.7250182032585144
7.099798828125,0.5412155031299218,-0.8853850970499217,0.0844663356691598,0.0811027362942695,-0.0891700237989425,0.7570127248764038
7.109826904296875,0.339133609046787,-0.5962541938606649,0.3216121270120143,0.0712064281105995,-0.0775868743658065,0.7560018301010132
7.119854736328125,0.1700247043587267,-0.3052708677377551,0.5479512776583433,0.0584209933876991,-0.0441302247345447,0.7445573806762695
7.129883056640625,0.1015815384579822,-0.0887971131487749,0.708312520006299,0.0521614998579025,-0.0120186293497681,0.7219207882881165
7.139910888671875,0.108089385982044,0.0666511496511288,0.7904191408067941,0.0533833615481853,0.0161369927227497,0.694745659828186
7.14993896484375,0.1711926156269386,0.2103473258642479,0.7856435969680547,0.0568121783435344,0.0132693015038967,0.6732156276702881
7.159966796875,0.2923614095430821,0.3417150403747335,0.8346639407247305,0.0621418543159961,-0.0114442631602287,0.655044436454773
7.169994873046875,0.389918807051517,0.3744054134361446,0.8519587743967771,0.0735622942447662,-0.0413502305746078,0.6387751698493958
7.18002294921875,0.4230213776430115,0.4075566089423373,0.8738841904789209,0.079955868422985,-0.0688383057713508,0.6257439255714417
7.190051025390625,0.4518380510762333,0.5228246543820947,0.9368553181767464,0.0820011720061302,-0.0774182081222534,0.61443692445755
7.200078857421875,0.4688838784232735,0.598037314417772,1.0053490086883303,0.0920906811952591,-0.0684293955564498,0.6015936136245728
7.210107177734375,0.4935594699963927,0.6334745019692927,1.018962523499131,0.1026530489325523,-0.0514773167669773,0.5870663523674011
7.220134765625,0.5228403999404981,0.7151987723886967,1.0472054521650076,0.1081537306308746,-0.0154870878905057,0.5684643983840942
7.2301630859375,0.5056337194759398,0.8330638120517134,1.057691190344095,0.1037677749991417,0.0273386724293231,0.5358886122703552
7.24019091796875,0.4298188192307949,0.9018018327131868,1.0462667100101708,0.0862492173910141,0.0693573579192161,0.493602842092514
7.250218994140625,0.3674658964965492,0.945271702735871,0.9986755222737788,0.0715083554387092,0.0963767245411872,0.4455932378768921
7.2602470703125,0.3793114152541383,0.9069345194265246,0.8631792565912008,0.0586967207491397,0.0942874401807785,0.4049405455589294
7.270274658203125,0.4275177026815712,0.8277692127749323,0.7316951491594315,0.055774699896574,0.0846254974603653,0.3793677985668182
7.280302978515625,0.4863740520043298,0.769362835709378,0.58456748239398,0.058699082583189,0.0689576119184494,0.3689850270748138
7.290330810546875,0.5154429466329514,0.731092653221637,0.4487228416651487,0.0610575787723064,0.0501274690032005,0.3669647574424743
7.30035888671875,0.4965940519193187,0.6923250426057725,0.3603612521231174,0.0457638949155807,0.0239868443459272,0.3736675977706909
7.3103857421875,0.5271566191717982,0.6059685458084568,0.3324994317293167,0.025869283825159,-0.0087074525654315,0.3832480609416961
7.320413818359375,0.5598539699632674,0.5250774382775649,0.2903103952974081,0.0052953530102968,-0.0346628725528717,0.3909691870212555
7.33044189453125,0.5313444627830758,0.5232064933065325,0.2429980245023965,-0.0104700280353426,-0.0398674868047237,0.3937998712062835
7.340469970703125,0.4726331844868138,0.5883285884931683,0.1852560296297073,-0.0230857618153095,-0.0284623354673385,0.3956345617771148
7.350498046875,0.4244205403838306,0.623065701483935,0.133275082501769,-0.032678734511137,-0.0173966363072395,0.3942188322544098
7.360526123046875,0.4210257468463853,0.6169028680052608,0.059350014591217,-0.0401248075067997,-0.0143654830753803,0.3882849812507629
7.3705537109375,0.382841817869991,0.594632255214639,-0.0030400983482599,-0.0499481447041034,-0.0151929259300231,0.3684439063072204
7.38058203125,0.2503981446910649,0.5688187821853905,-0.0539098693639039,-0.0536867417395114,-0.0175884421914815,0.3429613411426544
7.39060986328125,0.1242555078851059,0.5425112054962664,-0.1493991188287735,-0.0527245439589023,-0.0250141341239213,0.3258566558361053
7.40063818359375,0.1022585609367117,0.4861373937042429,-0.2896937247037887,-0.0406696535646915,-0.0377510897815227,0.3332459926605224
7.410666015625,0.2042835323132574,0.4292067882796749,-0.4013227925866842,-0.0402898862957954,-0.0447663888335228,0.3705653846263885
7.420693603515625,0.3802792373729869,0.3210708962747827,-0.4423503840237855,-0.0641688555479049,-0.0533329807221889,0.4264062941074371
7.430721923828125,0.5409871377341449,0.1746302619254216,-0.3802665605545043,-0.1219099089503288,-0.0607176609337329,0.5019670724868774
7.440749755859375,0.659015843526274,0.0317758428992237,-0.2762859615981579,-0.2106755226850509,-0.0795187875628471,0.5788767337799072
7.450778076171875,0.7201633359935135,0.0239873809800948,-0.1357148768693208,-0.3051093518733978,-0.1031892299652099,0.642860472202301
7.460805908203125,0.6578951689332724,0.0460129558013519,-0.0692208357423544,-0.3672565221786499,-0.1175892204046249,0.6733174324035645
7.470833740234375,0.4055289390396326,0.1154567455454263,-0.1218371581643819,-0.3852879703044891,-0.1053229719400405,0.6653452515602112
7.48086181640625,0.0710305885780602,0.2642944036996923,-0.2522667881071567,-0.3609673082828522,-0.0633006021380424,0.6290008425712585
7.490889892578125,-0.1877335256591439,0.3699934787454083,-0.4424497527450323,-0.3040904402732849,-0.0262792017310857,0.5672551989555359
7.50091796875,-0.3596856909491122,0.4056587394317612,-0.61604866232872,-0.2464412301778793,0.0006900713779032,0.4803487062454223
7.510946044921875,-0.4480130494279786,0.3888517988745122,-0.7164929038524628,-0.2030396908521652,0.0243123099207878,0.3783283233642578
7.520973876953125,-0.5546130371024832,0.2971722256246022,-0.8057412131011485,-0.1759201735258102,0.0452996529638767,0.2585845291614532
7.531001953125,-0.7219071839861572,0.1607939712094143,-0.8836597345620393,-0.1551946550607681,0.0644168853759765,0.1253191530704498
7.54102978515625,-0.9063914985910058,-0.004984766142629,-1.063352869367599,-0.122572049498558,0.0864340290427208,-0.0120398746803402
7.551057861328125,-1.0228482788912951,-0.2071922411005012,-1.3754612549751997,-0.0809412449598312,0.0996542274951934,-0.1263075917959213
7.5610859375,-1.019405737221986,-0.4906188134346157,-1.587608798661828,-0.0537532866001129,0.0716531574726104,-0.1955372542142868
7.571114013671875,-0.8192141503974795,-0.8371192249223589,-1.584404449662566,-0.0530587323009967,0.046555258333683,-0.2038612365722656
7.581141845703125,-0.6204865717109292,-1.083514490647614,-1.4788877271801233,-0.080804631114006,0.0109648406505584,-0.1547536104917526
7.591169921875,-0.4015181324956938,-1.2670841746255754,-1.280320965078473,-0.1407864689826965,-0.037047691643238,-0.0620833337306976
7.60119775390625,-0.0850994094083085,-1.340240742381662,-0.9571049100011586,-0.2247418165206909,-0.0930931866168975,0.042829506099224
7.61122607421875,0.1066275698011741,-1.3472431684896349,-0.5926572653472423,-0.312307596206665,-0.1889861524105072,0.1147255301475524
7.62125390625,-0.0548496344320476,-1.2934652549423276,-0.2221083812087774,-0.3665196001529693,-0.307568609714508,0.1171045824885368
7.6312822265625,-0.4403060917798429,-1.1694608357414602,0.0464034392565488,-0.3488772213459015,-0.3971775770187378,0.0522989518940448
7.641309814453125,-0.8935365470625459,-0.989818262079358,0.1192646773278713,-0.2673116624355316,-0.4525722861289978,-0.0330389961600303
7.651337890625,-1.1612322288393973,-0.7620281819723546,0.2264864501625299,-0.1605186611413955,-0.4827139377593994,-0.1120448634028434
7.661365966796875,-1.1476855687197298,-0.5878222829388454,0.4532312590003013,-0.0562323704361915,-0.4667147099971771,-0.1876930743455886
7.671393798828125,-1.0700221910636871,-0.6483168279226869,0.7302519646137953,0.0154873579740524,-0.3957129716873169,-0.2446421086788177
7.681422119140625,-0.9548543545953928,-0.7657843196354805,1.0570552305281162,0.0402059666812419,-0.2657513916492462,-0.2564358413219452
7.69144970703125,-0.686366937918961,-0.8282034394737332,1.303227208891511,0.0010455138981342,-0.1162700429558754,-0.2136921137571334
7.701477783203125,-0.3669852003075182,-0.8416476621322333,1.523641061142087,-0.0779744833707809,0.0057794000022113,-0.1597915142774582
7.711505859375,-0.235938169118762,-0.945198199108243,1.552517027014494,-0.1580693274736404,0.0997799262404441,-0.1346209049224853
7.721533935546875,-0.3309817937079817,-1.056282784850895,1.3306360248208045,-0.2120167911052703,0.1575569659471511,-0.1388151496648788
7.731560791015625,-0.4740685145195573,-0.9958602456573395,1.0705939265370368,-0.2234995365142822,0.1852629035711288,-0.1455532163381576
7.7415888671875,-0.5736497825384139,-0.8634702023617923,0.7049187859147786,-0.1747847944498062,0.1935459524393081,-0.1431123614311218
7.751616943359375,-0.59795347205922,-0.762844174530357,0.3096428722769022,-0.0803094208240509,0.1602244824171066,-0.1357327401638031
7.76164501953125,-0.5515864192903042,-0.6745142953008413,0.0780021080911159,0.0315382480621337,0.1007366776466369,-0.1268102824687957
7.7716728515625,-0.5207612190462648,-0.6380144834864884,-0.0340934082597494,0.1273529231548309,0.0321538932621479,-0.11756432056427
7.781701171875,-0.4964931853607296,-0.6456894750937819,0.0356201794356107,0.1926193386316299,-0.0308056902140378,-0.0972770452499389
7.791728759765625,-0.4845198389723896,-0.6408538716308773,0.2351946572750806,0.2159552872180938,-0.0522111132740974,-0.059247899800539
7.801757080078125,-0.4547201823838054,-0.5923742836873978,0.4437210878551006,0.2073101550340652,-0.035707201808691,-0.0016893530264496
7.811784912109375,-0.4062375987656414,-0.5411845234697684,0.6327192266225814,0.1725854724645614,0.0007434850558638,0.0620278418064117
7.82181298828125,-0.3866062119048088,-0.4805447247963398,0.7422048527359962,0.1332166790962219,0.0346588604152202,0.1225588023662567
7.831841064453125,-0.354482569348067,-0.4445298469547182,0.7699310640513897,0.1011865735054016,0.0641786679625511,0.185574784874916
7.841867919921875,-0.3550412261441349,-0.353076867268607,0.756049253693223,0.0763211101293563,0.0984165221452713,0.240711435675621
7.851895751953125,-0.4294941903863102,-0.1887357249716296,0.7723731965065002,0.0621248669922351,0.1215535327792167,0.2788684070110321
7.861923828125,-0.5222598601061851,-0.0595483867075294,0.7886760965317487,0.0655186921358108,0.1454976797103881,0.3018780052661896
7.871951904296875,-0.5758486808221787,0.0872188857803121,0.6829010153740644,0.0874397009611129,0.1609988808631897,0.3053656816482544
7.881979736328125,-0.6423379727087914,0.2773877122949809,0.6118342595040798,0.1153455078601837,0.1727635413408279,0.2933523654937744
7.8920078125,-0.7413438519924879,0.4555431161392479,0.5863754085987806,0.144328162074089,0.1801636666059494,0.2654483020305633
7.902035888671875,-0.8038176976926624,0.5475635935150086,0.562899840465188,0.1655457466840744,0.173920527100563,0.2265284806489944
7.912063720703125,-0.8545159115336834,0.5886405770517885,0.5347463436484337,0.1794077605009079,0.1697838455438614,0.1780333817005157
7.922092041015625,-0.9007363954387604,0.6324419440511614,0.5227127915054559,0.183544248342514,0.1691187918186187,0.1373715549707412
7.93211962890625,-0.9010781215485184,0.639812692014873,0.489778490152955,0.1835333257913589,0.160618245601654,0.1115498095750808
7.942147705078125,-0.8494241413526237,0.5525649089336395,0.4096107284605503,0.1898691356182098,0.1509319543838501,0.0895579159259796
7.95217578125,-0.890435804568231,0.4789941343534737,0.328752061894536,0.1933930218219757,0.1446191966533661,0.0810049101710319
7.962203857421875,-0.8999125118352472,0.4602930140800774,0.2783615988284349,0.1944239437580108,0.1478175520896911,0.080990619957447
7.97223193359375,-0.9349405705966056,0.4740761133041232,0.1831792233556509,0.1832884699106216,0.1512586176395416,0.0830393880605697
7.982259765625,-0.98224497728087,0.4712633209057152,0.0892687675148248,0.1627644747495651,0.1492024511098861,0.0875509455800056
7.996673828125,-0.9589164894677698,0.4424874909395351,0.0599994184106588,0.1227124035358429,0.1441009044647216,0.1034204512834549
8.00670166015625,-0.922115575814992,0.4312892205769196,0.0189537067949771,0.0912948548793792,0.1351660639047622,0.1167776361107826
8.016729736328125,-0.858323852449283,0.4429335907392203,-0.0005050269126892,0.0583725944161415,0.128011479973793,0.1345590204000473
8.0267578125,-0.7895747258719057,0.4309773416161537,0.0169078801810741,0.0195340327918529,0.1255587339401245,0.1389433592557907
8.036785888671876,-0.7762577828548848,0.4304701592789963,0.0807774180233478,-0.014754700474441,0.1212076693773269,0.1317714750766754
8.04681396484375,-0.822254102615267,0.4461437118921428,0.1112123037755489,-0.0435450002551078,0.1212811172008514,0.117385983467102
8.056841552734374,-0.8510878367811441,0.4979377581458538,0.1139303305625915,-0.0638734400272369,0.1282434165477752,0.0961510017514228
8.066869873046874,-0.8497817226186394,0.5500668085075915,0.1317787064641714,-0.0547041445970535,0.1407544761896133,0.059671115130186
8.076897705078125,-0.881376738191396,0.5079365165255963,-0.0159825820297002,-0.0163514316082,0.1403957456350326,0.0256449710577726
8.086926025390625,-0.8611571031138301,0.4435572025302797,-0.1405056182771921,0.0320308096706867,0.1409985125064849,0.0043322509154677
8.096953857421875,-0.758885280836746,0.40412926484216,-0.2139373497128486,0.0700290575623512,0.1526570320129394,-0.0101686604321002
8.106980712890625,-0.7081697505347431,0.3777772644894197,-0.2190682828605175,0.086424171924591,0.1705439537763595,-0.0250309985131025
8.1170087890625,-0.7734784543346613,0.3157921886868775,-0.1677741489529609,0.0768218711018562,0.1723972558975219,-0.0388117916882038
8.127036865234375,-0.8480121556628495,0.2746961716560647,-0.1628051283687353,0.048387624323368,0.1575727760791778,-0.039316888898611
8.13706494140625,-0.7207989304833113,0.1637931347590871,-0.1424035608530044,0.0127595886588096,0.1298926770687103,-0.0237821377813816
8.1470927734375,-0.5473088881015777,0.0216894062360283,-0.1987637459784746,-0.022626033052802,0.10214364528656,0.0081297392025589
8.157120849609376,-0.4110345507185906,-0.0802940823526587,-0.2132049437850713,-0.0434128046035766,0.0771093964576721,0.0457809790968894
8.167148681640626,-0.349742169887945,-0.0520145571365952,-0.2540460727393627,-0.0485247522592544,0.0767735987901687,0.0676098465919494
8.1771767578125,-0.3466917693413794,0.019419789936766,-0.3120633774220943,-0.0509455688297748,0.1056603789329528,0.0691808462142944
8.187204833984374,-0.451090374514088,0.1051916735128499,-0.3156692929595708,-0.0590493194758892,0.158048391342163,0.0512888357043266
8.19723291015625,-0.5522689216617495,0.1934258190166205,-0.2639507961601018,-0.0806789845228195,0.2250330150127411,0.0146887442097067
8.2072607421875,-0.6095603232227266,0.3045564358580857,-0.2586982824593782,-0.1076626107096672,0.291037768125534,-0.039901066571474
8.217288818359375,-0.6574992284182458,0.4192968406945467,-0.3525076160132884,-0.1292901337146759,0.3423874974250793,-0.1071778461337089
8.227316650390625,-0.7053129728641361,0.4311405693538486,-0.5295879379719496,-0.1360749900341034,0.3748316764831543,-0.1781006306409835
8.237344970703125,-0.704954953206703,0.3921277883378788,-0.7549643810659646,-0.1206638216972351,0.3797430694103241,-0.2333385944366455
8.247372802734375,-0.662528016365692,0.3022035525890067,-0.9964701211839914,-0.0859107971191406,0.3433918058872223,-0.2634148895740509
8.25740087890625,-0.5104198212413117,0.1644171301426366,-1.1361556552499532,-0.0410197526216506,0.2662765085697174,-0.2730997502803802
8.2674287109375,-0.3175035957146436,0.0217463514545001,-1.1518173347622156,0.003984544891864,0.1624158471822738,-0.2669655680656433
8.27745654296875,-0.1946218786670826,-0.0821333261443302,-1.0160276390910148,0.0327956862747669,0.0475177504122257,-0.2552180886268616
8.28748486328125,-0.0685472838623449,-0.1516622049225494,-0.7304419342279433,0.0424517393112182,-0.0227895677089691,-0.2416543513536453
8.2975126953125,0.053666858954844,-0.2672248128620907,-0.3785691089868545,0.0417675711214542,-0.048404648900032,-0.2268628925085067
8.307541015625,0.0846074155071284,-0.3366599854748696,-0.093901103490591,0.0307714473456144,-0.0201255772262811,-0.191038578748703
8.317568603515625,0.2344428525270894,-0.3903222367532551,0.1849199295431375,0.0063159046694636,0.0814279466867446,-0.1668235063552856
8.3275966796875,-0.0326086244785343,-0.3858944834388792,0.2603226687908172,-0.0506997220218181,0.1350356638431549,-0.1255528479814529
8.337624755859375,-0.0825726217438932,-0.2759067712885327,0.5076707051962613,-0.1178686395287513,0.1520583182573318,-0.0774966478347778
8.34765283203125,0.0492843238885281,-0.3439141578542068,0.7137082415699958,-0.1780177652835846,0.1344838887453079,-0.0169914122670888
8.357680908203125,0.074012572664069,-0.4981075252221897,0.753939714193344,-0.221025675535202,0.0876109078526496,0.0644802823662757
8.377111083984374,0.4328426605639979,-0.5162806760987266,0.7462789703071117,-0.1741446405649185,-0.0067840553820133,0.1989963054656982
8.387138671875,0.3370807681702077,-0.3839906225789338,0.7088000112622976,-0.084922656416893,0.0156507082283496,0.2547869682312011
8.397166748046875,0.150682674099598,-0.0832671159472316,0.5989829612374306,0.0042343828827142,0.0962472781538963,0.2575374543666839
8.40719482421875,-0.1574132792625576,0.1567602221813052,0.5690741451859473,0.0487335324287414,0.1934407949447631,0.2144645899534225
8.417222900390625,-0.3692745533537119,0.2554869922626763,0.6438613828837871,0.0287824608385562,0.2731683552265167,0.1457158923149109
8.4272509765625,-0.4319227692401036,0.2946046218926086,0.8089280264437199,-0.0331266596913337,0.3377174437046051,0.0727662444114685
8.437278564453125,-0.3748842829942703,0.2846930303396657,0.8078221110284328,-0.1066999435424804,0.3837765455245971,0.0128113012760877
8.447306640625,-0.327346359815076,0.2033515121601521,0.6302092896282673,-0.1653698980808258,0.3895029425621032,-0.0430342070758342
8.457333740234375,-0.3067720660809427,0.1296225878762081,0.3433779686182737,-0.1874227374792099,0.370393693447113,-0.0863643735647201
8.467362060546876,-0.3145037197789177,0.0035802696395665,-0.0035498014360666,-0.1654900014400482,0.3224932849407196,-0.1095131039619445
8.4773896484375,-0.3405830772027373,-0.1307824254358187,-0.3271317672163248,-0.1133431866765022,0.2528404295444488,-0.1086260005831718
8.487417724609376,-0.2920942830394953,-0.2488672453293576,-0.550076014727354,-0.0366263911128044,0.1632906794548034,-0.0822589620947837
8.49744580078125,-0.1918835214780643,-0.3098199458768591,-0.620713147008419,0.054959449917078,0.0594676099717617,-0.0155883217230439
8.507473876953124,-0.0958532604716718,-0.3762682846985757,-0.494426023697853,0.12937693297863,-0.0295925624668598,0.0648885816335678
8.517501953125,-0.039632173289638,-0.4183656973242759,-0.2185018811494112,0.1844191402196884,-0.0978384613990783,0.1480306088924408
8.527530029296875,0.0243058084126561,-0.3278684474604204,0.0847901607960462,0.2185659408569336,-0.1409878730773925,0.2198430150747299
