seconds_elapsed,ax,ay,az,gx,gy,gz
0.06153271484375,-0.4433506471075117,0.0271462925355881,0.3188941002249718,-0.0371758565306663,-0.0117084169760346,0.0780097991228103
0.071560791015625,-0.3821353501010686,0.0247924594184383,0.339061858984828,-0.0247956216335296,0.0117409825325012,0.0654972046613693
0.081587646484375,-0.4512582053616643,0.0083078096181154,0.3734574650615453,-0.0167364105582237,0.0128434160724282,0.042546272277832
0.09161572265625,-0.4870587828654795,0.0428403764801099,0.4433212748825549,-0.0156389214098453,0.0102998306974768,0.0188292264938354
0.101642822265625,-0.4786069616667926,0.0751574592497199,0.5055255098611117,-0.0207367930561304,0.0050532887689769,-0.0008390948059968
0.1116708984375,-0.4623520655017346,0.1376819756912067,0.5261971264898777,-0.0275289192795753,-0.0015414971858263,-0.0053608757443726
0.12169775390625,-0.4368745098959654,0.206605399389565,0.4866133041203022,-0.0318914428353309,-0.0117318164557218,-0.0031778828706592
0.131725830078125,-0.4050007504470646,0.2622224379975348,0.449544679442048,-0.0254724267870187,-0.0107736121863126,0.0087802428752183
0.141752685546875,-0.3808737326674163,0.3367806527124717,0.3380278397619724,-0.0038799762260168,-0.0170240104198455,0.0207439418882131
0.15178076171875,-0.4297792178727686,0.3371386723699048,0.2381616903871297,0.018500430509448,-0.007439028006047,0.0278314128518104
0.1618076171875,-0.4728874880414456,0.352792680032365,0.1781967587679624,0.043092954903841,0.0110417362302541,0.032306432723999
0.1718359375,-0.5329526651646942,0.357253385768272,0.1825695670247077,0.0603241398930549,0.037850446999073,0.0278166122734546
0.181862548828125,-0.5233024279616773,0.3890503171212971,0.2480623221546411,0.0664382204413414,0.0544179119169712,0.0259031727910041
0.191890625,-0.4895739074915647,0.4789437924057245,0.3207020264297723,0.0672278478741645,0.0688037723302841,0.0205398332327604
0.20191796875,-0.5138014630362391,0.529870554305613,0.3853466402977705,0.067045159637928,0.080717422068119,0.0125458221882581
0.21194580078125,-0.5404037848882377,0.6326790407426655,0.4100777614504098,0.0653022155165672,0.0833414047956466,0.0056044454686343
0.22197265625,-0.5260245464019477,0.7396984228730201,0.4623392790853977,0.0739170536398887,0.0774977430701255,0.0090157650411129
0.232000732421875,-0.4711890135604888,0.8662193549394607,0.5024374807178974,0.0822823122143745,0.0629893764853477,0.0135958697646856
0.24202783203125,-0.5172673855811357,0.9660297555390744,0.5345481907278299,0.0908651500940322,0.0496850535273551,0.0190523974597454
0.252055908203125,-0.5246550116144121,1.053261975724995,0.554046671923995,0.0934928953647613,0.0429432615637779,0.027688231319189
0.262082763671875,-0.5390718056321144,1.0968753458715974,0.5619856482297182,0.0933764353394508,0.0413780510425567,0.0411859676241874
0.272110595703125,-0.5038699977390468,1.1528732735559344,0.5296949054777622,0.0958630293607711,0.0527220517396926,0.0594022572040557
0.282137939453125,-0.480222799365595,1.1956365296792235,0.5058738849073648,0.1043629199266433,0.0629031285643577,0.078649416565895
0.29216552734375,-0.5322501429185271,1.1952264145083724,0.4897492640584707,0.1154038533568382,0.0616285353899002,0.0936667174100875
0.302192626953125,-0.5255641623485833,1.1967502630747855,0.5099865809231996,0.1263673156499862,0.0496405437588691,0.0997971966862678
0.312220703125,-0.5370316781066358,1.1701533480502664,0.5159633172452449,0.1296129077672958,0.0421091243624687,0.0923371464014053
0.32224755859375,-0.568759307083115,1.1367664806246758,0.5374310526877641,0.1222571432590484,0.0371557548642158,0.0780654773116111
0.332275634765625,-0.6117024498179554,1.1045558173716068,0.5211258145749569,0.1078217402100563,0.0422482527792453,0.0625959783792495
0.342302734375,-0.6424424559965729,1.0786069909922775,0.4821943186342716,0.0906029492616653,0.0524452738463878,0.048173613846302
0.352330810546875,-0.6283015563108026,1.094198235616833,0.4592401440262794,0.0788075402379036,0.055596325546503,0.0360381193459034
0.362357666015625,-0.5926067042037845,1.1530757373254743,0.4408908328652381,0.0703989043831825,0.0611791014671325,0.029243990778923
0.3723857421875,-0.5821524206088855,1.2084160048186778,0.4110281940430402,0.0595718212425708,0.0725689083337783,0.0239256583154201
0.38241259765625,-0.5633139376914128,1.23230731414631,0.3801706989645957,0.0516980662941932,0.0963225215673446,0.0177705232053995
0.39244091796875,-0.6223994926601648,1.2220434020243585,0.3662017948448657,0.0477933399379253,0.1238676011562347,0.0143534215167164
0.402467529296875,-0.6108217579932883,1.214246464537829,0.3930184900999069,0.0436962731182575,0.1370726972818374,0.0117277801036834
0.412495849609375,-0.5584108584828674,1.2379467813380065,0.4620598776221275,0.0458363890647888,0.1428344398736953,0.0095889959484338
0.422522705078125,-0.6125930054495111,1.2416618563383817,0.4961041860431432,0.0528590343892574,0.1425400525331497,-0.0011156622786074
0.432549560546875,-0.6854615135118365,1.222529139714688,0.5087099851161241,0.0595526210963726,0.1251157820224762,-0.0135981645435094
0.44257763671875,-0.7118884057316929,1.208770663475245,0.5639771143078803,0.052589401602745,0.0990944430232048,-0.0301713626831769
0.452604736328125,-0.7182061375111342,1.2080148766718803,0.5900128883183002,0.0414632447063922,0.0718822628259658,-0.0472613982856273
0.462633056640625,-0.7065189145877957,1.241721915962547,0.53107905331254,0.0196237526834011,0.0754167065024375,-0.066956877708435
0.47265966796875,-0.7311638918269425,1.2687578069262206,0.4501075740218162,0.0048325550742447,0.0845193937420845,-0.0755610242486
0.482687744140625,-0.6830601514585316,1.313539490199834,0.32339199616611,0.0042079389095306,0.1071927174925804,-0.0706473290920257
0.49271484375,-0.6817494341861456,1.3313359897837045,0.2344844631791114,0.009554767049849,0.1256209909915924,-0.0657337978482246
0.50274267578125,-0.6940430255047977,1.3951321701288222,0.1775274812042713,0.0100923217833042,0.1396193206310272,-0.0599123835563659
0.51276953125,-0.7330353117220103,1.3976844849601386,0.2141331645458936,0.0099309347569942,0.148351565003395,-0.0596295557916164
0.5227978515625,-0.7473334477961063,1.3674268554709852,0.2212584863811731,0.0125517947599291,0.149019569158554,-0.0615139082074165
0.532824462890625,-0.8017968593895435,1.320437579150498,0.1825748277217149,0.0132980123162269,0.1447944641113281,-0.0710229948163032
0.542852783203125,-0.8338697216071188,1.3298501351401208,0.1654015746027231,0.0079076318070292,0.14421246945858,-0.0778755396604538
0.5528798828125,-0.8082875365830957,1.352356127589196,0.1716635576069355,0.0040119597688317,0.1364075392484665,-0.0854873806238174
0.562907958984375,-0.7814753713726997,1.3443702434018254,0.110081838440895,-0.0037402359303086,0.1334461122751236,-0.0873851552605629
0.572934814453125,-0.7834494479246437,1.3431621827863156,0.0749281074732542,-0.0065370881929993,0.124329850077629,-0.0888115391135215
0.582962646484375,-0.7851996525928377,1.323452104666084,0.0223515325397253,-0.0057584983296692,0.1079347357153892,-0.0913024544715881
0.592989990234375,-0.7569231139183044,1.312757984433323,-0.0705342564284801,-0.0095982439815998,0.1066036894917488,-0.0902023017406463
0.603017822265625,-0.6972671751830727,1.2825940245769918,-0.1709030946284532,-0.0169470757246017,0.1255943924188614,-0.0878172814846038
0.613044677734375,-0.6879675780486315,1.22675391780287,-0.3246335206598043,-0.020420903339982,0.1629620045423507,-0.0864960849285125
0.62307275390625,-0.6596148323327302,1.1646980052538216,-0.4648036233723163,-0.0142473289743065,0.1982251852750778,-0.0801272764801979
0.633099853515625,-0.5893014521133154,1.1412285746000703,-0.4955056356281042,-0.008839514106512,0.2229340076446533,-0.0755178779363632
0.6431279296875,-0.5174694109592587,1.109219279137999,-0.4464332694232463,0.0044394726864993,0.216978371143341,-0.0715505704283714
0.65315478515625,-0.3887206467755139,1.049650653360039,-0.4357067082256078,0.023790268227458,0.1865935623645782,-0.0634825229644775
0.6631826171875,-0.2351133721997961,0.9636131228514015,-0.4455272604942321,0.0431659258902072,0.1501090228557586,-0.0583848133683204
0.6732099609375,-0.1561576714445836,0.8513537942409515,-0.5526303753852844,0.0644903853535652,0.1264817267656326,-0.0671074613928794
0.683237548828125,-0.1701098984241485,0.6911728768959641,-0.6899497648417949,0.0786516740918159,0.1227748245000839,-0.0805891677737236
0.6932646484375,-0.1775572735543362,0.5323417667247354,-0.8065887698411941,0.0834128707647323,0.143725112080574,-0.1025389358401298
0.703292724609375,-0.1792227408148348,0.3531428817095234,-0.9080950876384972,0.0760471746325492,0.1749040782451629,-0.132402554154396
0.713319580078125,-0.1953063355335965,0.1917904728997498,-0.9662070848673582,0.065537542104721,0.2176688611507415,-0.1716221272945404
0.723347900390625,-0.234724135420192,0.0832487765729427,-0.9935212082505226,0.0552087575197219,0.2519681453704834,-0.2166586816310882
0.733374755859375,-0.2241999101279303,0.0314539996668696,-0.9833154560565948,0.0551216714084148,0.2804884612560272,-0.2590537965297699
0.74340283203125,-0.2291352476382628,0.023356855391059,-0.9430705394297838,0.0648000761866569,0.2920347154140472,-0.2966241538524627
0.7534296875,-0.2382568395909853,0.0490177316744811,-0.8515420102894306,0.0828520506620407,0.2696553766727447,-0.3329067826271057
0.763457763671875,-0.1817302849226631,0.1532609636223875,-0.7305845575690268,0.0900726616382598,0.2357047349214553,-0.3548716604709625
0.773484619140625,-0.1272914780475199,0.2795097824828699,-0.5945727435797452,0.0944540947675705,0.1857164055109024,-0.3599681556224823
0.783512939453125,-0.0823741126302629,0.2960171373053453,-0.6023813715040683,0.1100038066506385,0.1294740438461303,-0.351007878780365
0.79353955078125,0.0074371071812114,0.3245464634308591,-0.7003986781418323,0.1244226917624473,0.0863888934254646,-0.326163500547409
0.80356787109375,0.0178174693066626,0.3988694446178153,-0.6599953560829163,0.1178365051746368,-0.0223772283643484,-0.3143004775047302
0.813594970703125,0.0481104806364513,0.3711332598976791,-0.3969733652055263,0.0911950394511222,-0.0700635239481926,-0.2928687036037445
0.82362158203125,0.2058155093871988,0.392588793445751,-0.6366419530242681,0.0799606144428253,-0.0795673578977584,-0.2860967814922333
0.83364990234375,-0.0278506003134651,0.1386348925018683,-0.8175286815285682,0.0780718997120857,-0.0690215080976486,-0.292242020368576
0.8436767578125,0.0757223950895247,-0.0105884131022728,-0.8383125263601541,0.0799081996083259,-0.0089490003883838,-0.2957573235034942
0.853705078125,0.0583953350817319,-0.101504198905453,-0.6846241859048604,0.0744673609733581,0.0355039499700069,-0.3231678903102875
0.863731689453125,0.0938621231870725,-0.1306878059549257,-0.5041776023834943,0.0580231547355651,0.1348935067653656,-0.3573818504810333
0.873759765625,0.1061710673384834,-0.0918808131767436,-0.3709136257976293,0.0500608384609222,0.2090630829334259,-0.3807423114776611
0.883786865234375,0.1569201985159888,-0.1567460292591713,-0.1447767197251319,0.056306105107069,0.2366037666797638,-0.3863446116447449
0.893814697265625,0.238071326956246,-0.1838379795253276,0.2481564301788806,0.0548373721539974,0.2286944538354873,-0.4045345485210418
0.903841796875,0.2094908186327665,-0.1421651855198666,0.6874228767126799,0.0390726253390312,0.1939449906349182,-0.4406228959560394
0.913869873046875,0.2253841880090534,-0.0805346222434192,1.069946276283264,0.0179449673742055,0.132520243525505,-0.4827367961406708
0.923896728515625,0.2892242805611342,-0.0498620918104425,1.3546195424765348,-0.0028910846449434,0.0559265986084938,-0.5187157988548279
0.9339248046875,0.3305085501730442,0.0205060690698213,1.4811819755971432,-0.0123578226193785,-0.0252627991139888,-0.542165994644165
0.943951904296875,0.3993885731210932,0.0899745776966214,1.4659645327210429,-0.0034375651739537,-0.0943073779344558,-0.5509213805198669
0.953979736328125,0.4938436572326347,0.1702578372611664,1.3980039261728523,0.0191963762044906,-0.1473090797662735,-0.5444855690002441
0.9640068359375,0.624291516951844,0.2752032078627496,1.2301496977210045,0.0432946234941482,-0.2034306824207306,-0.5080214142799377
0.97403466796875,0.8135515945911407,0.3906142785023898,1.13774672383368,0.0733973905444145,-0.2245828360319137,-0.4843478500843048
0.984061767578125,0.5573295660521834,0.3398625809084624,0.8548504041850566,0.0974899753928184,-0.2128702849149704,-0.4587621390819549
0.99408984375,0.626968773337081,0.3276213408315554,0.7158814939558505,0.1172983050346374,-0.2039273977279663,-0.4200946390628814
1.00411669921875,0.7703747161656618,0.32121344655063,0.7024176167488098,0.116965964436531,-0.1924146264791488,-0.3910519182682037
1.014144775390625,0.6874868818596005,0.3236301157709211,0.6692974374353885,0.1051529794931411,-0.1713908314704895,-0.3837000131607055
1.024171875,0.6091299324488267,0.3103611766140908,0.6443553038805723,0.0877143517136573,-0.1492667347192764,-0.3770933151245117
1.034199462890625,0.6036864627532661,0.2772862612145021,0.60277007856071,0.0862514823675155,-0.1313902586698532,-0.3605340421199798
1.044226806640625,0.6351590940553694,0.228601268625725,0.5632704273432493,0.0905559882521629,-0.1114396527409553,-0.3524965047836303
1.054254638671875,0.6298495894704014,0.320486009058915,0.5902069495856762,0.080887384712696,-0.0838402435183525,-0.3422183096408844
1.06428173828125,0.6667968527913093,0.4194058540269732,0.6542500904291868,0.0620381385087966,-0.0597486793994903,-0.324863076210022
1.074309814453125,0.6966731548126787,0.4025757517898455,0.711404640802741,0.0374654158949852,-0.0368209928274154,-0.3062164187431335
1.084336669921875,0.6593743015751242,0.3713147174118086,0.7975853791743517,0.0154800340533256,-0.0242055226117372,-0.292049765586853
1.094364990234375,0.6027760333774611,0.3387123514274135,0.8454495386332272,0.0036188478115946,-0.0280058551579713,-0.2885996401309967
1.1043916015625,0.565693197510764,0.3682159842114895,0.8787789767831563,-0.0015636873431503,-0.0444574542343616,-0.2934038937091827
1.114419921875,0.5195480438642204,0.3908948855420574,0.8914367983043193,-0.0013434439897537,-0.0589642226696014,-0.2932049632072449
1.12444677734375,0.5344233222391456,0.4160216914813965,0.8726508492916822,-0.0060380562208592,-0.0684375613927841,-0.2850698232650757
1.1344736328125,0.5398160481281579,0.4658402729436754,0.8801905971467494,-0.0131601486355066,-0.0638385489583015,-0.270812064409256
1.144501708984375,0.5423998540762811,0.5012363978324458,0.891164995625615,-0.0233336742967367,-0.0598391517996788,-0.2515643835067749
1.15452880859375,0.5448488546635956,0.5344008912116289,0.8844739735543727,-0.0252359695732593,-0.0618900507688522,-0.2322495430707931
1.164556884765625,0.5379905862666666,0.5443912836218252,0.8367728957027196,-0.0161597225815057,-0.0703727900981903,-0.2152473628520965
1.174583740234375,0.4906048579744994,0.564467747369036,0.8025316034048795,-0.0029853300657123,-0.0795953199267387,-0.1988633275032043
1.18461181640625,0.4862568918980657,0.6084627372443676,0.7768021188646554,0.0079037249088287,-0.0974486917257309,-0.181543156504631
1.194638671875,0.5109458544094115,0.6422649805378169,0.7570271588146686,0.0118880812078714,-0.111606054008007,-0.1595347970724105
1.2046669921875,0.5344444746250286,0.6623719490211457,0.7074404133468866,0.0104233957827091,-0.1235664188861846,-0.1356491297483444
1.214693603515625,0.5489290366493165,0.6419002388786524,0.6148655900239944,0.009858539327979,-0.1391872018575668,-0.1120931953191757
1.224721923828125,0.5423504985092208,0.588740201501362,0.5011380885571242,0.0114241112023592,-0.1563994735479354,-0.1027341783046722
1.234748779296875,0.4602672220516949,0.5268889081463217,0.3764297588706016,0.0112328957766294,-0.1700577586889267,-0.1077198833227157
1.244776611328125,0.3822139682952314,0.5003990336928517,0.2470283029317855,0.0108176618814468,-0.176484614610672,-0.1122942045331001
1.2548037109375,0.3765217114703729,0.5135943961568177,0.0815279441297054,0.0129577787593007,-0.1784806549549102,-0.1104534268379211
1.264831787109375,0.39840946242325,0.5700295827472582,-0.064730538585782,0.0128956791013479,-0.1948994249105453,-0.0990085676312446
1.274858642578125,0.4971633031746372,0.6463253618445247,-0.2508037298172712,0.0138229923322796,-0.165613979101181,-0.082489512860775
1.28488671875,0.4290691333746537,0.6774572899501771,-0.4851975921034813,0.0179829448461532,-0.1719169169664383,-0.0632512122392654
1.294913818359375,0.4828519422927871,0.7068574988923967,-0.5804623851627111,0.0201355777680873,-0.1613303124904632,-0.0249227359890937
1.30494189453125,0.575378506027162,0.826990702683106,-0.8532201726347207,0.0172365456819534,-0.1814772188663482,0.0002730769338086
1.31496875,0.4597675289012491,0.7894699503231793,-0.9025216714203356,0.004015281330794,-0.1859270930290222,0.0260479487478733
1.32499658203125,0.5352514436263591,0.8257884142212569,-1.1022983938336373,-0.0189212076365947,-0.2144038826227188,0.0404770262539386
1.33502392578125,0.4665884609624743,0.7172169803433119,-1.1606897925257682,-0.0354549102485179,-0.2303652763366699,0.0588373914361
1.3450517578125,0.490146190954186,0.6113421286055818,-1.4179671022713185,-0.0534186847507953,-0.2042770981788635,0.056059256196022
1.355078857421875,0.284273087894544,0.5254258498564363,-1.5119681590050458,-0.0925567671656608,-0.1876933276653289,0.0397766903042793
1.365106689453125,0.1485146276118233,0.4141792784851044,-1.4552005621224642,-0.134585291147232,-0.190336138010025,0.0330878347158432
1.3751337890625,0.2082233194475993,0.4173430032130331,-1.5471832647711037,-0.1632038950920105,-0.111407496035099,0.0149439852684736
1.38516162109375,-0.178515798121877,0.2410453925972804,-1.5467805291891097,-0.1954730153083801,-0.0685770213603973,0.0066368225961923
1.395188720703125,-0.1196923281554132,0.2666616260213777,-1.3645523229479788,-0.2133114039897918,-0.071338452398777,0.0191092044115066
1.405216796875,-0.0859185072388499,0.3757937990546226,-1.222783552867174,-0.2102736234664917,-0.061857983469963,0.0324407890439033
1.415243896484375,-0.115800617946498,0.4196432064468041,-1.2776783416152,-0.1785396635532379,-0.028426518663764,0.0713516995310783
1.425270751953125,-0.038630942091532,0.4601330012127756,-1.3184843992561102,-0.1231268048286438,-0.0125844394788146,0.1466435194015503
1.435298828125,0.1932133087771013,0.5634992311304435,-1.2458844424694775,-0.0518643371760845,-0.0215542316436767,0.2556019723415375
1.445325927734375,0.4527297757515683,0.7324364690460264,-1.1869248885005712,0.025044260546565,-0.0323953926563262,0.3680817484855652
1.455353515625,0.4308510483553633,0.7108247950881719,-1.207867723286152,0.0899292528629303,-0.0685043931007385,0.46974578499794
1.465380859375,0.4294837785901501,0.6213790635712444,-1.1241554208546876,0.1118600517511367,-0.1019097566604614,0.5508998036384583
1.47540869140625,0.4176141483046114,0.3365937883708625,-0.9820552268624304,0.0925465375185012,-0.1080448776483535,0.5898650288581848
1.485435546875,0.1495022138770669,-0.0812465333724394,-0.9320388578057288,0.045140866190195,-0.0873167663812637,0.5717811584472656
1.495463623046875,-0.1005421489402651,-0.5729436435630545,-0.8625579098224639,-0.0189449097961187,-0.0064685274846851,0.4961665272712707
1.50549072265625,-0.3653669149233028,-0.9757608759585767,-0.660987874251604,-0.106068380177021,0.1141469106078147,0.3748369812965393
1.515518798828125,-0.623789339583367,-1.2677967068091034,-0.2919938183397054,-0.1991618424654007,0.2238150835037231,0.2262363284826278
1.525545654296875,-0.6852456788040697,-1.4649141468852758,0.2036538561075925,-0.2696578800678253,0.2956112921237945,0.0807934999465942
1.53557373046875,-0.6649937488920986,-1.41545570397228,0.6548878038108349,-0.3063820600509643,0.3639943301677704,-0.0306107867509126
1.5456005859375,-0.5932414219107478,-1.1405280251152812,0.8872200573921203,-0.3110810220241546,0.401672899723053,-0.1182576268911361
1.55562890625,-0.7102702299453317,-0.9473346266150474,1.3339543555885554,-0.3119092583656311,0.4068173170089721,-0.1792852878570556
1.565655517578125,-0.5778593630574643,-0.6502395396135747,1.7541069363296031,-0.3116919100284576,0.3928687274456024,-0.2012359797954559
1.57568359375,-0.55220604902599,-0.4719667199347168,2.105020561149716,-0.2928939759731293,0.3022615909576416,-0.2012138813734054
1.585710693359375,-0.5634252525787801,-0.3840519608447328,2.3566508049190045,-0.2582950890064239,0.1975227147340774,-0.1962513774633407
1.595738525390625,-0.6360946944050491,-0.2697528700349852,2.437410102763772,-0.218271791934967,0.0692728757858276,-0.1972143799066543
1.605765625,-0.6573834930840879,-0.1399182833759114,2.4620798491179943,-0.1886234581470489,-0.0599769875407218,-0.1869964897632599
1.615793701171875,-0.5384942614724859,0.0457377053568139,2.3889380405396223,-0.155139535665512,-0.1708672791719436,-0.1343327462673187
1.625820556640625,-0.3247658418025821,0.1753136045470833,2.0723639076948164,-0.0987583473324775,-0.2515203356742859,-0.0518722347915172
1.6358486328125,-0.1444156313277781,0.2762722983989864,1.5815467221438884,-0.0247909091413021,-0.2766925096511841,0.0445014387369155
1.645875732421875,-0.0540331304173916,0.3751127945205196,1.0705296291291713,0.055664274841547,-0.262294203042984,0.1337015330791473
1.655903564453125,0.0116942371860146,0.3727588883381337,0.6622960342407226,0.1275408565998077,-0.2130185514688491,0.202442780137062
1.6659306640625,0.0035194062978029,0.2591100781306624,0.3487099772959947,0.1915998607873916,-0.1397657394409179,0.2458278536796569
1.67595849609375,-0.032031543826498,0.0967886781582608,0.1246872868984937,0.2443152666091919,-0.0699856057763099,0.2595979869365692
1.685985595703125,-0.0747487323183566,-0.0074898077661171,0.0332972894459962,0.2666025757789612,-0.0267192050814628,0.2397420555353164
1.6960126953125,-0.1722520980846136,-0.1173467879425734,0.1091261451512575,0.2480723112821579,-0.0087924031540751,0.1897798329591751
1.70604052734375,-0.2873833288695663,-0.2513371060416102,0.2486830844014882,0.1926921606063842,-0.0060099698603153,0.1060709655284881
1.716067626953125,-0.4247729705506936,-0.4107828409798443,0.3438409099549055,0.1095594689249992,0.0191433206200599,0.0037041141185909
1.726095703125,-0.5610965904355049,-0.5430542993970215,0.4287812928766012,0.0190302692353725,0.0595850571990013,-0.1047095954418182
1.73612255859375,-0.6254734932780266,-0.5696918752254918,0.5152665671527386,-0.058191280812025,0.1207533404231071,-0.213084802031517
1.746150634765625,-0.6536291820518673,-0.4828062399875372,0.5933809034466743,-0.107298195362091,0.1856517940759658,-0.3083177804946899
1.756177734375,-0.6554224952094256,-0.2740702217774465,0.6990899336308241,-0.1177332624793052,0.2221568077802658,-0.3756747245788574
1.766205322265625,-0.5658907659094781,0.0459312186349183,0.877849002456665,-0.1048372015357017,0.2239722162485122,-0.4074207544326782
1.776232666015625,-0.4670429997969418,0.4083996721703559,1.132433419856429,-0.0911506861448288,0.1991749852895736,-0.4176893830299377
1.786260498046875,-0.4270070497456937,0.6595432284012437,1.4000865776658058,-0.0839830562472343,0.1689718067646026,-0.4090338349342346
1.796287841796875,-0.4033034815425053,0.8671941913209855,1.6106044743239878,-0.0853668302297592,0.1366556882858276,-0.3808799684047699
1.8063154296875,-0.3875554389210418,1.0252226798724382,1.6866005032896991,-0.079972818493843,0.0854213684797287,-0.3353883326053619
1.816342529296875,-0.3041446767194196,1.161846634410694,1.6483341932594775,-0.0674777999520301,0.0579703077673912,-0.2792739272117615
1.82637060546875,-0.3537970713019371,1.2427613420128822,1.5448305641651152,-0.0462297648191452,0.0443221740424633,-0.2285929173231125
1.8363974609375,-0.4254122913675383,1.247054947553575,1.3809534226506948,-0.0179547164589166,0.0362631827592849,-0.1767749935388565
1.846425537109375,-0.4434747118785977,1.2249456993371248,1.2490490439802409,0.0067723123356699,0.0353343859314918,-0.1300542652606964
1.85645263671875,-0.5051861949041485,1.228888007222116,1.132642094171047,0.0196947678923606,0.0411414094269275,-0.0990534797310829
1.866480712890625,-0.570713656021282,1.186869358921051,1.0107458992958067,0.018376363441348,0.0474154762923717,-0.0780879706144332
1.876507568359375,-0.5982401800461113,1.154910551537201,0.9016992491215466,0.0036671923007816,0.0576318949460983,-0.0602218881249427
1.88653564453125,-0.6058928867563605,1.1428184741400182,0.7825836248755454,-0.0129431560635566,0.069227710366249,-0.0470714122056961
1.8965625,-0.6023494054632261,1.1141535937350242,0.6047773267298936,-0.0203265026211738,0.0770867019891738,-0.0352754741907119
1.9065908203125,-0.6046214420484378,1.079972580257058,0.4315998574286699,-0.0234071370214223,0.083256296813488,-0.0336937382817268
1.916617431640625,-0.6373746512129902,1.0820676528401671,0.3009071926355361,-0.0307601243257522,0.0901770517230033,-0.0331861414015293
1.92664453125,-0.5752930927660316,1.0980465085428208,0.1879921765953302,-0.033708456903696,0.0816612169146537,-0.0297942850738763
1.936672607421875,-0.5295352214040234,1.063927308254689,0.0412111313104629,-0.0401389226317405,0.0749199539422988,-0.0271545611321926
1.946699462890625,-0.5086050999695435,1.0704939002286642,-0.1005266591101884,-0.039611667394638,0.0589922778308391,-0.0255998838692903
1.956727783203125,-0.4840703416392207,1.0334998751565814,-0.2910989153265952,-0.0423882789909839,0.0321465469896793,-0.0327147878706455
1.966754638671875,-0.5192864337859675,1.006327790592611,-0.4463093507826328,-0.0586978681385517,0.0098959114402532,-0.0446204803884029
1.976782470703125,-0.5199406233783811,0.9247885213512926,-0.5847463460922241,-0.07820525765419,-0.0077842813916504,-0.0539404787123203
1.9868095703125,-0.5226222271451726,0.7711950195726007,-0.8190840942770242,-0.1037474274635315,-0.0097421258687973,-0.0656078457832336
1.996837646484375,-0.6001603344537317,0.6524464020080865,-1.0583248120725155,-0.129897266626358,0.0111746080219745,-0.0817031934857368
2.006864501953125,-0.6933519745007157,0.5420152752054855,-1.2801415168583392,-0.1535516232252121,0.0409349389374256,-0.0951240807771682
2.016892578125,-0.6823510533411056,0.4387807088434696,-1.4913824670940636,-0.1775195300579071,0.1016406342387199,-0.1025391221046447
2.02691943359375,-0.6497320284828543,0.381872790174745,-1.62436411960721,-0.1979754269123077,0.1856459081172943,-0.1039686277508735
2.03694775390625,-0.6964531553864479,0.3094167353708297,-1.6554618531823158,-0.2185781747102737,0.2732521891593933,-0.1114904582500457
2.046974609375,-0.7405912800595164,0.2476809216216206,-1.551371364110708,-0.2375418394804,0.3514328300952911,-0.1267838478088379
2.05700244140625,-0.7805356063045561,0.2075345334658399,-1.325050918164849,-0.2519937455654144,0.4044119119644165,-0.1579489707946777
2.06702978515625,-0.8260882739506661,0.2138982598114758,-1.0594605381041764,-0.2540903389453888,0.4127652943134308,-0.1980142742395401
2.0770576171875,-0.8276355764579028,0.2765876479584723,-0.8207096496522426,-0.2440315783023834,0.3649391829967499,-0.2386826127767563
2.087084716796875,-0.7240140200722962,0.3966066507849842,-0.6467173568367958,-0.2306904345750808,0.2665380239486694,-0.2623369395732879
2.097112548828125,-0.6293866481337695,0.4542914355777204,-0.6063800857514142,-0.2168958038091659,0.1719726175069809,-0.2807492315769195
2.1071396484375,-0.5592048949373886,0.4366138861984014,-0.7635141827464104,-0.198917806148529,0.1274780929088592,-0.2744921147823334
2.117167724609375,-0.4324504829086363,0.4823468788474798,-0.9981751715362072,-0.1636485010385513,0.0817595943808555,-0.2372262179851532
2.127194580078125,-0.2403223390197381,0.4901978846088051,-1.2906722632229328,-0.0935231074690818,0.0099378749728202,-0.1808269917964935
2.13722265625,-0.1296673403333872,0.4050621983107179,-1.6034925964921711,-0.0093299355357885,-0.0883282423019409,-0.1234899386763572
2.147249755859375,0.022880063625588,0.4067597229436039,-1.7855840246111154,0.0374634265899658,-0.1071201115846633,-0.0652943700551986
2.15727734375,0.0465199965746142,0.3547592673975974,-1.856826137048006,0.0308984667062759,-0.1279271245002746,-0.0156415961682796
2.1673046875,0.1175782768771983,0.0666740008037537,-1.7167501423597336,0.009423591196537,0.0184331685304641,0.0314447432756423
2.177331787109375,0.0486176903730724,-0.3778917942471802,-1.8182430161535736,-0.0085519477725029,0.186666652560234,0.0658109709620475
2.187359375,-0.0123813015681458,-0.7225131139900535,-1.8138889125972983,0.0022124794777482,0.3284607529640198,0.0632383748888969
2.19738671875,-0.1567612816272303,-1.0077576042000205,-1.5370546694666147,0.030441453680396,0.4395350813865661,0.0113674541935324
2.20741455078125,-0.3155240392699837,-1.2013784343320877,-0.9795540576964616,0.0480377897620201,0.4750147461891174,-0.0755736902356147
2.217441650390625,-0.40533327033706,-1.3013599537149072,-0.2174228537410497,0.0291237533092498,0.4625668823719024,-0.1903876215219497
2.227469482421875,-0.4760831422775983,-1.382627785603702,0.5897463463366032,-0.0296929348260164,0.4264729619026184,-0.3094925284385681
2.23749658203125,-0.4862086688421666,-1.4571052267000075,1.2262497676730155,-0.0891565307974815,0.3755261600017547,-0.4151798188686371
2.247524658203125,-0.437195631609112,-1.4332948736540971,1.6629256131917238,-0.1301890164613723,0.3077282011508941,-0.4898648262023926
2.257551513671875,-0.2993816453023813,-1.2852049377277492,1.8961434174358844,-0.1378693133592605,0.2425944805145263,-0.5306210517883301
2.267579345703125,-0.1297352544704452,-1.0580660880710928,2.0145336500167845,-0.1047282963991165,0.1672312766313552,-0.5494018197059631
2.277606689453125,-0.0148074738357216,-0.8607030026707798,2.0879215423107147,-0.0386182516813278,0.0686013773083686,-0.5461008548736572
2.287634521484375,0.0958770432060584,-0.6931395738590508,2.1420780799120664,0.0439364351332187,-0.0585097409784793,-0.523827075958252
2.297661376953125,0.1777231133742257,-0.5650968390528113,2.0848206536859277,0.1336058676242828,-0.1940401345491409,-0.4795937836170196
2.307689697265625,0.2822696573839522,-0.4705795764252543,1.8514315845280884,0.2158511877059936,-0.3256321549415588,-0.4194326102733612
2.317716552734375,0.3753308942506089,-0.3971017408255487,1.5840058057337998,0.2621973752975464,-0.4202185869216919,-0.3327864110469818
2.327744873046875,0.5093797376038506,-0.3524359390165656,1.2876999694138764,0.2778384387493133,-0.4690825045108795,-0.2259566634893417
2.337771484375,0.6550009818617254,-0.4018596759423613,0.9139864837646484,0.2776717245578766,-0.4579739272594452,-0.1142088249325752
2.347799560546875,0.6816599292717873,-0.5500970575153827,0.4549713806658983,0.2860690057277679,-0.3989163935184479,-0.0151529740542173
2.35782666015625,0.6259587195117026,-0.7539168447744101,-0.0137976392060518,0.3224973082542419,-0.308576375246048,0.0602437779307365
2.3678544921875,0.5701118907358497,-0.923177067566663,-0.390254286083579,0.3600416779518127,-0.1954542398452758,0.0973749682307243
2.377881591796875,0.4575539079723879,-1.017449707783386,-0.4990940155088901,0.3631333410739898,-0.0749773532152175,0.0952550917863845
2.38790966796875,0.2815700760135426,-1.1110768897034229,-0.3536556170046329,0.330085426568985,0.0301868356764316,0.0562243647873401
2.3979365234375,0.1505594404455739,-1.2279101021006702,-0.078885905188322,0.2644363641738891,0.1081575378775596,-0.0057069133035838
2.407963623046875,0.0495477651642635,-1.23756684210971,0.2576759536743164,0.1938477903604507,0.1493012458086013,-0.0847520679235458
2.41799169921875,-0.0705079392437124,-1.1452907094724476,0.57856210449934,0.1243422254920005,0.1566262692213058,-0.1715583354234695
2.428018310546875,-0.1277297233343124,-0.9296452406674623,0.8759270944833755,0.0687783733010292,0.1357239931821823,-0.2425382733345031
2.438046630859375,-0.0651918633540626,-0.6084495489692315,1.1072399418890475,0.0347450450062751,0.101185992360115,-0.2848934531211853
2.448073486328125,0.0124066689048428,-0.2480672905907034,1.2572013707756995,0.0110814236104488,0.0602100603282451,-0.2971814274787903
2.458101806640625,0.0663983074012212,0.1232958690727129,1.3716332211196425,-0.0100696682929992,0.0207737069576978,-0.2776966691017151
2.46812841796875,0.1699134808029048,0.4069083376340567,1.4343997661560772,-0.0180995278060436,-0.0079327719286084,-0.2296973019838333
2.478156494140625,0.2304129942228086,0.5531384345052763,1.3293255267441273,0.0016203802078962,-0.0241455659270286,-0.1727309674024582
2.48818359375,0.2207418786285445,0.6650372957728803,1.2124082893252373,0.0316716916859149,-0.0254854019731283,-0.1143369078636169
2.498211669921875,0.1259995111413765,0.7816315848477184,1.1747791081547736,0.0604319684207439,-0.0270012728869915,-0.0684258788824081
2.508238525390625,0.0956101998302619,0.8617191939759999,1.2228443431437015,0.0754609853029251,-0.0350440181791782,-0.026183346286416
2.5182666015625,0.0495066385694313,0.8527603000380098,1.300720779028535,0.0749078467488288,-0.0433187261223793,0.0069367890246212
2.528293701171875,-0.0237068378725089,0.8547774850793183,1.3468483239531517,0.0609724558889865,-0.0676253587007522,0.0329625196754932
2.53832177734375,-0.0079854092633351,0.8664372354738413,1.362545074778795,0.0479938089847564,-0.0831712931394577,0.0582878477871418
2.548348388671875,0.0748999545244267,0.9209276812046766,1.181733165076375,0.04856738448143,-0.0758465752005577,0.0810208767652511
2.558376220703125,-0.0033239613575162,0.94710607855618,0.9491653491735458,0.054722212255001,-0.109859399497509,0.0942594483494758
2.568403564453125,-0.053032634438225,0.9123376205790787,0.947799906039238,0.0484209544956684,-0.1603243350982666,0.1058184430003166
2.57843115234375,0.002878450646298,0.9244298441067338,0.9079150548964738,0.0299958754330873,-0.2093216925859451,0.1046839356422424
2.588458251953125,-0.0417689889555098,0.8691772548969835,0.7710966006994247,0.0097487159073352,-0.2187304943799972,0.0966377854347229
2.598486328125,-0.0435232259114272,0.8435127253517508,0.394155969697237,0.0001634669024497,-0.2195707261562347,0.0924020260572433
2.60851318359375,-0.1158171854888089,0.7591433472510427,0.1693225474387407,-0.0041117249056696,-0.2238672822713852,0.0951685681939125
2.61854052734375,-0.0706156830676598,0.7545286199972033,0.0181751236379146,-0.0182792097330093,-0.2235325276851654,0.1001481488347053
2.628568359375,-0.0680333429908379,0.7461695185832679,-0.1399549986571073,-0.0308693554252386,-0.2134958207607269,0.1028392389416694
2.63859521484375,-0.0629807175100781,0.7461329859651624,-0.3240408154636621,-0.0325109250843524,-0.2023784667253494,0.1157566383481025
2.648623291015625,0.0248261698917951,0.7895350514486431,-0.5222025038957595,-0.0268318355083465,-0.174118310213089,0.1455487608909607
2.658650390625,0.1695956287590786,0.8864340215809643,-0.758026106724143,-0.0066874204203486,-0.1586874276399612,0.1814548224210739
2.668678466796875,0.1959830292187631,0.8351884029902518,-0.9105787211477756,0.0144177703186869,-0.1706279516220092,0.2174379676580429
2.678705322265625,0.2658614520870149,0.7432759890988468,-0.9767489371478556,0.0311653241515159,-0.1617708057165146,0.2585268020629883
2.688733154296875,0.3760106566756963,0.6653379592198878,-1.1690244901508091,0.0433818027377128,-0.1730690747499466,0.2839407324790954
2.698760498046875,0.3830683201022446,0.488892318435572,-1.331795131728053,0.0566675141453743,-0.160931184887886,0.3055898249149322
2.708788330078125,0.3414738885626197,0.2750126537267118,-1.5081652595907449,0.0645797848701477,-0.1591314971446991,0.311157077550888
2.718815185546875,0.3517058711763471,0.0911698884284123,-1.6900678871393202,0.0620588399469852,-0.1593112647533416,0.2995321154594421
2.72884326171875,0.2616590136948041,-0.0263777923811227,-1.778661531871557,0.0514813102781772,-0.1627311557531356,0.2768256664276123
2.738870361328125,0.1859163019030354,-0.0993106709165498,-1.853756228083372,0.0301579125225543,-0.1740868687629699,0.2537288665771484
2.748898681640625,0.2037838574291206,-0.0956834568627178,-1.966193689739704,0.0118426941335201,-0.1543788611888885,0.2652209103107452
2.75892529296875,0.3358602864645421,0.002178220821917,-2.072258109232783,0.0037357655819505,-0.1594188958406448,0.2930152714252472
2.768953369140625,0.4569016546087339,0.0610722718065604,-2.1059213093817237,0.0168820321559906,-0.164094865322113,0.3409466743469238
2.77898046875,0.6500896828141063,0.2188174499046057,-2.180400504043698,0.0404741764068603,-0.1624551564455032,0.3982925415039062
2.78900830078125,0.7268797117017209,0.3627814284747466,-2.247877126467228,0.0651755481958389,-0.1359229683876037,0.4583067893981933
2.79903515625,0.7558966204147786,0.3817479216860607,-2.282230646967888,0.090252935886383,-0.0865114703774452,0.5284355878829956
2.8090634765625,0.7540272463463247,0.2708028174793347,-2.2585458199977877,0.1002480685710907,-0.0027663600631058,0.5963018536567688
2.81909033203125,0.621757395364344,0.0185649266730993,-2.137280324241519,0.0921344757080078,0.0927630960941314,0.6463325619697571
2.8291171875,0.3914278964402153,-0.3452249116592109,-1.9324451493948696,0.0640930235385894,0.1757823079824447,0.6602663397789001
2.8391455078125,0.1072002733889035,-0.7590326534181833,-1.5511130054354667,0.0080862129107117,0.2602274417877197,0.6251059174537659
2.849172119140625,-0.2154016866443678,-1.1703099999167024,-1.0883026017069817,-0.0782805755734443,0.3508490920066833,0.5407767295837402
2.859200439453125,-0.6061722151543945,-1.5332377415269611,-0.5667407338023185,-0.1704509854316711,0.4543832242488861,0.4195717871189117
2.869227294921875,-0.978516896668449,-1.7993717269450424,-0.0660340223997831,-0.2504146993160248,0.5368916988372803,0.2858396470546722
2.87925537109375,-1.1367145312417295,-1.8939859471410512,0.4989548992991447,-0.3040491640567779,0.5661638379096985,0.1608330160379409
2.8892822265625,-1.1936785274792463,-1.7878866024650633,1.0967290692687035,-0.3414276838302612,0.5486831068992615,0.0568392351269722
2.899310302734375,-1.23451709915027,-1.542029535269737,1.67792736749053,-0.3613968789577484,0.4840375185012817,-0.01803420484066
2.90933740234375,-1.1576611654195934,-1.2076084878280755,2.0459329968869686,-0.3563843965530395,0.4378216862678528,-0.0453286170959472
2.919365478515625,-1.107616520116478,-0.891024271980673,2.115097134006023,-0.3220685124397278,0.3337288498878479,-0.0473997555673122
2.929392333984375,-1.219201675792411,-0.7084766245268285,2.3784669154077767,-0.2710846662521362,0.1842958629131317,-0.0217275116592645
2.93942041015625,-1.0750323473758996,-0.4376060390409081,2.5275848792076108,-0.2127606570720672,0.0119770970195531,0.0331077724695205
2.949447509765625,-0.9029756257329136,-0.1642662869624793,2.4550001199901104,-0.1470027714967727,-0.1387039870023727,0.1038955077528953
2.959475341796875,-0.7864585666127503,0.0637397739827632,2.180651848456264,-0.0670482814311981,-0.2446946054697036,0.1943660229444503
2.96950244140625,-0.5914543192982673,0.2568555772021412,1.7790449782311917,0.0165071599185466,-0.2989586889743805,0.3085215091705322
2.9795302734375,-0.3462353308107703,0.3848933435723185,1.3842138857513666,0.1021943688392639,-0.3149421811103821,0.4259056448936462
2.9895576171875,-0.2017249156053178,0.4281326927747577,1.0611778634160756,0.1759839653968811,-0.3035861849784851,0.5191149711608887
2.999585205078125,-0.1079896884672343,0.412477114209719,0.8111708369344472,0.2363562285900116,-0.2462110370397567,0.588055431842804
3.0096123046875,-0.0637840286830207,0.3294470949539914,0.5126566769152879,0.2940333783626556,-0.1632908284664154,0.6193344593048096
3.019640380859375,-0.1119792512937448,0.1625325950376689,0.344638197812438,0.3149245679378509,-0.0712690204381942,0.60495924949646
3.029667236328125,-0.1991383149119094,0.0187004261536523,0.4367921653747558,0.2957963347434997,-0.0041659623384475,0.5546154379844666
3.0396943359375,-0.2286934221548959,-0.1339420950431376,0.649611324712634,0.2486027032136917,0.0329957865178585,0.4677527248859405
3.049722412109375,-0.2790806886169128,-0.2427151889730244,0.8465455171763896,0.1860820800065994,0.0419658906757831,0.3510189056396484
3.059749267578125,-0.3314628186905756,-0.3193164903555065,1.0043705190449952,0.1143820583820343,0.0427922680974006,0.2235043495893478
3.06977734375,-0.3428680463347583,-0.2775890435533598,1.1505039140760898,0.0553687512874603,0.0472694188356399,0.0986017733812332
3.079804443359375,-0.3045033539639786,-0.2212063543351367,1.1964596095651387,0.0188416317105293,0.0450888201594352,-0.0122459102421998
3.089832275390625,-0.2426936712609604,-0.0509107606131583,1.238992344868183,-0.0027496942784637,0.0365817360579967,-0.0992771461606025
3.099859375,-0.19157219050657,0.2353227771667763,1.32409814748466,-0.0130787640810012,0.0199705362319946,-0.1633498817682266
3.10988720703125,-0.1409991374151781,0.5296253108402714,1.3940525581985712,-0.0197052042931318,0.0011415285989642,-0.1974978893995285
3.119914306640625,-0.086520701782545,0.8018009510427713,1.4324036239027975,-0.0240181926637887,-0.0180755741894245,-0.2014699876308441
3.1299423828125,-0.0329789967274642,1.0066679823324085,1.3812749096900223,-0.0164685063064098,-0.0327917821705341,-0.1821677535772323
3.13996923828125,-0.0315041703679715,1.1448474957495929,1.271984513887763,-0.0007097837515175,-0.0297943949699401,-0.1520889401435852
3.149997314453125,-0.094964540604176,1.2166186004966495,1.1202771181166171,0.0152179710566997,-0.0089927865192294,-0.1236796304583549
3.1600244140625,-0.2126407340310513,1.231731267824024,0.9589134207278488,0.028543097898364,0.0122933275997638,-0.0986589640378952
3.17005224609375,-0.3173976145895197,1.1968456862732768,0.8483283089399337,0.0341780260205268,0.0278297886252403,-0.0779404193162918
3.180079345703125,-0.4225999738931655,1.1559300307780505,0.7751455838292837,0.0251312665641307,0.0332269482314586,-0.0676132142543792
3.190107421875,-0.5438281333137304,1.1060627148032187,0.7460112592816353,-0.0066691706888377,0.0311755202710628,-0.068607248365879
3.200134521484375,-0.6380545232359319,1.052956270776689,0.6998001277267932,-0.050189483910799,0.0308287739753723,-0.0785906389355659
3.210162353515625,-0.711407417281717,1.0166138414811343,0.6071311963796615,-0.1031117737293243,0.0383536517620086,-0.0888165682554245
3.220189208984375,-0.7349428258437662,1.011253702687472,0.4652992979347705,-0.1455103605985641,0.0587156489491462,-0.0991823896765708
3.230217529296875,-0.7632321509346366,0.989102222764492,0.3126502373993396,-0.1771690547466278,0.0957259014248848,-0.1073976010084152
3.240244140625,-0.7994722888994962,1.0027852956801653,0.1261895081549882,-0.1890137195587158,0.1340581029653549,-0.1106506511569023
3.250271240234375,-0.7929890643600374,1.0317424370300023,0.0309089330047368,-0.1977705657482147,0.1504780948162078,-0.1084025353193283
3.26029931640625,-0.7559308149453252,1.0753247544512152,0.0104880762666463,-0.2093920707702636,0.1461334079504013,-0.1090821772813797
3.270326171875,-0.7773510579843074,1.0803548575729132,0.0065390463799238,-0.2260563820600509,0.1267198771238327,-0.1097586825489997
3.2803544921875,-0.8134045873358845,1.031984209896624,-0.047542672419548,-0.2452362030744552,0.0954519808292388,-0.1122508645057678
3.29038134765625,-0.8530439392849802,0.9871069572940468,-0.1472714591503143,-0.2644312977790832,0.0488545708358287,-0.1151304990053176
3.300409423828125,-0.842673424983397,0.9541138384263962,-0.3254085966855287,-0.2793473899364471,-0.0014205854386091,-0.1078600659966468
3.310436279296875,-0.8092099121250211,0.9170038588244468,-0.6004921967566013,-0.2903717160224914,-0.0383710265159606,-0.0855732038617134
3.32046435546875,-0.7650168423943221,0.8061398570299149,-0.9373404713451862,-0.2923115491867065,-0.0322625339031219,-0.0477952025830745
3.3304912109375,-0.7209580665677785,0.6481902789335697,-1.302120708954334,-0.2915786802768707,0.0150156822055578,-0.0085199158638715
3.34051953125,-0.705388156992197,0.4774142447508871,-1.5491098489195108,-0.2914745509624481,0.1004687994718551,0.0212832540273666
3.350546142578125,-0.7220861938148736,0.3028947131909429,-1.681323439669609,-0.2884234488010406,0.2026960104703903,0.0235280748456716
3.360574462890625,-0.7860765084926038,0.1306560591097921,-1.6264111152648926,-0.2942136824131012,0.3158033788204193,0.0028238624799996
3.3706015625,-0.8123274596236646,0.1181591272387653,-1.4579559983104466,-0.2944598495960235,0.4006604254245758,-0.0084406221285462
3.380629150390625,-0.6917667511358857,0.0970421779952943,-1.286796298572421,-0.2542815506458282,0.4123128056526184,-0.010078732855618
3.390656494140625,-0.4081221704032272,0.1782878711175173,-1.1017454361259935,-0.1927564144134521,0.3512095212936401,-0.002845587208867
3.400684326171875,-0.1881615600791759,0.3261261703703552,-0.9412953464508056,-0.1361482590436935,0.282780110836029,-0.0111330784857273
3.410711669921875,-0.1129682805974036,0.3658101651787758,-0.8311784366965294,-0.0865522623062133,0.2044716030359268,-0.0174157936125993
3.4207392578125,0.0084306870791129,0.3099677933823317,-0.8171510803878307,-0.0360736399888992,0.0591234527528286,0.0105399405583739
3.430766357421875,0.3049968548356555,0.2695681245852261,-0.9566840542405844,0.0077547887340188,-0.1010297685861587,0.0626545622944831
3.44079443359375,0.4353195355389267,0.2351394199565052,-1.279888418880105,0.0261098276823759,-0.2146684527397155,0.0991899445652961
3.4508212890625,0.2852326171090826,0.001959536569938,-1.736926668947935,0.0307231228798627,-0.2264964133501052,0.1054019182920456
3.460848388671875,0.1176617904421873,-0.4069106757216155,-2.225260220989585,0.0159620195627212,-0.1553687155246734,0.0902450680732727
3.47087646484375,-0.0887588269650004,-0.8374806786458939,-2.3482038790911437,-0.0207700990140438,-0.0435098297894001,0.0518817082047462
3.4809033203125,-0.0439286831734702,-1.1205582731455563,-2.130520913109183,-0.0680627822875976,-0.0397025719285011,-0.0056481612846255
3.490931396484375,-0.0215870509732514,-1.206387933057174,-1.8175059340506792,-0.0920911505818367,0.2307848483324051,-0.1314247250556945
3.50095849609375,-0.8261410270512104,-1.5411305406033993,-1.8269769422292708,-0.1285916268825531,0.4072816073894501,-0.2114306092262268
3.510986328125,-0.4400650495655834,-1.4132149393081663,-1.1229045440107583,-0.1527809500694275,0.4470141232013702,-0.220206156373024
3.521013427734375,0.054418659136258,-1.1799920935627073,-0.2948316721141338,-0.1647790223360061,0.4838549792766571,-0.2415836155414581
3.531041259765625,-0.1117863773364573,-0.8697475290656089,0.390194664850831,-0.1623197048902511,0.4455472230911255,-0.2855501174926758
3.541068359375,-0.1809112053584307,-0.6336596492778509,0.967680664551258,-0.1465553939342498,0.3385667204856872,-0.3071326315402984
3.551096923828125,0.1012440501319244,-0.5002080411653965,1.471739608991146,-0.1326451599597931,0.2213495671749115,-0.2842353284358978
3.561123779296875,0.2936422431338578,-0.4240614247478544,1.787165740844607,-0.1029359996318817,0.1070983558893203,-0.2442037612199783
3.57115185546875,0.3005034706728532,-0.4972516755778342,1.852343438676,-0.0518993251025676,0.0252285581082105,-0.206641748547554
3.581178955078125,0.2590812904275953,-0.5182529625523835,1.741307660511136,0.0246106293052434,-0.0292354840785264,-0.170755386352539
3.59120703125,0.2930707268562167,-0.5179696155663579,1.6141694733291865,0.1110391616821289,-0.084136389195919,-0.1451401114463806
3.60123388671875,0.3312261603904888,-0.534282744724676,1.5319880337268112,0.1910679340362548,-0.1444596499204635,-0.1218206882476806
3.61126171875,0.3989400256359949,-0.5836935491036623,1.4308406123697757,0.2497396767139434,-0.2074042558670044,-0.1011738553643226
3.6212890625,0.4701607299586757,-0.6215433142222464,1.3196604572981596,0.281264066696167,-0.2628408968448639,-0.0725134536623954
3.63131591796875,0.5372705648964271,-0.7005884285602718,1.1674304989576338,0.2959695756435394,-0.3051243424415588,-0.0463303588330745
3.64134375,0.5531744556667283,-0.8046861510902643,0.8816179996013641,0.3043249845504761,-0.3222468793392181,-0.0340758226811885
3.65137109375,0.4644317213200032,-0.9473852608237416,0.5560112499952315,0.3054412305355072,-0.2990379333496094,-0.0435105003416538
3.661398681640625,0.3287557882215827,-1.0557717665888369,0.277815070861578,0.2997921109199524,-0.2396038919687271,-0.071629486978054
3.67142578125,0.2204419093012809,-1.1060523395396769,0.1213075813323259,0.2875566780567169,-0.1650840491056442,-0.1110874414443969
3.681453857421875,0.1660309585474431,-1.1250453554317354,0.0460661701261997,0.2695891261100769,-0.0757997035980224,-0.1551723480224609
3.691480712890625,0.0713005098269321,-1.0765838876668363,0.1498930398255586,0.2382751107215881,0.0120764654129743,-0.2044773548841476
3.7015087890625,-0.0087366294894367,-1.0085914246756582,0.3778752815037965,0.2061134427785873,0.083747461438179,-0.2519122660160064
3.711535888671875,-0.0371347669833339,-0.8896978456825018,0.6672516108214854,0.1818758249282837,0.1244751438498497,-0.2893696129322052
3.721563720703125,-0.0386671276497654,-0.6893787600208073,0.980827146372199,0.1712553948163986,0.1049115657806396,-0.3152486383914947
3.7315908203125,-0.0243621234434656,-0.4018606988556683,1.2565583966970444,0.1661409139633178,0.050419557839632,-0.3318597972393036
3.74161865234375,0.0005856726671569,-0.1058463197629898,1.4874685085207222,0.1524424105882644,-0.0162569433450698,-0.3345277309417724
3.751645751953125,0.0519894957605749,0.0974228478759527,1.626542632690072,0.134509265422821,-0.0879925340414047,-0.3220459818840027
3.761674072265625,0.0892884768622927,0.2433325171537697,1.6267735188364982,0.1176735609769821,-0.1382618397474289,-0.2898640632629394
3.77170068359375,0.0715079602988436,0.3489576684467494,1.5151871210515495,0.1074288263916969,-0.1597801297903061,-0.2471939921379089
3.78172900390625,0.0705098161069676,0.4302962274841964,1.376626207101345,0.1102006435394287,-0.1707334518432617,-0.19023297727108
3.791755859375,0.1020218478376977,0.481168628848344,1.2042957100182772,0.127445101737976,-0.1777816265821457,-0.1342677921056747
3.80178369140625,0.1162494759588502,0.5467663787227124,1.0809522389441728,0.140839472413063,-0.1722281277179718,-0.0841465592384338
3.811810791015625,0.1040370053187012,0.6209653682038188,1.0207523295253516,0.1453205943107605,-0.1646108478307724,-0.0435228794813156
3.8218388671875,0.1663007884647697,0.6499101615287363,0.9751713125675916,0.1441623866558075,-0.1623109430074691,0.0019615145865827
3.831865966796875,0.2539399272174574,0.6660227996788919,0.9275602510869504,0.1326462626457214,-0.1619501858949661,0.0391271710395813
3.841892822265625,0.255964126521442,0.621318273294717,0.8940332445383071,0.1163967028260231,-0.148899108171463,0.0660650506615638
3.8519208984375,0.3048706894390285,0.601349178912118,0.6806546977519988,0.1052646711468696,-0.1281261146068573,0.0847549438476562
3.861947998046875,0.2305750529167242,0.5238333930332213,0.5442617754906416,0.098011814057827,-0.138960376381874,0.0882183760404586
3.871975830078125,0.2589845885874703,0.4896123398058116,0.5361690699279308,0.0859788134694099,-0.1143190562725067,0.0989652201533317
3.882002685546875,0.4449016028765589,0.6279615107014775,0.2153852104336023,0.0739224180579185,-0.0941501408815383,0.1145689487457275
3.892031005859375,0.3242269856855273,0.5679901128089055,0.1635509782999754,0.0551816821098327,-0.0941762775182724,0.1431654542684555
3.9020576171875,0.4914764166446402,0.5898365453707054,0.0493523521900177,0.0370958857238292,-0.0827422589063644,0.174598217010498
3.9120859375,0.4552065776612609,0.5340757509104908,-0.0419055433154106,0.0151178957894444,-0.1018577516078949,0.1803300529718399
3.92211279296875,0.3767447796365246,0.3911645693289116,-0.1400122818022966,-0.0030608412344008,-0.0812336951494216,0.1696158945560455
3.932140869140625,0.2128279088999144,0.2555690810555592,-0.2718815891593694,-0.0187646225094795,-0.0957055017352104,0.1464751213788986
3.94216796875,0.2065319140282459,0.1491741874990984,-0.3133054864376783,-0.0323813632130622,-0.0777480751276016,0.1364190280437469
3.95219580078125,0.2260999715955927,0.158637852621451,-0.4510059841662645,-0.038721527904272,-0.0958760157227516,0.1318140625953674
3.962222900390625,0.271427762710955,0.1585484207723289,-0.4642553418397903,-0.044445727020502,-0.1174473538994789,0.1376847326755523
3.9722509765625,0.4617995461855083,0.2215931251630186,-0.5613169551879167,-0.0419616214931011,-0.1248122900724411,0.1538156121969223
3.991677978515625,0.41548363908194,0.1129823821879923,-0.7586404392302036,-0.0156744290143251,-0.1648212671279907,0.1654174178838729
4.001705078125,0.4301877256084233,0.0318721885463222,-0.8530559219837188,-0.0032571756746619,-0.1769998967647552,0.1576724201440811
4.011732666015625,0.3371450290454551,-0.0629922435510903,-0.8998854776978492,-0.0045462027192115,-0.1784323006868362,0.1366690844297409
4.021760009765625,0.2325612765641883,-0.1101068267516791,-0.8785457525491714,-0.0150542370975017,-0.1703464090824127,0.1077141314744949
4.031787841796875,0.1707604347547516,-0.1293475703271105,-0.9153507578551768,-0.0282065384089946,-0.1638772040605545,0.0779674872756004
4.041814697265625,0.1210811338989995,-0.0970873323112726,-0.9609417116850614,-0.0494164861738681,-0.1451021879911422,0.0487432889640331
4.0518427734375,0.2021810436086729,0.033169315684773,-1.046091353443265,-0.0477912053465843,-0.1129887327551841,0.0503264181315898
4.061869873046875,0.4115898465137928,0.1727052852122113,-1.2373521764457225,-0.0124521208927035,-0.0801229327917099,0.0826864838600158
4.07189794921875,0.5538873166438192,0.4008085594542324,-1.4021312352359294,0.051309049129486,-0.0822558924555778,0.1329316943883896
4.0819248046875,0.684708576252684,0.6934405295670032,-1.501326353481412,0.1287702918052673,-0.1438726484775543,0.1955958753824234
4.09195263671875,0.8823864997558295,0.9130003953367472,-1.5865210034251211,0.1951998174190521,-0.2387581616640091,0.274767518043518
4.10197998046875,1.0076911148350685,1.0209569121867417,-1.6889105337977408,0.2228788435459137,-0.3044705688953399,0.3646816909313202
4.1120068359375,0.9451768640592694,0.8778682186137884,-1.809866817474365,0.196568101644516,-0.2844583392143249,0.4524567127227783
4.122034912109375,0.7492753025788813,0.5595199522359297,-1.9084107783347368,0.1321353167295456,-0.1766674220561981,0.5298638939857483
4.13206201171875,0.5326921145323663,0.1048775843286886,-1.9506945073127744,0.0640207231044769,-0.0046683498658239,0.5821861624717712
4.14208984375,0.2766888250443153,-0.435155723279342,-1.9263275432974096,0.0251241903752088,0.1860470026731491,0.588928759098053
4.152116943359375,-0.0192393370696343,-0.8902823675721884,-1.7626725201010702,0.0158176012337207,0.3276501595973968,0.5478909015655518
4.162144775390625,-0.3078680811567232,-1.191145721065998,-1.2945873908400536,-0.0082110362127423,0.3999411463737488,0.4506256282329559
4.172171875,-0.5828879318092018,-1.3749142886169254,-0.4960860658645629,-0.079547107219696,0.434666097164154,0.3048810958862304
4.18219970703125,-0.8374518909428268,-1.562423796261847,0.2992915741324424,-0.1810646653175354,0.4487888514995575,0.1423669904470443
4.192226806640625,-0.997937709518522,-1.6476527868665751,0.9511801961272954,-0.2844862639904022,0.4452526867389679,-0.005114059895277
4.2022548828125,-1.0401838098999112,-1.5368404421940445,1.4471598790079354,-0.358134925365448,0.4086275398731231,-0.1033618003129959
4.21228173828125,-0.9967963574636728,-1.2314850379779934,1.8340706998825071,-0.4019973576068878,0.275473952293396,-0.1590390354394912
4.222309814453125,-0.915168898482248,-0.8897463609993457,2.162071651148796,-0.4251138567924499,0.1554564982652664,-0.1871308535337448
4.2323369140625,-0.9207982826713472,-0.5548563808716833,2.1998861257582902,-0.4091116487979889,0.0657240226864814,-0.1687287092208862
4.242364990234375,-0.8808335712254047,-0.3259966987717896,1.98375097374022,-0.3512083888053894,-0.0175903085619211,-0.0939559414982795
4.2523916015625,-0.7516894510485231,-0.167061616769433,1.7355875292986631,-0.2601585984230041,-0.0795681923627853,0.0229507181793451
4.262419921875,-0.6006683570411055,0.0536610091693699,1.4919681580275297,-0.1586806923151016,-0.1241447180509567,0.1599778234958648
4.27244677734375,-0.4799234876254573,0.2500147713966667,1.267927931973338,-0.061781857162714,-0.1563830822706222,0.2969827950000763
4.28247509765625,-0.3779356333889067,0.320516148468852,1.116824931836128,0.0191004797816276,-0.1817909628152847,0.4206168353557586
4.292501708984375,-0.2832702309949323,0.2449600452903658,0.9542501050919294,0.0788544118404388,-0.1859179139137268,0.5191037654876709
4.30252880859375,-0.232503317565564,0.1264754124242812,0.7449509365737438,0.1393662244081497,-0.1677487641572952,0.59903484582901
4.312556884765625,-0.1854289750438183,-0.0110617114361375,0.4342126702755689,0.2111959010362625,-0.1435879915952682,0.6436900496482849
4.322583740234375,-0.2129657464680261,-0.1080157727565616,0.2378992400586605,0.2607941031455993,-0.1127824261784553,0.6487588286399841
4.33261181640625,-0.2602354106324724,-0.2493191172827035,0.2533148358553648,0.2680479288101196,-0.0930805429816246,0.6195003986358643
4.342638916015625,-0.2961170905484818,-0.4780913402948528,0.3468301548987627,0.2312406450510025,-0.0700441971421241,0.5542369484901428
4.36206787109375,-0.3782870771750807,-0.7158532907746732,0.607827946472168,0.0874602347612381,-0.0425670705735683,0.3735428154468536
4.3720947265625,-0.4094544053876772,-0.6822716314293443,0.8076946852564811,0.003963905852288,-0.0347506925463676,0.2681561112403869
4.382123046875,-0.3413168713700026,-0.68428713597022,0.8611106336236,-0.0406102202832698,-0.0248362757265567,0.1640898734331131
4.392149658203125,-0.3372559786066412,-0.7623407550528645,0.7390513571411371,-0.0332814455032348,0.0067181112244725,0.0513302125036716
4.402177734375,-0.4580198449837043,-0.7417438841607421,0.6844856542170047,0.0023415312170982,0.0368158258497715,-0.0739715099334716
4.412204833984375,-0.4685037930645048,-0.55665532005243,0.8329062834024429,0.0325588434934616,0.0471320375800132,-0.1872757971286773
4.42223291015625,-0.3897578808687627,-0.3168555070694536,1.125840597462654,0.0386420376598835,0.0288859196007251,-0.2720498144626617
4.432259765625,-0.285301042702794,-0.0556938301712274,1.384874980008602,0.0102349538356065,0.0004329672083258,-0.3247329890727997
4.442286865234375,-0.2460000741288997,0.2070181449089199,1.5145388862758875,-0.0317806750535965,-0.0109190242365002,-0.3461788892745971
4.45231494140625,-0.2515516621077433,0.4256446753513068,1.535326238238811,-0.0617719553411006,-0.0215090438723564,-0.3395112752914428
4.462341796875,-0.2625567114531993,0.6179960700694471,1.423415430805087,-0.0654135644435882,-0.0278902426362037,-0.3169348537921905
4.472369873046875,-0.3027831791078672,0.7594446682851761,1.2813462164729832,-0.0393036752939224,-0.0306682307273149,-0.2765165865421295
4.482396728515625,-0.353477520491369,0.8734633347183466,1.165975623974204,0.0014927551383152,-0.0449579581618309,-0.2330639064311981
4.492425048828125,-0.4256269570315256,0.902141293800622,1.0945371121823788,0.0353213883936405,-0.0575596429407596,-0.1849499940872192
4.50245166015625,-0.5128184798808768,0.8898070782106369,1.01532796638906,0.057509247213602,-0.0692077800631523,-0.138062372803688
4.51247998046875,-0.6323154681272805,0.8490054775491357,0.8965122018724679,0.0537496171891689,-0.0625015124678611,-0.0916555300354957
4.522507080078125,-0.7017815838675946,0.7995489343322814,0.7429261527478694,0.0376271083950996,-0.035272292792797,-0.0410339012742042
4.53253466796875,-0.6865614375777542,0.7780112023934721,0.5807528925418853,0.0287993401288986,0.0071123652160167,0.0129165994003415
4.54256201171875,-0.6432264459811151,0.8232724858775734,0.4213046733856201,0.0325386859476566,0.0595473423600196,0.0613389946520328
4.552589599609375,-0.601615319035016,0.8932960163049399,0.3232978881418705,0.0476775765419006,0.0974975079298019,0.1005510464310646
4.562616455078125,-0.5496957832381129,0.9639401628486812,0.2695569456040859,0.0669636502861976,0.1128873825073242,0.126750960946083
4.57264453125,-0.5195080041147768,0.9668658410370348,0.2741068639934063,0.0783246085047721,0.1009692400693893,0.1445085108280182
4.582671630859375,-0.5170069445466623,0.9104583096385002,0.2955518030822276,0.0722936168313026,0.0795651525259018,0.1452126502990722
4.59269970703125,-0.5640239856569096,0.8579168790835887,0.2633148363441229,0.0476312711834907,0.0683917850255966,0.1308033615350723
4.6027265625,-0.5860142106035724,0.8192146618541329,0.1915548375129699,0.0194475706666708,0.0611660964787006,0.1064285263419151
4.612753662109375,-0.5298489635283127,0.8108631592247635,0.0762222389370202,-0.0086154779419302,0.0496275648474693,0.0798852667212486
4.62278173828125,-0.4358881292071193,0.8224141154825687,-0.1154144316405057,-0.0267380233854055,0.0529631748795509,0.0573892742395401
4.63280859375,-0.3637860389400273,0.8652801743932068,-0.3371908044159412,-0.0297442954033613,0.0609163716435432,0.0330891497433185
4.642836669921875,-0.3011243973164819,0.9205680541120468,-0.5598503897666931,-0.0219697281718254,0.0663255229592323,0.0203523151576519
4.65286376953125,-0.1962003617638722,1.0039454255007207,-0.7145271567374467,-0.0149548314511775,0.0724074095487594,0.016860369592905
4.6628916015625,-0.1126843216900248,1.020368152513355,-0.8231254786223172,-0.0210561342537403,0.0781867355108261,0.0155399749055504
4.672918701171875,-0.0875292577705811,0.9614245998311788,-0.9388146355509758,-0.0328403189778327,0.0808922126889228,0.0109538901597261
4.682946533203125,-0.0876515233102254,0.8270198557123541,-1.0638836152434348,-0.0514134727418422,0.0984743982553482,-0.0050953831523656
4.6929736328125,-0.1550935493444092,0.7001680111911147,-1.2063123105376958,-0.077817715704441,0.1333436965942382,-0.0360607616603374
4.703001708984375,-0.2002830279676243,0.5985044570054858,-1.2917676572442054,-0.1016447469592094,0.1702100932598114,-0.0835409238934516
4.713028564453125,-0.1914133101504296,0.5789760921277105,-1.3283306704878806,-0.1227194964885711,0.1875482201576233,-0.1356663852930069
4.723056640625,-0.1462058574791066,0.6621867286473512,-1.3545768723785876,-0.1335151493549347,0.1889415979385376,-0.1818237602710724
4.733083740234375,-0.0386878142447676,0.7642147322311997,-1.4066653715342283,-0.1429348289966583,0.1822772175073623,-0.2086289674043655
4.743111328125,0.0180073201898019,0.7811151597581804,-1.5165765295833349,-0.1389209032058715,0.1649491041898727,-0.2160152345895767
4.753138671875,0.0263290030696429,0.7304634884726255,-1.6515923182725905,-0.128345251083374,0.1286714076995849,-0.2114630490541458
4.763166748046875,0.0369445690403226,0.6703247346565127,-1.79859314378798,-0.1114275082945823,0.0609725266695022,-0.1988412737846374
4.773193359375,0.1196996803448069,0.6984210944585502,-1.9265765496224163,-0.1045206934213638,-0.013520635664463,-0.1695653796195984
4.783220703125,0.1906842286908999,0.6938068786613643,-2.140059141305089,-0.1081239506602287,-0.0578936971724033,-0.1245227977633476
4.79324853515625,0.2221406577768735,0.574962253376469,-2.390251461225748,-0.1197815388441085,-0.0425703264772892,-0.0645007789134979
4.803275634765625,0.1693284657228738,0.3383312796879559,-2.4723072286218404,-0.1501711308956146,-0.008788127452135,-0.0121480887755751
4.813303466796875,0.1304924843122251,0.0280699832517653,-2.270702706259489,-0.1862982511520385,0.0789858400821685,0.0356309190392494
4.82333056640625,0.1596713603876531,-0.2210756040949374,-2.3117677070975304,-0.2052668780088424,0.2258711606264114,0.0463922210037708
4.833358642578125,-0.1165692642314359,-0.5777634284023195,-2.148353506919741,-0.2043266892433166,0.3767898976802826,0.0114754745736718
4.843385498046875,-0.3228128080386668,-0.9156322782102972,-1.622291989508271,-0.1963273584842682,0.494653970003128,-0.0505050718784332
4.85341357421875,-0.4387587162073701,-1.1411166386581957,-0.861806214672327,-0.1875530034303665,0.5360327959060669,-0.1335382908582687
4.863440673828125,-0.5146622080514207,-1.2167292943295092,-0.0287608150601387,-0.197954773902893,0.5034990906715393,-0.2297692149877548
4.87346875,-0.5189416754689067,-1.2119055274348705,0.7331108611762523,-0.2240030467510223,0.4232690632343292,-0.3243028223514557
4.88349560546875,-0.4593469654016196,-1.0869967067401856,1.3890028735935689,-0.2644785642623901,0.3200348317623138,-0.3943064212799072
4.893523681640625,-0.3749096000986173,-0.9637856298740952,1.776819703397155,-0.2953879535198211,0.20996855199337,-0.4404851198196411
4.903550537109375,-0.2836926576580852,-0.8670846665319055,1.9710697713434693,-0.3097626268863678,0.1175358146429061,-0.4624879062175751
4.913578857421875,-0.1904727413646876,-0.7465428819403052,1.980386465743184,-0.2803111672401428,0.0407909303903579,-0.4568184018135071
4.92360546875,-0.1046825001480057,-0.6272845612879843,1.8173685714066028,-0.2007681429386139,-0.0388197414577007,-0.4308083653450012
4.9336337890625,-0.0120280722502619,-0.471416100314632,1.7004723767757417,-0.1000032126903534,-0.1255054473876953,-0.3948038816452026
4.943660888671875,0.0707238607164472,-0.3757982560340315,1.6304098295122385,-0.0087438765913248,-0.2120294123888015,-0.349980741739273
4.9536875,0.1003889676725491,-0.3341363852813839,1.583721728095412,0.0497816130518913,-0.3008443117141723,-0.2980360090732574
4.9637158203125,0.1639276295926421,-0.3888768602505326,1.467335821074247,0.0760531648993492,-0.3811072111129761,-0.2320998609066009
4.97374267578125,0.2411890023190528,-0.4373730340026319,1.2562889321058988,0.0771019384264946,-0.435890257358551,-0.1586814373731613
4.9837705078125,0.3019098851383663,-0.4828689299602061,0.8998901538729667,0.0851052701473236,-0.4580549299716949,-0.08371452242136
4.993797607421875,0.2691477254823781,-0.5396048895955086,0.4605249231398105,0.1030792742967605,-0.4405162632465362,-0.0266677010804414
5.00382568359375,0.1971878018986433,-0.6508915007162839,0.0881178439140319,0.123146191239357,-0.3775373101234436,0.0116261588409543
5.013852294921875,0.161054156515561,-0.7977410081274807,-0.152555537033081,0.1340618580579757,-0.2943680584430694,0.0385598577558994
5.023880615234375,0.1648761259565129,-0.9400073524668812,-0.2014285812735557,0.1278665512800216,-0.1966947317123413,0.0518037602305412
5.03390771484375,0.0912887747008819,-1.0716163283873348,-0.13704057251513,0.1039730533957481,-0.0899376273155212,0.0393509231507778
5.043935791015625,-0.003608007029863,-1.153162173499912,0.0550245526075363,0.0616037584841251,-0.0056302035227417,0.0057820426300168
5.053962646484375,-0.1230223219614941,-1.213084727282077,0.3411737365722656,0.0160002931952476,0.0483918972313404,-0.0517259128391742
5.063990478515625,-0.2788519396286457,-1.3290472943246363,0.6153729550242424,-0.0225007608532905,0.0692761465907096,-0.1248208954930305
5.074017822265625,-0.3867109143882989,-1.3246022976145146,0.9267799143642188,-0.0556527264416217,0.04823549836874,-0.1915740668773651
5.084045654296875,-0.38209772150442,-1.1918494854211807,1.1743097370773554,-0.0869278237223625,-0.0031832186505198,-0.2496773153543472
5.09407275390625,-0.3477200164105743,-1.008293318511918,1.3504858036726712,-0.1220954209566116,-0.0496142916381359,-0.2850432097911834
5.1041005859375,-0.3107414081033319,-0.7710563417542725,1.446429811167717,-0.153930053114891,-0.0604786537587642,-0.2884126305580139
5.114127685546875,-0.1647835157696157,-0.5539611125323921,1.3913140731453897,-0.1581018269062042,-0.0407595559954643,-0.2412080913782119
5.124154541015625,-0.0476648831602651,-0.3932412660051137,1.2783657393574714,-0.1297295838594436,-0.0080996099859476,-0.1713320761919021
5.1341826171875,0.0483394762198906,-0.218581887583062,1.2373667894929647,-0.0688362568616867,0.0319247804582119,-0.089691549539566
5.144209716796875,0.1076560908650048,-0.087094784476608,1.2523054154276847,0.0120500717312097,0.0406729988753795,-0.0132827991619706
5.15423779296875,0.163931410718616,0.0300911868810653,1.3600772233605385,0.0834326893091201,0.0258077196776866,0.0543812327086925
5.1642646484375,0.2075256925722584,0.1030184028606861,1.558238911792636,0.1270395517349243,-0.0137013401836156,0.1009327620267868
5.174292724609375,0.2068256910767406,0.0873066736616194,1.7010259190052748,0.138967290520668,-0.0692213550209999,0.1283426731824875
5.18431982421875,0.1796741378441453,0.0097699180599302,1.7431062343657016,0.125573992729187,-0.1300221234560012,0.134018138051033
5.194347412109375,0.1846389754435978,-0.0478128676630556,1.632247566333413,0.1085356622934341,-0.1746909767389297,0.1263512670993805
5.204374755859375,0.2162281457974575,-0.0485460773084312,1.3883411948144435,0.0948968157172203,-0.2046613991260528,0.110273502767086
5.214402587890625,0.2491296225925907,0.015086948364228,1.096304706376791,0.0964587181806564,-0.2219740450382232,0.0923308432102203
5.2244296875,0.2956577111421152,0.1187832504864782,0.838808785444498,0.1001176387071609,-0.2277243435382843,0.0833581238985061
5.23445751953125,0.3786031573869288,0.2492422526542097,0.6038637190163135,0.0993633940815925,-0.219564750790596,0.0791155993938446
5.244484619140625,0.3932623818583786,0.3723188164204359,0.4107224890947342,0.0898870676755905,-0.2018744349479675,0.087378591299057
5.2545126953125,0.4020136974602937,0.4375491942871362,0.2107055281847715,0.0797936841845512,-0.1791289150714874,0.106684111058712
5.26453955078125,0.3906776991274208,0.4983296070076525,-0.0264648130774497,0.0804344415664672,-0.1617051810026168,0.1262886971235275
5.274566650390625,0.3769987178649753,0.593862184157595,-0.1834814211726188,0.0727409496903419,-0.1502579599618911,0.1447710990905761
5.2845947265625,0.3781911059873178,0.7245811524357646,-0.3234118699103593,0.060396671295166,-0.1445300281047821,0.1679680347442627
5.29462158203125,0.3796532509617507,0.6989606081627309,-0.5461684858947992,0.0572387501597404,-0.135391503572464,0.1894978731870651
5.3046494140625,0.3650875134600326,0.6933402109976857,-0.7211065351277589,0.0442936569452285,-0.1103322356939315,0.2078569084405899
5.3146767578125,0.3354906129019335,0.7418043091110885,-0.8431897770076989,0.0299618113785982,-0.0905172526836395,0.2314342856407165
5.32470458984375,0.3460447766747325,0.6713897335395217,-0.955904886561632,0.0249976776540279,-0.0834521502256393,0.2498625665903091
5.334731689453125,0.3195703189861029,0.6292950973927974,-1.0249965429663657,0.0123080983757972,-0.0788232684135437,0.26103675365448
5.344759521484375,0.2397474617412313,0.5963186373990029,-1.0544342343747617,-0.0075705349445343,-0.0794472470879554,0.2633403837680816
5.35478662109375,0.167672643073555,0.4558943407297134,-1.1170055491000412,-0.0322071686387062,-0.0880111679434776,0.2598769664764404
5.364814697265625,0.0967984141009859,0.3295238499846309,-1.1907535068780184,-0.0600542463362216,-0.0955828055739402,0.2488192468881607
5.374841552734375,0.0368305964049883,0.2642684838071465,-1.3033698322325944,-0.0890706703066825,-0.0870944038033485,0.226546511054039
5.38486962890625,-0.0120197428133338,0.2825801663715392,-1.389600839486718,-0.1129680201411247,-0.085744708776474,0.2052510678768158
5.394896728515625,0.0146923778223805,0.348154170044139,-1.5078636462956667,-0.1167422756552696,-0.102647989988327,0.2039209157228469
5.404924560546875,0.0727807201810181,0.4297345019482076,-1.6354197666287422,-0.1010474637150764,-0.1405527591705322,0.2295109629631042
5.41495166015625,0.1667537929292768,0.4757030569188296,-1.7555781779259445,-0.0748456418514251,-0.2003099769353866,0.2790993750095367
5.424979736328125,0.2915649071368388,0.5419320173688232,-1.903503132548928,-0.0506681315600872,-0.2565013766288757,0.3495844602584839
5.43500634765625,0.3135395874544978,0.4903793786555528,-2.079815392744541,-0.0347392670810222,-0.2779195010662079,0.4309289753437042
5.44503369140625,0.1511952632642351,0.2925875464491546,-2.256389518746733,-0.0308952648192644,-0.2541731595993042,0.512128472328186
5.4550615234375,-0.0684479882063344,-0.0083816055066883,-2.220230410128832,-0.0561159439384937,-0.2095693796873092,0.5798977017402649
5.465088623046875,-0.2351710572037845,-0.4060623152639717,-1.916149848154187,-0.0968884080648422,-0.1655971258878708,0.6322304606437683
5.475116455078125,-0.3414098103504627,-0.7577213516239076,-1.6400146932035684,-0.1410747319459915,-0.0905952006578445,0.6550881862640381
5.4851435546875,-0.5012219674482942,-1.1246225269097834,-1.35802262891829,-0.1736438572406768,0.022793672978878,0.6469476819038391
5.495171875,-0.5665486452963203,-1.4123258815139532,-1.205408055174351,-0.173148050904274,0.1595782190561294,0.6284376382827759
5.505198486328125,-0.6424517352815717,-1.608713692141324,-0.9876865107476712,-0.1527085453271865,0.2802468538284302,0.5933603644371033
5.5152265625,-0.7918765000082552,-1.751113891993463,-0.4685182599812745,-0.1393729895353317,0.3838010728359222,0.5324988961219788
5.525253662109375,-0.9155908502213655,-1.796256225273013,0.1543961964637041,-0.1480492949485778,0.4393519759178161,0.4571527540683746
5.53528173828125,-0.9818926567118614,-1.8003725745506585,0.8635375685095786,-0.1826401352882385,0.4521134495735168,0.3766271770000458
5.545308349609375,-1.0799703152347355,-1.7864342116996643,1.4774749377727507,-0.2156750559806823,0.4162214994430542,0.2901711165904999
5.55533642578125,-1.1754520389802754,-1.7140677714079615,1.9191198038756847,-0.2491383701562881,0.3220515847206116,0.2119435667991638
5.565363525390625,-1.249065410593152,-1.5694684540763495,2.209647641316056,-0.2742892503738403,0.2032149583101272,0.144646555185318
5.57539111328125,-1.3319241649352014,-1.420869545714557,2.252366254580021,-0.2752508521080017,0.073006547987461,0.1015370786190033
5.58541845703125,-1.31070733551383,-1.247657297360897,2.118826383662224,-0.2543234527111053,-0.0365865267813205,0.0893123745918273
5.5954462890625,-1.250890141802281,-1.0184205255769192,1.8383862249940632,-0.2059106677770614,-0.095604233443737,0.1091080084443092
5.6054736328125,-1.113549490362033,-0.7870679306827485,1.5323340706855058,-0.1266640573740005,-0.1361053138971328,0.1643129289150238
5.615500244140625,-0.8901570606920868,-0.5010140237860381,1.151992106807232,-0.0250358469784259,-0.1558370590209961,0.2502540349960327
5.6255283203125,-0.7119890896271914,-0.2183409914992749,0.8480541681736707,0.0820083171129226,-0.1605223566293716,0.3542504608631134
5.635555419921875,-0.5229932889472693,-0.0276416017718613,0.61672027797997,0.170196071267128,-0.1556379795074463,0.4584722518920898
5.645583251953125,-0.4153993583319708,0.0548782760046422,0.5210854825645684,0.227165088057518,-0.1403855234384536,0.5437754392623901
5.6556103515625,-0.3625969752859324,-0.0031161592591553,0.4476403071254491,0.2593128979206085,-0.116798534989357,0.5945888161659241
5.665638427734375,-0.3673377766048535,-0.1651222462046891,0.3627735739618539,0.2759976089000702,-0.0854483321309089,0.604973316192627
5.67566552734375,-0.4345972856789827,-0.3083530516620725,0.3232639858722687,0.2704386413097381,-0.047569990158081,0.5740348696708679
5.685693359375,-0.4890745066020637,-0.4379883163567632,0.385382880654931,0.2315740585327148,-0.0061660916544497,0.5041005611419678
5.695720458984375,-0.546917368033342,-0.5789158863730728,0.5088619608074426,0.1728885769844055,0.0342311449348926,0.4056317508220672
5.705748291015625,-0.5805719099517911,-0.6464247305657714,0.686088997760415,0.1037068516016006,0.0667110532522201,0.2945278584957123
5.715775390625,-0.5399061375644058,-0.6147758659139275,0.8666507320940494,0.0472034774720668,0.0798471495509147,0.1878361403942108
5.72580322265625,-0.4683719103131443,-0.4688880431417375,1.0285820002377033,0.0096345283091068,0.0753695741295814,0.093701384961605
5.735830322265625,-0.3506431738482788,-0.2177022552043199,1.160132743164897,-0.0058672120794653,0.051764603704214,0.02436388656497
5.7458583984375,-0.2253946546041406,0.0671559391018003,1.2516495818674565,-0.0060200775042176,0.0184436626732349,-0.0211055930703878
5.75588525390625,-0.1343509681049734,0.3720579735271632,1.3111509876281022,-0.0036335038021206,0.0037963218055665,-0.0430009365081787
5.765912353515625,-0.0850495058519765,0.6478433651920408,1.313660340100527,-0.002212441060692,-0.0050504328683018,-0.0453687533736228
5.7759404296875,-0.1022833483180962,0.8029111042417585,1.3235048577666282,-0.0017756929155439,-0.0025207372382283,-0.0355682969093322
5.78596728515625,-0.0763407324838452,0.9089876525640488,1.2811691063404085,0.0074252625927329,-0.0104931760579347,-0.0114610940217971
5.795995361328125,-0.0943249366595409,0.9748184074766932,1.1871931840479373,0.0233199689537286,-0.0007694456726312,0.0137189654633402
5.8060224609375,-0.1727975666055455,1.06528902506195,1.0883441027611491,0.0443315133452415,0.010854453779757,0.0410203598439693
5.81605029296875,-0.2160638403475284,1.1193540119223295,0.98744627225101,0.0568621940910816,0.0254385322332382,0.0671561881899833
5.826077392578125,-0.2631487407959066,1.1169636827196925,0.9292436741292476,0.0547585636377334,0.0606401935219764,0.0865455940365791
5.836105224609375,-0.3223012783199548,1.0772805646941066,0.8518348557561636,0.0465183593332767,0.0849571079015731,0.1021410077810287
5.846132568359375,-0.3858875057088211,1.0078005665589125,0.7938035225480794,0.0412572845816612,0.0920059606432914,0.1124788671731948
5.85616015625,-0.4585539883930236,0.9782171830695122,0.773531718891859,0.0305591933429241,0.0878998562693595,0.11298368871212
5.866187255859375,-0.5681115106988698,0.9036234951823948,0.7378606860518455,0.0168274026364088,0.0770876929163932,0.0971003323793411
5.87621533203125,-0.5604294682962819,0.8462708649534731,0.6544231089085341,-0.0014754422008991,0.0788314193487167,0.081199437379837
5.8862421875,-0.5297100299816578,0.8146909738846123,0.5386141249924897,-0.0202235635370016,0.0954074636101722,0.0625818148255348
5.896270263671875,-0.5274996969884261,0.7636804792240262,0.4300789314717054,-0.0348299220204353,0.1224805116653442,0.040379237383604
5.90629736328125,-0.5446675067473202,0.7213911242228,0.301069689720869,-0.0385346449911594,0.1587719470262527,0.007642060983926
5.916325439453125,-0.6018743718300015,0.6288149126604199,0.2275198848634958,-0.0381521247327327,0.1753753721714019,-0.0303144883364439
5.926352294921875,-0.6392812885519117,0.5823058210723102,0.248939104989171,-0.0440435670316219,0.1785448044538498,-0.0830485373735427
5.93637939453125,-0.6707897218197584,0.5493432434733957,0.318401348271966,-0.0593919120728969,0.160347118973732,-0.1426135748624801
5.9464072265625,-0.6661999098114669,0.5517196172159164,0.3601332885861396,-0.0809464752674102,0.121798925101757,-0.2001391798257827
5.956434326171875,-0.6639893210899085,0.5965639173969626,0.3455219949096441,-0.1051615625619888,0.0802775099873542,-0.2508674561977386
5.966462158203125,-0.6841922242283821,0.6284019479453563,0.2113204452127218,-0.1195370405912399,0.0502756722271442,-0.288422018289566
5.9764892578125,-0.6400267000917345,0.6832070856485516,0.0366524450927972,-0.1206504106521606,0.016819404438138,-0.30471932888031
5.986517333984375,-0.5259477548386902,0.809883573602885,-0.1493231309831142,-0.1132710576057434,-0.0121688367798924,-0.2975541055202484
5.996544189453125,-0.4443105416482314,0.8868289391826838,-0.3751192607939243,-0.1002258881926536,-0.0355623252689838,-0.2774375081062317
6.006572509765625,-0.3990581355903297,0.892737724835053,-0.6210755505800247,-0.0804463252425193,-0.0305843409150838,-0.2411647140979766
6.016599365234375,-0.3945239262267947,0.8578137840352952,-0.8572393451482057,-0.0607555769383907,-0.0043866313062608,-0.208496481180191
6.02662744140625,-0.4041221775142475,0.7633509550087153,-1.0034896445572377,-0.0517034903168678,0.039208248257637,-0.1834611743688583
6.036654296875,-0.4022581006754189,0.6911771877449006,-1.0466869812488555,-0.0560823380947113,0.1020884960889816,-0.1779896318912506
6.046682373046875,-0.376847509358637,0.6768219146560878,-1.0506821883648634,-0.0644603744149208,0.141978919506073,-0.1868896484375
6.056709228515625,-0.3466265951506793,0.6808910637911408,-1.070157288685441,-0.0592682659626007,0.1329362988471985,-0.2015908807516098
6.0667373046875,-0.3145329824060201,0.6790444860763848,-1.1064046601086854,-0.0461415499448776,0.0995919331908226,-0.2103180587291717
6.07676416015625,-0.229191471337527,0.7126194234199822,-1.1901707385540008,-0.033122107386589,0.0393454805016517,-0.2017830908298492
6.08679150390625,-0.0635120479078032,0.7699913428712636,-1.3623007446289062,-0.0233488399535417,-0.0336120836436748,-0.1634271740913391
6.0968193359375,0.0821726352414116,0.8193901645515114,-1.6157950287044047,-0.0156510043889284,-0.090591549873352,-0.1013189032673835
6.10684619140625,0.161662388074398,0.7216474370714276,-2.039814806267619,0.0315892100334167,-0.1222970187664032,-0.0210027620196342
6.11687451171875,0.1412667753754183,0.452176196989417,-2.4928707087010142,0.0732311606407165,-0.0968941524624824,0.0490278415381908
6.1269013671875,-0.0325395024817902,0.1564896616116166,-2.4990935287386176,0.0706867799162864,-0.0509314537048339,0.0922243222594261
6.136929443359375,-0.0887213718982879,-0.3052816813927144,-2.263317856705189,0.0455412343144416,0.0547205954790115,0.1156200915575027
6.146956298828125,-0.1522379863833542,-0.7184492986172437,-2.277606494298577,0.0217813104391098,0.2090265452861786,0.0876608937978744
6.156984375,-0.5424131519492715,-1.1215265336558222,-2.055345552876592,0.0048782033845782,0.3315277695655823,0.0132810305804014
6.16701123046875,-0.6599958675395697,-1.3898615362495184,-1.579581559550762,-0.0095430808141827,0.4335744976997375,-0.0855928137898445
6.177039306640625,-0.6885066533613949,-1.4805503996953366,-0.9223802181005476,-0.0325975492596626,0.4697833359241485,-0.2074353396892547
6.18706640625,-0.7633393376361578,-1.4947186257794498,-0.1643850910365581,-0.0624755546450614,0.4407117366790771,-0.3302299678325653
6.197094482421875,-0.6932108124643563,-1.3763061813667417,0.5124620311260223,-0.0899651199579238,0.3453209102153778,-0.4317924976348877
6.207121337890625,-0.5684257277471945,-1.142724512246251,1.0612076740324496,-0.1094836965203285,0.1948150247335434,-0.504544734954834
6.2171494140625,-0.4652869133772328,-0.8705589915789663,1.3992740922391411,-0.120972953736782,0.0281151123344898,-0.5452479720115662
6.227176513671875,-0.3838899752160534,-0.6580687719345092,1.5235902077376842,-0.1295555084943771,-0.1101301163434982,-0.5599963068962097
6.237204345703125,-0.2604051046435721,-0.4796957798168063,1.4855302339345215,-0.1263235211372375,-0.2067427039146423,-0.5294891595840454
6.2472314453125,-0.0737152793510817,-0.4223170652985573,1.2452537433505058,-0.0894928053021431,-0.2609193623065948,-0.4563440680503845
6.25725830078125,0.1466653647496364,-0.3445430668748915,0.9236842864364384,-0.0145802898332476,-0.2721067368984222,-0.3607763051986694
6.267286376953125,0.3052903213568962,-0.2559473763160407,0.6497896038889884,0.0788905397057533,-0.2548140287399292,-0.2599594295024872
6.2773134765625,0.4139172665480524,-0.2254007007524371,0.4755886367589235,0.1747035533189773,-0.2395889908075332,-0.1682942360639572
6.28734130859375,0.4968974553126841,-0.2806724330540746,0.4370090229958295,0.2495447844266891,-0.2237378507852554,-0.0910588279366493
6.29736865234375,0.5741766559567302,-0.4710718169216066,0.4807067104250192,0.2899151146411896,-0.2289275527000427,-0.0379671156406402
6.307396240234375,0.6309609847784042,-0.6910039500698447,0.5034972189038992,0.2993288338184356,-0.2352733314037323,-0.003945498727262
6.31742333984375,0.7229331660330295,-0.8237380575627088,0.49293958453238,0.2927838563919067,-0.237982839345932,0.0246422048658132
6.327451416015625,0.8251724742799997,-0.956559916404262,0.4053665150195359,0.281816691160202,-0.2435672134160995,0.0346716679632663
6.337478515625,0.8702219416443258,-1.1344055967122315,0.2520136901289224,0.2750245630741119,-0.2211647033691406,0.0232650842517614
6.34750634765625,0.8251797808036208,-1.295132749763131,0.0948930371373891,0.2749508023262024,-0.1868075281381607,-0.0192336402833461
6.357533447265625,0.7834850306946783,-1.4285194759458302,0.0090279405862092,0.2720973789691925,-0.1238943412899971,-0.0745617374777793
6.367561279296875,0.6954777344830334,-1.4858483599729837,-0.0003442833930253,0.2692912220954895,-0.0536958165466785,-0.1444886326789856
6.37758837890625,0.6450279424451291,-1.4868519840575751,0.1004226142138242,0.258783757686615,0.0170615557581186,-0.2194325625896453
6.3876162109375,0.5735538844158873,-1.4100848245888948,0.3121995710223913,0.2465651780366897,0.0671201944351196,-0.2958801984786987
6.397643310546875,0.5348907936204225,-1.225809476559609,0.5949918457746506,0.2266621589660644,0.0815065205097198,-0.3611329197883606
6.40767041015625,0.5486638098418712,-0.979502546704933,0.8984902239471674,0.2063529044389724,0.0589649900794029,-0.4113718569278717
6.4176982421875,0.5646481819698587,-0.6959604764986783,1.0958207222521303,0.1872850656509399,0.0221323333680629,-0.4406354427337646
6.427725341796875,0.5865459793927148,-0.4266160046014934,1.1894324874073263,0.1751615554094314,-0.0142001071944832,-0.4475010931491852
6.43775341796875,0.5591912317382172,-0.2378507247418165,1.1873188562542198,0.1702954918146133,-0.042662750929594,-0.4390183389186859
6.4477802734375,0.4996661893736571,-0.1153438506223261,1.1452174981057643,0.1736579984426498,-0.0563370175659656,-0.4227014183998108
6.457808349609375,0.4311738140363246,0.007309884621948,1.068100356155634,0.1769235432147979,-0.0584664046764373,-0.3956156373023987
6.46783544921875,0.4187240457752719,0.1151219514999538,1.0400234317064283,0.1744382828474044,-0.056302323937416,-0.3711156249046325
6.47786328125,0.3584482581086456,0.1711621839560568,0.9990192211449146,0.1687489748001098,-0.0483924858272075,-0.3475920259952545
6.487890380859375,0.2814314712604507,0.1962565123979002,0.9111129741549492,0.1646274626255035,-0.0469384007155895,-0.3254281282424927
6.497918212890625,0.2635053539475426,0.256553963907063,0.894197495189309,0.1548950225114822,-0.048700101673603,-0.3045977056026459
6.5079453125,0.2654294904105365,0.3331182942800224,0.8750520652145147,0.1382052600383758,-0.0487701445817947,-0.2891665399074554
6.51797314453125,0.2389073028563521,0.3593275251612067,0.8077250803947448,0.117947407066822,-0.0361705794930458,-0.2764260172843933
6.528000244140625,0.2184678327493369,0.4072661380957811,0.7640168715715407,0.0955379754304885,-0.0294777899980545,-0.259972482919693
6.538028564453125,0.2979993788974359,0.4734506748821586,0.7783522709161043,0.0740643218159675,-0.0430525690317153,-0.2360339611768722
6.54805517578125,0.3475489706926047,0.537062584701553,0.7845832742601633,0.0535888783633708,-0.0833896026015281,-0.2125848233699798
6.558083251953125,0.3759557116180658,0.5986412351276725,0.7648872246652841,0.0312687754631042,-0.1140778586268425,-0.1903263181447982
6.568110107421875,0.3623415026875212,0.6068165044073015,0.6882879691094159,0.0127414297312498,-0.1396165043115615,-0.1700681895017624
6.578137451171875,0.3827831464853137,0.6113949913039803,0.513950808379054,-0.0056974408216774,-0.1401953250169754,-0.1404207646846771
6.5881650390625,0.4501090718591585,0.622571122900024,0.3196031252771615,-0.0184952598065137,-0.121248260140419,-0.0991249904036521
6.598192138671875,0.4808002339273691,0.6113779671039432,0.1479360605388879,-0.0275488644838333,-0.1021396368741989,-0.0561397932469844
6.60822021484375,0.5005164129948243,0.5691233911551534,0.0708060591071844,-0.0318978056311607,-0.0944193974137306,-0.0194345097988843
6.6182470703125,0.5245493592828512,0.510891274677962,0.0171288294553756,-0.0415935292840004,-0.0913594141602516,0.0021681049838662
6.628275390625,0.4155431507168337,0.4161857229366898,-0.0613344664067029,-0.0549966879189014,-0.086422711610794,0.005327146500349
6.63830224609375,0.3410777653845027,0.3173627990044653,-0.1565273632735014,-0.0759754255414009,-0.0777052715420723,0.0044758114963769
6.648330322265625,0.3472455307666212,0.241269154883176,-0.2285118185102939,-0.0911770164966583,-0.0775337666273117,0.0133851505815982
6.658357177734375,0.3476568149812519,0.2061613088838756,-0.3157061178386211,-0.098428837954998,-0.0824414044618606,0.0255119763314723
6.66838525390625,0.2628647179564461,0.1937557085581123,-0.4124082502245902,-0.1065677180886268,-0.083300806581974,0.0344261080026626
6.678412109375,0.2227233530356548,0.1729454871762543,-0.4868862758427858,-0.1182418391108512,-0.0698418393731117,0.0439184717833995
6.6884404296875,0.1964412943802773,0.1169347000103443,-0.529103953847289,-0.1284715831279754,-0.035844724625349,0.0590087436139583
6.698467041015625,0.1508930837135761,0.0720595662996172,-0.5660597658008336,-0.1321819275617599,0.0053092991001904,0.0825344771146774
6.708495361328125,0.1423987385474145,0.0572906709086149,-0.4521756124675273,-0.1443224847316742,0.0361447110772132,0.1071532666683197
6.7185224609375,0.1052014642545022,0.0424863388780504,-0.3071697601616382,-0.1407147049903869,0.0572772771120071,0.1262425929307937
6.728550048828125,-0.0278457277755253,-0.0748700206104665,-0.2061047563910484,-0.1315853893756866,0.0552519410848617,0.1322240531444549
6.738577392578125,-0.14873701992454,-0.1787038315072655,-0.0856868173748254,-0.1203604713082313,0.0393701717257499,0.1161400526762008
6.748604248046875,-0.2981713927297852,-0.2398238514456898,-0.1009480993926525,-0.1101232841610908,0.0427380055189132,0.09527338296175
6.758632080078125,-0.4220533363284542,-0.3219938928712159,-0.2953904750406741,-0.0950802639126777,0.0063134171068668,0.0659595802426338
6.7686591796875,-0.5088365341052413,-0.4360650932092219,-0.2431453240185976,-0.0989423766732215,-0.0591502822935581,0.0472862906754016
6.778687255859375,-0.3776541495664045,-0.3775710378602147,-0.320379954868555,-0.1064192727208137,-0.0884972810745239,0.0567911267280578
6.7887138671875,-0.374480414901115,-0.3279641263872385,-0.7272790862828493,-0.0928256958723068,-0.0892664045095443,0.0773296952247619
6.7987421875,-0.3890886763703078,-0.2992981500037014,-0.9834516496568918,-0.0595074519515037,-0.0909557193517685,0.120668813586235
6.808769287109375,-0.1911845063632354,-0.159216967683658,-1.1458856066256762,-0.0012063318863511,-0.114732950925827,0.1947496980428695
6.81879736328125,-0.0324341150117106,-0.0319942440234124,-1.3281553139209747,0.0661257356405258,-0.1314397603273391,0.2840200662612915
6.82882421875,0.0526446899999864,0.0306784852497279,-1.5222101515561342,0.1252023577690124,-0.1736058592796325,0.3835929930210113
6.83885205078125,0.2445482496190816,0.0770662885457277,-1.6578794357180595,0.1678656339645385,-0.1947898268699646,0.4737451672554016
6.84887939453125,0.2093340023695491,-0.1331228145495057,-1.819634178251028,0.1854760497808456,-0.1520788520574569,0.5300015211105347
6.8589072265625,0.0211991293678991,-0.5028115747272968,-1.919760439866781,0.1689586490392685,-0.0777816697955131,0.5449495315551758
6.868934326171875,-0.1086250637613236,-0.9110916391059756,-1.8696856186211108,0.1242226138710975,0.0198426209390163,0.5240666270256042
6.878962158203125,-0.2451801177818328,-1.2707929660156367,-1.69931911508739,0.0594467669725418,0.1375656723976135,0.4592894315719604
6.8889892578125,-0.4940837861314415,-1.5917913450434804,-1.355478789654374,-0.0099882325157523,0.2567219138145447,0.3503722846508026
6.899016357421875,-0.7607271823763847,-1.8172721252948043,-0.9021651130676268,-0.0763141065835952,0.356943130493164,0.2134420573711395
6.909044189453125,-0.9017112318202852,-1.896927553550899,-0.3494903140187263,-0.1326231956481933,0.4292450249195099,0.0876883938908577
6.9190712890625,-0.9047678429119288,-1.794490823035687,0.2457663201719522,-0.1773435175418853,0.4615259170532226,-0.0175520777702331
6.929099365234375,-0.8819594334501772,-1.5409223046801983,0.9116063106298448,-0.232792928814888,0.4576102793216705,-0.0977931171655654
6.939126220703125,-0.904894757227227,-1.2686658908590671,1.506219970741868,-0.2882935702800751,0.4269050359725952,-0.1517333090305328
6.949154296875,-0.8599583948485553,-1.052808605934307,1.9072808975219728,-0.3159912526607513,0.2990266978740692,-0.171167716383934
6.959181396484375,-0.8069369987569749,-0.8234699081458151,2.067174522358179,-0.3004060685634613,0.176736906170845,-0.1797350645065307
6.969208984375,-0.8855404337421059,-0.6420451272420585,1.9865286217600109,-0.2458357661962509,0.0546514727175235,-0.1662773042917251
6.979236328125,-0.8051274651169776,-0.4490739201251417,1.81823132571578,-0.1628500819206237,-0.0729941502213478,-0.1090344935655593
6.98926416015625,-0.5839224624887108,-0.2354920327864587,1.551468979266286,-0.0684854909777641,-0.1788558661937713,-0.0111867617815732
6.999291015625,-0.426817226262018,-0.0636133711241185,1.1894178743600845,0.028060395270586,-0.2545710802078247,0.1160866171121597
7.009319091796875,-0.2558324629657901,0.0795460495974868,0.7875164051026106,0.1124218851327896,-0.2933573722839355,0.2632811367511749
7.01934619140625,-0.127917427926138,0.1262172729447483,0.3936410059124231,0.1824534088373184,-0.2921716272830963,0.404737114906311
7.029374267578125,-0.0911134455334395,0.0535767649520188,0.0290139130383729,0.2339128702878952,-0.2564309239387512,0.5189419984817505
7.039401123046875,-0.1718696563719771,-0.1965778533067554,-0.2898661586612462,0.278723806142807,-0.1904265284538269,0.5866305828094482
7.049428955078125,-0.3057393985649571,-0.5695986805167049,-0.5826210245013237,0.3190576434135437,-0.1019416749477386,0.6032606959342957
7.059456298828125,-0.4231981224494054,-0.8926848986692726,-0.6834194862902164,0.3321301937103271,-0.0093823140487074,0.5657727718353271
7.069483154296875,-0.5867893231619149,-1.1549527832437303,-0.5614613320946693,0.3023602962493896,0.0793616697192192,0.4778490662574768
7.079510986328125,-0.7191553279947489,-1.3388479728490112,-0.2364373508125543,0.2325038313865661,0.1508464813232422,0.359033465385437
7.089538330078125,-0.7204793431401252,-1.4585245919786394,0.1902151133418083,0.1403070539236068,0.1941097974777221,0.2259715348482132
7.099566162109375,-0.7613610233005136,-1.4621747850492597,0.5725380219042301,0.0494868122041225,0.2231319695711136,0.0964995175600051
7.10959326171875,-0.6906864816185087,-1.2480858980365095,0.8541022161662578,-0.0022291131317615,0.1709566563367843,-0.0018004167359322
7.11962109375,-0.5637831991709769,-0.8911826774127781,1.0437971050262451,-0.014605020172894,0.1210922002792358,-0.0843424499034881
7.129648193359375,-0.5909580967465415,-0.5790052451569586,1.1409814679712056,-0.0079638948664069,0.0958694070577621,-0.1406350135803222
7.13967626953125,-0.5665883562522008,-0.2705971023067832,1.2632277914583685,0.0042828805744647,0.0485695600509643,-0.1682108640670776
7.149703125,-0.5004175557302311,-0.0191960641834884,1.400484052550793,0.0051087271422147,0.0407545156776905,-0.1753611862659454
7.1597314453125,-0.5210412050314247,0.129301283499971,1.4268500814288854,0.0061176009476184,0.0420461818575859,-0.1576791405677795
7.16975830078125,-0.5136270563174039,0.2519915513623506,1.396408181414008,0.0178754571825265,0.0448986962437629,-0.1228567138314247
7.1797861328125,-0.4887385526459664,0.3708267512317746,1.3490432036489248,0.0392957404255867,0.0480217970907688,-0.0812802538275718
7.189813232421875,-0.5229563910029829,0.5117759485580027,1.2800333803087471,0.0683209970593452,0.0375912599265575,-0.0430082306265831
7.19984130859375,-0.5297879905886947,0.610175313315913,1.2140770993202925,0.0919906720519065,0.0162950921803712,-0.0060644866898655
7.209867919921875,-0.550382706056349,0.6551866406269371,1.1605196966558695,0.1020238623023033,-0.0037886039353907,0.0296407788991928
7.219895263671875,-0.5648950328703969,0.663519584686309,1.041311133429408,0.1056336089968681,-0.0261703841388225,0.0640798732638359
7.229923095703125,-0.5981519903060049,0.6580161649644375,0.8971095832437276,0.1037187948822975,-0.0426585488021373,0.1001302823424339
7.2399501953125,-0.5880712527312338,0.6589806991476566,0.7045324169456958,0.0962133407592773,-0.0452981814742088,0.1328345090150833
7.249978271484375,-0.5595060698410496,0.6187574098307639,0.4918447750329971,0.0906726345419883,-0.0299692880362272,0.1669125854969024
7.260005126953125,-0.5534359196145087,0.5596038676597178,0.2816407666295766,0.0806663110852241,-0.0029931534081697,0.1952478736639022
7.270033447265625,-0.5758095909208059,0.4985596163712442,0.1636591148495674,0.0670847222208976,0.0271341223269701,0.2113336324691772
7.28006005859375,-0.6221458101600408,0.4057722462762147,0.1284574530869722,0.0475246161222457,0.0448572412133216,0.2166902869939804
7.290088134765625,-0.6428423420343548,0.2978607376117259,0.0945902547985315,0.0257271770387887,0.061393603682518,0.201678842306137
7.300115234375,-0.6458198965404183,0.2210183940149843,0.0487263292461633,-0.0019064890220761,0.0747138932347297,0.1709810048341751
7.310143310546875,-0.6862146699666977,0.1725756309505552,0.0433323612481355,-0.0332020930945873,0.0939118266105651,0.1295571327209472
7.320170166015625,-0.6766947811450809,0.1509434987265616,0.063868953320384,-0.0677834972739219,0.113326147198677,0.0912296548485755
7.3301982421875,-0.6048844038335606,0.1642822882492095,0.0771153883844614,-0.0972447171807289,0.123777188360691,0.0664761066436767
7.340225341796875,-0.5467681322883814,0.2306272762943059,0.0928524712204933,-0.1167284250259399,0.1232562512159347,0.0485749989748001
7.35025341796875,-0.554721794706583,0.3158654000535607,0.0496674094885587,-0.1231080219149589,0.1250637471675872,0.0376057066023349
7.3602802734375,-0.525043536007963,0.3678437168329954,-0.0145142630428075,-0.1191695556044578,0.1280551850795745,0.0413208603858947
7.37030712890625,-0.4798935674112289,0.3594838117014616,-0.0709089349597692,-0.1160190403461456,0.1178036108613014,0.0485345646739006
7.38033544921875,-0.4344658413190394,0.3523235646832734,-0.1543722310662269,-0.110685259103775,0.1101632714271545,0.0662632286548614
7.390362060546875,-0.4697737399350851,0.305236161750555,-0.2770376567482948,-0.109361931681633,0.1126179099082946,0.0769278556108474
7.400390380859375,-0.4932011946106329,0.2085003462906926,-0.388217811819911,-0.1101110354065895,0.1266483515501022,0.0924251303076744
7.410417236328125,-0.4947058635525405,0.1258284197576344,-0.4798930559545755,-0.1200640648603439,0.1529673188924789,0.1077281907200813
7.420445068359375,-0.6166709589455276,-0.0309723536297678,-0.4941162270963192,-0.1376185864210128,0.2058452516794204,0.1043796241283416
7.43047216796875,-0.7651521592117846,-0.1951406601104885,-0.4796007950097322,-0.1551749408245086,0.2473535388708114,0.0833004415035247
7.440500244140625,-0.7845145198728889,-0.2712828195486217,-0.3944119902849197,-0.1638744622468948,0.2549202740192413,0.0563827268779277
7.45052734375,-0.7667509727105498,-0.3090934217005968,-0.3343278162002563,-0.1671967506408691,0.2346517443656921,0.0187866166234016
7.46055517578125,-0.759628646549955,-0.3287647752456367,-0.3444119878411293,-0.15888312458992,0.1955296397209167,-0.0146357771009206
7.470582275390625,-0.6371108857102692,-0.2167930314049124,-0.3667845631688833,-0.1515189558267593,0.1513344794511795,-0.0127726290374994
7.4806103515625,-0.4279509064670652,-0.1242512335687875,-0.5033434896469116,-0.1235884875059127,0.1790655255317688,0.0064649265259504
7.49063720703125,-0.4635834339275956,-0.100712975462526,-0.8146236077368258,-0.0912880674004554,0.1569485068321228,0.0640448629856109
7.5006650390625,0.0571521392207592,0.2459613312873989,-0.6375269191652536,-0.0789817869663238,0.1267372667789459,0.1463809311389923
7.5106923828125,0.0799668322928249,0.2803810488920659,-0.6472393348842859,-0.0534426048398017,0.1093460246920585,0.2103077173233032
7.520718994140625,-0.1053979549409821,0.0164670776110142,-0.828732212588191,-0.0183119438588619,0.1125495433807373,0.248152956366539
7.5307470703125,-0.1708930481584742,-0.326605405254662,-0.921972806343436,0.0065641123801469,0.1027568355202674,0.2728599011898041
7.5407744140625,-0.2366153011953458,-0.6087177349187434,-0.946997942006588,0.0170745775103569,0.1577867716550827,0.2563228905200958
7.550802490234375,-0.4270147215954959,-0.8437864277265965,-0.9020745121747256,-0.0174048356711864,0.1259143203496933,0.2210498601198196
7.56082958984375,-0.0627451003896072,-0.7982743112865835,-0.6422603774279355,-0.0653483048081398,0.1095777451992034,0.1863867938518524
7.570857421875,-0.1279142861209809,-0.7937105835676193,-0.6939303589105605,-0.1191412284970283,0.1216107085347175,0.15152308344841
7.580884521484375,-0.1632163395181298,-0.9177356071650982,-0.8281009289473295,-0.0528856441378593,0.2310644388198852,0.1378123611211776
7.59091259765625,-0.1080248328458517,-1.0191034663397818,-1.2472568998664617,0.1505060940980911,0.1531765609979629,0.0872836783528328
7.600939453125,0.0905954130087047,-0.6582679477684199,-1.2816221108049153,0.329108715057373,0.0638693124055862,0.0363644361495971
7.610967529296875,-0.1644127096958458,-0.6704053986772894,-0.9177905522227288,0.35997474193573,0.0927057564258575,0.0226957611739635
7.62099462890625,-0.1113831302978098,-0.9633375938456504,-0.1510194135069847,0.2177372425794601,0.173690527677536,0.071785993874073
7.631022216796875,0.3490948484277352,-0.9566885112199932,0.6365577818721533,-0.0043299114331603,0.2212668359279632,0.1422287225723266
7.641049560546875,0.0593667099976912,-1.1066934869874268,0.8164695278644561,-0.1879112422466278,0.2271471172571182,0.1512898653745651
7.651077392578125,-0.3700853217473253,-1.3375567639946937,0.6977443642407656,-0.2973613142967224,0.2484308332204818,0.1100649237632751
7.6611044921875,-0.4132038210490718,-1.5098134651891886,0.7392980253785848,-0.3421193659305572,0.2385058403015136,0.0666167438030242
7.671131591796875,-0.2616083977524191,-1.561587199307233,0.8393512217581272,-0.3496728837490082,0.1843691021203994,0.0504798516631126
7.681159423828125,-0.2195140538666397,-1.503813055730611,1.0650485673695802,-0.3685409724712372,0.1221045404672622,0.040713045746088
7.6911865234375,-0.200768802190572,-1.3905379742063582,1.3383587280273437,-0.4045487642288208,0.0337400510907173,0.0519286803901195
7.70121435546875,0.0249557236887514,-1.2039894205480812,1.516274331766367,-0.439466118812561,-0.1101884245872497,0.0938058570027351
7.711241455078125,0.2047073106832802,-0.9931103624273092,1.5128034407854078,-0.4626846313476562,-0.2600823044776916,0.1550859808921814
7.72126953125,0.3938040144544094,-0.7760780423738062,1.353030227458477,-0.4550210833549499,-0.3919136822223663,0.2462975680828094
7.731296630859375,0.7152005259543657,-0.6504798511754721,0.968233037737012,-0.3879789412021637,-0.5022191405296326,0.3523403704166412
7.74132421875,0.9742667649433016,-0.62999886174798,0.3711614630788564,-0.2394402176141739,-0.5432353615760803,0.4465380311012268
7.7513515625,1.0615290149413048,-0.4790906535305082,-0.2989467062175274,-0.0278824307024478,-0.57704097032547,0.5458585023880005
7.76137939453125,1.1156691859297454,-0.5067867619685829,-0.8331851003438234,0.1781170815229416,-0.5413252115249634,0.6454827785491943
