seconds_elapsed,ax,ay,az,gx,gy,gz
0.06316455078125,0.2736280675005167,0.0880680864881724,0.6293716697603464,-0.0232627876102924,-0.1993284374475479,0.7128912806510925
0.0731923828125,0.4430572901841252,0.2069019711833447,0.4607283367574215,-0.0201058760285377,-0.2081914395093917,0.7106789946556091
0.083219482421875,0.4495957520421594,0.3053573769774287,0.2392524082332849,-0.0160541366785764,-0.2004825621843338,0.7046238780021667
0.09324755859375,0.3804384099900722,0.261598314749822,0.1156874033629894,-0.0058667459525167,-0.1790563613176345,0.706324577331543
0.1032744140625,0.2885620903253555,0.1344711604185402,0.0672819766342639,0.0055637150071561,-0.158697709441185,0.7102652192115784
0.113302490234375,0.2189823581427335,0.0484772498559206,0.0895972688168287,0.0156626887619495,-0.1471939235925674,0.710674524307251
0.12333056640625,0.1772157849065959,0.0665155223064124,0.126376555159688,0.0227938927710056,-0.1381701976060867,0.7001018524169922
0.133357666015625,0.1782591564796865,0.1700418746892362,0.1713110909074544,0.0392261296510696,-0.1520316898822784,0.6891187429428101
0.143385498046875,0.2743384077269584,0.295859334661439,0.2158130804568529,0.0559512823820114,-0.1962954998016357,0.6915500164031982
0.15341259765625,0.3950768839344382,0.4306740478206425,0.1950491093695163,0.0845712125301361,-0.2413516491651535,0.7094011902809143
0.163440673828125,0.4216718261975795,0.4630133789546787,0.1458703601807355,0.1045137643814086,-0.2925189733505249,0.729523777961731
0.173468505859375,0.4449107360310852,0.5599111069779843,0.1800192980200052,0.1002987772226333,-0.3310181498527527,0.7459613084793091
0.183495361328125,0.3465154629264027,0.53388698687274,0.1342909815460443,0.083548828959465,-0.3552059531211853,0.7469488978385925
0.1935234375,0.2319794215556234,0.4304569710038602,0.048736266118288,0.0559563487768173,-0.3532213568687439,0.7364160418510437
0.203551513671875,0.125778041277267,0.3306984467219561,-0.057207157343626,0.029254188761115,-0.3385802507400512,0.7098168134689331
0.21357861328125,0.0287910275353118,0.26204262445122,-0.1395259595900773,0.0147892292588949,-0.3202846050262451,0.6741762757301331
0.2236064453125,0.0326742987094447,0.2127734570326283,-0.1640548361688852,0.00608732085675,-0.2970628440380096,0.6287577152252197
0.233633544921875,0.002542816350609,0.2028705967754125,-0.1239905368059873,0.0061746728606522,-0.2815254330635071,0.5823574662208557
0.24366162109375,0.0180709691436961,0.2070590614411979,0.01113397295475,0.0043737208470702,-0.2845977544784546,0.5396428108215332
0.253689453125,0.1100328847326338,0.2708543650034815,0.1132569613456726,0.0043521490879356,-0.2714790105819702,0.5072901844978333
0.263716552734375,0.0658347004354,0.2911533854601905,0.1516460209727287,-0.0028988111298531,-0.2686092555522918,0.4695829451084137
0.273744384765625,0.1812976108601316,0.3151538907833397,0.3492699492663145,-0.0102720381692051,-0.2589696943759918,0.4453822672367096
0.283771728515625,0.2641672884549945,0.3907642814323306,0.3692769645065069,-0.006639861036092,-0.2208964824676513,0.4173502922058105
0.293799560546875,0.2220608157400041,0.4407441178709268,0.317776494371891,0.0117484666407108,-0.1853920221328735,0.394115537405014
0.303827392578125,0.3016159984920173,0.4518488647311925,0.3749614398837089,0.0505770184099674,-0.1779362857341766,0.3919086158275604
0.313854736328125,0.4037667516727,0.5092531520821154,0.4620242217868566,0.1043821945786476,-0.192475825548172,0.3906683921813965
0.323882568359375,0.3613199045548215,0.612101532138139,0.511103017732501,0.1534953415393829,-0.2329716980457306,0.3815925121307373
0.33391064453125,0.2921948390708305,0.6543607111968099,0.5860907464385032,0.1952307969331741,-0.2947733104228973,0.3697784841060638
0.3439375,0.2483937643324024,0.5910565521523357,0.5875707558631896,0.2263423949480056,-0.3736222088336944,0.3551934659481048
0.35396533203125,0.2650047256598249,0.5883109797712415,0.5958826571345329,0.2239649891853332,-0.4668594598770141,0.3400630056858063
0.36399267578125,0.3117920862000435,0.6453581973128021,0.5868588082015515,0.2022469639778137,-0.5564258098602295,0.3251242637634277
0.3740205078125,0.2359222774298861,0.5996300269693136,0.3472106786489486,0.1782415062189102,-0.6055012345314026,0.3056595027446747
0.384048583984375,0.1331271619310602,0.4916977312451228,0.0397971728593111,0.1671670079231262,-0.6222807168960571,0.2904826700687408
0.39407568359375,0.1063390169170685,0.4412830835858359,-0.209684368443489,0.1610694378614425,-0.5860050320625305,0.2742062211036682
0.404103515625,-0.005462494056439,0.3893336641073227,-0.3318886063545942,0.1502613723278045,-0.4965172111988067,0.2488780915737152
0.414130615234375,-0.1419401263260282,0.3695790161930024,-0.3208446497708558,0.1359743177890777,-0.3940432965755462,0.2276511043310165
0.424158447265625,-0.1355694313834887,0.4136811927698552,-0.1325871002376079,0.1226959303021431,-0.290250301361084,0.2264045923948288
0.4341865234375,-0.1328673784837126,0.5225764517746866,0.0487836123913526,0.1088397726416587,-0.1988511681556701,0.2197826504707336
0.444213623046875,-0.2046160522032529,0.5904271316749975,0.2258925759226083,0.1012551635503768,-0.1009236723184585,0.2116864621639251
0.45424169921875,-0.2729647082209587,0.6188246298480778,0.4088257155627012,0.1088936403393745,-0.0287962108850479,0.1993024945259094
0.4642685546875,-0.2613653279778547,0.7365605632387101,0.612115414533019,0.1262541115283966,0.0271707344800233,0.1968310326337814
0.474296630859375,-0.276060043887794,0.9282365429133176,0.8205956678837537,0.1451636254787445,0.0378180518746376,0.1981828510761261
0.48432470703125,-0.2572805611485615,1.1196950804449617,0.9967658892601728,0.1577135622501373,0.0083160437643527,0.2126431614160537
0.4943515625,-0.1490552007619291,1.2945651790082453,1.119430730420351,0.163488894701004,-0.056560955941677,0.2565158307552337
0.504379638671875,-0.0409809575500898,1.434010766838491,1.0900649352043867,0.1817076802253723,-0.1482130587100982,0.3176188468933105
0.514407470703125,-0.0173255758701823,1.5800700737200677,0.9529109654426574,0.2116088420152664,-0.2691072523593902,0.3810806572437286
0.524434326171875,0.0195848808379843,1.687505197044462,0.7482341960281134,0.2452030330896377,-0.4167259037494659,0.4378705024719238
0.534462646484375,0.0132762456804513,1.6654751515440642,0.4924783967614173,0.2600216865539551,-0.5328410267829895,0.4845240116119385
0.544489501953125,-0.0002471431614831,1.5417108247093856,0.0488379729270935,0.2604584693908691,-0.5708841681480408,0.5228484272956848
0.554517822265625,-0.0566654151497408,1.3641975181609391,-0.5132102191448211,0.2517653703689575,-0.5210481286048889,0.547203004360199
0.564545654296875,-0.122037137715891,1.234236674773693,-0.9522171379595994,0.2362149804830551,-0.3937988579273224,0.560970664024353
0.574572509765625,-0.0700055929118767,1.177176816946268,-1.1745774481028315,0.2245370149612426,-0.2377514839172363,0.5669784545898438
0.5846005859375,-0.0378831924641504,1.1355720832083374,-1.1962217091560363,0.2122246772050857,-0.0749238431453704,0.5569146871566772
0.594627685546875,-0.0016533201649785,1.1481238870717585,-1.0021417370796204,0.193070963025093,0.0651128888130188,0.5345643758773804
0.604655517578125,0.0005520078595727,1.1617566180396823,-0.5910141743153333,0.1658645570278167,0.1588267087936401,0.4951301515102386
0.61468359375,-0.0442043583096936,1.1524518332734703,-0.0855102917641401,0.132540687918663,0.196362629532814,0.444897323846817
0.62471044921875,-0.0340720366781577,1.189714738414809,0.4115969338417053,0.0984435901045799,0.1837365925312042,0.3890621364116668
0.63473876953125,-0.0437010484300553,1.223290552541241,0.8093512202918529,0.0644403472542762,0.1572131067514419,0.3260312378406524
0.644765380859375,-0.0602418123317882,1.2570720453076063,1.0784107377678156,0.0401943512260913,0.1286995857954025,0.266756922006607
0.654793701171875,0.0221390953654423,1.3437794379018246,1.1492232266157865,0.0389842092990875,0.1000895127654075,0.2196898162364959
0.664821533203125,0.0153321187643334,1.4292629877895116,1.2315396907746792,0.0461626574397087,0.0584271326661109,0.1810821890830993
0.6748486328125,0.024681107998453,1.520358240079135,1.2667173871397972,0.0483064986765384,0.0185034200549125,0.1415526121854782
0.68487646484375,-0.0659250821325928,1.5269097075492142,1.3038111462593078,0.0460027866065502,-0.0315184295177459,0.1030119881033897
0.694903564453125,-0.0655059434050694,1.5592653322309256,1.2642454440683126,0.0309527292847633,-0.0765186622738838,0.0700407177209854
0.704931640625,-0.1591916140466928,1.5777378313802182,1.1598854904055595,0.0119785647839307,-0.100664883852005,0.0381076298654079
0.714959716796875,-0.2656086098371073,1.532234263572842,0.9323404711008072,-0.0020621535368263,-0.0886646807193756,0.0172777138650417
0.724986328125,-0.269503973307833,1.5439843225993215,0.685141487777233,-0.0004773996770381,-0.0553121976554393,0.0148842791095376
0.7350146484375,-0.2239480177260935,1.5872105931244789,0.4840221185833215,0.0198252089321613,-0.0201859045773744,0.0267838165163993
0.74504248046875,-0.2655805893190205,1.6354098297566175,0.331217575225234,0.0496164225041866,0.0035513122566044,0.0379378348588943
0.755069580078125,-0.3527162172626704,1.626467813888192,0.2680886266171932,0.0762357860803604,0.0030961779411882,0.0500536188483238
0.765097412109375,-0.4408087075397372,1.5609227440491318,0.2677776609718799,0.0845435038208961,-0.0046704960986971,0.0526501238346099
0.77512451171875,-0.5669268309589475,1.4802118153907358,0.2626490659117698,0.0656550303101539,-0.0074143502861261,0.0446561127901077
0.785152587890625,-0.6796015354372561,1.3994072170995175,0.2035100637227296,0.0342340320348739,-0.0009697400964796,0.0249449741095304
0.7951806640625,-0.7287107265211641,1.3561254169948398,0.0999777930557727,-0.000292785000056,0.011996392160654,0.0053084231913089
0.80520751953125,-0.7131221122451126,1.382769824422896,-0.026197686573863,-0.0270279832184314,0.0407665185630321,-0.0099085997790098
0.815235595703125,-0.6923743616402149,1.3879966191604731,-0.1586871716558933,-0.0353000275790691,0.0685084089636802,-0.0168650411069393
0.825262451171875,-0.672069824758172,1.4001651958599686,-0.2585907304316759,-0.0333452746272087,0.0986479371786117,-0.0208707172423601
0.83529052734375,-0.6792928348142653,1.421695036753267,-0.2934580456733703,-0.0257861614227294,0.1169150918722152,-0.0290090721100568
0.845318359375,-0.7217654374279081,1.4805052453793583,-0.2512368605375289,-0.0303649064153432,0.1216346696019172,-0.0389672592282295
0.855345703125,-0.7056627361498773,1.537121304962039,-0.1815045681416988,-0.0441102758049964,0.1120542138814926,-0.0526476539671421
0.86537353515625,-0.69676857801117,1.530813729250431,-0.160616093891859,-0.0657742395997047,0.0984519720077514,-0.0695887431502342
0.875400390625,-0.7025223922975361,1.5201828835122286,-0.1958931589782238,-0.0917680189013481,0.0891570076346397,-0.0935766398906707
0.885428466796875,-0.7273551471937447,1.521179347203672,-0.2677326527863741,-0.1175701767206192,0.0791269317269325,-0.1239190548658371
0.89545654296875,-0.7374236098088324,1.50763392919302,-0.3449953406870364,-0.1418145298957824,0.0803839415311813,-0.1499871462583542
0.9054833984375,-0.7090065666850656,1.4711214770928025,-0.4219745354712009,-0.1662992686033249,0.087575264275074,-0.1714909672737121
0.915511474609375,-0.6415988447792828,1.4294373214431106,-0.5136199689894915,-0.1892237514257431,0.1076914444565773,-0.185732752084732
0.92553857421875,-0.5608333729220554,1.399595871539414,-0.6103408060759306,-0.2034589499235153,0.1295825690031051,-0.1940657496452331
0.935566650390625,-0.4804707097120583,1.3446141351602972,-0.6747329064875841,-0.20924973487854,0.1549803465604782,-0.2066742181777954
0.945594482421875,-0.3943859790608287,1.2967464685700834,-0.7869856592267751,-0.2067281156778335,0.1918035149574279,-0.2255695760250091
0.95562158203125,-0.346291006520763,1.204050283889845,-0.8424941959589719,-0.2107968926429748,0.2345986515283584,-0.2529594004154205
0.9656494140625,-0.2341014552108943,1.1165377854578196,-0.8239397176146507,-0.1975578367710113,0.2494349926710128,-0.2736572623252868
0.975677734375,-0.1639269354728982,1.0178047317661345,-0.8480962537497282,-0.175796091556549,0.238623633980751,-0.297364741563797
0.98570458984375,-0.1660189575823955,0.9741916538804768,-0.8075456321746111,-0.1525457352399826,0.205755278468132,-0.3242675065994262
0.995732421875,-0.1780278136755339,0.9078768417779356,-0.827400671723485,-0.1333406120538711,0.1591113358736038,-0.3495486378669739
1.005759765625,-0.2658135578246787,0.8050042771287262,-0.859314397856593,-0.1227596327662468,0.1194434612989425,-0.3701218962669372
1.01578759765625,-0.2974862417435273,0.7811690088372677,-1.0537854150772097,-0.0881119072437286,0.0658777058124542,-0.3590298593044281
1.025815673828125,-0.1560963149124756,0.8819139138080179,-1.396701026880741,-0.0396954417228698,0.002695218892768,-0.3061956167221069
1.035842529296875,-0.0968347731891553,0.9326895767994224,-1.7174369555801152,0.0159028396010398,-0.0400919280946254,-0.2532548904418945
1.045870361328125,-0.2913252348957583,0.6300967691645026,-1.875302873980999,0.0235033296048641,-0.031047411262989,-0.2275268584489822
1.055897705078125,-0.3972453870799392,0.1483818498113192,-1.6282804162681102,-0.0365959629416465,0.0097839077934622,-0.2132589668035507
1.065925537109375,-0.3303120777528733,-0.2496181367618963,-1.3306564830869436,-0.1343052983283996,0.0510503314435482,-0.2210167348384857
1.07595361328125,-0.3508112238915637,-0.5684398658704012,-1.0540040262639525,-0.2451631128787994,0.1459534168243408,-0.2558069229125976
1.085980712890625,-0.5156331354428082,-0.8531063369967042,-0.6894067440062761,-0.3308396339416504,0.2414331585168838,-0.3233898878097534
1.096008544921875,-0.5149157078884542,-0.9823300982810556,-0.17676526466012,-0.372217983007431,0.276932030916214,-0.393545001745224
1.10603564453125,-0.3792364503217861,-0.8726262993723154,0.4632499641895294,-0.3731062114238739,0.2427911460399627,-0.4587723612785339
1.1160634765625,-0.2677284150026738,-0.6425383906517177,0.9796621942460536,-0.336221694946289,0.2057314068078994,-0.5158377885818481
1.126091552734375,-0.2263289215132594,-0.4233985769249498,1.2682318833559751,-0.262643963098526,0.1649393290281295,-0.5584532022476196
1.136118408203125,-0.067593736864021,-0.2483086250659078,1.462465000167489,-0.1737082302570343,0.112856425344944,-0.5655513405799866
1.146146484375,0.1876955317363142,-0.0921454554622992,1.658338869923353,-0.1039618924260139,0.0494081415235996,-0.5401409268379211
1.156173583984375,0.3923855624912306,0.0247373316977173,1.814803689354658,-0.0569874607026577,-0.0160992294549942,-0.4867072105407715
1.16620166015625,0.4767547579288482,0.0963777592698112,1.9103472993552684,-0.0344604663550853,-0.0858104079961776,-0.4141870439052582
1.176229736328125,0.6366172569744288,0.1336485554566606,1.8261024974823,-0.0070360312238335,-0.1527210026979446,-0.3339761197566986
1.186256591796875,0.688787369998917,0.0744657871911302,1.628088693088293,0.0370634123682975,-0.2375807464122772,-0.2604186534881592
1.196284423828125,0.7585734384085983,0.0186190680131316,1.3983265822559594,0.0945533365011215,-0.32426318526268,-0.1986993849277496
1.2063125,0.7734580691337585,-0.0697099709661677,1.1047358501136302,0.1434681117534637,-0.383772611618042,-0.153649091720581
1.21633935546875,0.7387911718349903,-0.2026632741676643,0.7766770311802625,0.1674112528562545,-0.406791090965271,-0.1163685545325279
1.22636767578125,0.7639938560221344,-0.3355287164226174,0.5111737448811531,0.1683847308158874,-0.3982118368148803,-0.0889890789985656
1.23639453125,0.7636119440324604,-0.4314170116750523,0.2695890943080187,0.1533501297235489,-0.3633025884628296,-0.0747060105204582
1.246422607421875,0.7290989221211522,-0.4928179674467071,0.0388104999095201,0.1371502578258514,-0.3198087513446808,-0.0792075097560882
1.256450439453125,0.7031266418009996,-0.4956990758409723,-0.1670060871899127,0.1240983754396438,-0.2538326382637024,-0.1003657877445221
1.2664775390625,0.6798987648181617,-0.4967111389603466,-0.2503086397767067,0.1139019802212715,-0.1753805875778198,-0.126022607088089
1.276505615234375,0.6520536763634532,-0.4637625533541664,-0.1537321795970201,0.0976345986127853,-0.0975478440523147,-0.1561080664396286
1.28653271484375,0.6689442400835454,-0.3502107737803831,0.0528594835281372,0.0803048536181449,-0.0263171754777431,-0.1784656792879104
1.296560302734375,0.6514848634995519,-0.1740838070238009,0.2883323732227086,0.0685043856501579,0.023848257958889,-0.1955533176660537
1.306588623046875,0.6231533067021519,-0.0313829071920365,0.5583201114594936,0.0638380050659179,0.0448559038341045,-0.2042167484760284
1.316615478515625,0.6129559570103883,0.1138269797859713,0.8847089513540267,0.0607908144593238,0.0262268222868442,-0.2075116336345672
1.326643798828125,0.6317106341019273,0.2759710138974711,1.1714824046969412,0.0553805381059646,-0.0065015177242457,-0.198897510766983
1.33667041015625,0.6554840161383152,0.3871001694342121,1.321046943220496,0.0514419898390769,-0.0427274331450462,-0.1803163737058639
1.346698486328125,0.664826137240231,0.4860374039284885,1.3823323097884654,0.0498749688267707,-0.0784928202629089,-0.1492906957864761
1.3567265625,0.6583223083041608,0.4921452923495322,1.354934015253186,0.0513455644249916,-0.0930869430303573,-0.122976005077362
1.36675341796875,0.6295781521178782,0.4545765726620331,1.2851754193723202,0.0546810440719127,-0.0849934071302414,-0.0968599542975425
1.376781494140625,0.5486118239263073,0.4013637456515804,1.2705179484665392,0.0585175938904285,-0.0743471533060073,-0.0798343643546104
1.38680859375,0.5021227522129192,0.3428754624562338,1.2710270670324564,0.0732748582959175,-0.0713396370410919,-0.0705070421099662
1.39683642578125,0.4518956630149855,0.3697473219646141,1.2278636326104402,0.0881866961717605,-0.0798124819993972,-0.0699765384197235
1.40686474609375,0.4406501194445416,0.3954152490433305,1.2258061155587434,0.1006459221243858,-0.1033755838871002,-0.0716712474822998
1.416891357421875,0.494491526682116,0.4185860620766878,1.21915425645411,0.1068886369466781,-0.1276031583547592,-0.067710593342781
1.426919677734375,0.536306030713208,0.5093703487209975,1.1593933229744433,0.0986609235405922,-0.1589032113552093,-0.053281370550394
1.436946533203125,0.6287977423299104,0.6105286933308467,1.078484387525916,0.0849592238664627,-0.1902534067630767,-0.0241487808525562
1.446974609375,0.6874988645583391,0.6803752232234924,0.934542949581146,0.0753282010555267,-0.2083523273468017,0.0038337528239935
1.45700244140625,0.705710813075304,0.6904610753647983,0.714455845066905,0.0748344510793685,-0.2216830402612686,0.0325767174363136
1.467029541015625,0.765784465765953,0.732668524236232,0.4333791420608758,0.0845253318548202,-0.2267778217792511,0.0644941180944442
1.4770576171875,0.8279289333812891,0.7764134848732501,0.1615565896123647,0.097710371017456,-0.2163342386484146,0.0962299481034278
1.48708447265625,0.7968681708157062,0.7636352518428117,-0.036000118663907,0.098160482943058,-0.1969824582338333,0.1228305697441101
1.497112548828125,0.8128495838016271,0.7514476781819015,-0.1175122807025909,0.0812869593501091,-0.1665574312210083,0.1443209499120712
1.507140625,0.8034441882051527,0.6965816040717064,-0.2478156539171934,0.0655198767781257,-0.1250887066125869,0.1573852896690368
1.51716748046875,0.8348216155044734,0.6590452157512307,-0.3940566009759902,0.0564845725893974,-0.0795672908425331,0.1766639202833175
1.527195556640625,0.9321461175724864,0.6953931980047374,-0.4851625207901001,0.0541559904813766,-0.0466717705130577,0.1963319331407547
1.537223388671875,0.968413655000925,0.7385850548036396,-0.5191016152709722,0.0522417090833187,-0.024305211380124,0.2126760184764862
1.547250732421875,1.0475246011167765,0.7384544872265308,-0.5765858359903097,0.048709038645029,-0.0086692608892917,0.2404426783323288
1.557278564453125,1.0780288988433775,0.6643622460555285,-0.7149521041512489,0.0453784875571727,0.004109916742891,0.2751958668231964
1.567305419921875,1.0470338949903846,0.5748142232079059,-0.9178098414450884,0.0352735444903373,0.0477599389851093,0.3041149973869324
1.57733349609375,0.8692629604190587,0.4124357227534055,-1.1612000801354645,0.0169147755950689,0.1140098050236702,0.3160885572433471
1.587361572265625,0.6650003247633576,0.1909545700648799,-1.3865338531315323,-0.001960912020877,0.1992706358432769,0.3149966597557068
1.597388427734375,0.4709998111313209,0.0292204319285228,-1.5273498525321485,-0.0302937496453523,0.2859602570533752,0.2988496422767639
1.60741650390625,0.2961684006106108,-0.1097249695609323,-1.553134282130003,-0.0715705230832099,0.3990267813205719,0.2733302116394043
1.617443603515625,0.0744247610609978,-0.2879825734043493,-1.5088637632489204,-0.0987036004662513,0.4890134036540985,0.2365202754735946
1.6274716796875,-0.0999594902141019,-0.3797089632043615,-1.2824661604136227,-0.1243176162242889,0.52485591173172,0.1846355944871902
1.63749951171875,-0.2645159557621926,-0.2433057935436256,-0.9191583334445952,-0.145754724740982,0.4887988567352295,0.123436152935028
1.647526611328125,-0.4186712561421096,-0.10436097657606,-0.6686632311850785,-0.1622208207845688,0.3686867952346802,0.0812200084328651
1.657554443359375,-0.44763296406921,-0.0052805707514286,-0.5671200885087251,-0.1703743487596511,0.2084616869688034,0.0827159062027931
1.66758154296875,-0.3822694978747517,0.0885052540627308,-0.6732388685375451,-0.1653238832950592,0.0490934699773788,0.1171237602829933
1.677609375,-0.3350312152292579,0.2259314648945815,-0.8001637052297592,-0.1447797268629074,-0.1023780778050422,0.1793578416109085
1.687637451171875,-0.1126643292147666,0.4839672831235453,-1.014408513456583,-0.1073502004146575,-0.2380555570125579,0.2762087881565094
1.697664794921875,0.1360225180463865,0.6962020301695913,-1.3231962302088738,-0.0571583993732929,-0.3076556921005249,0.4026335775852203
1.707692626953125,0.2920209255423396,0.7341388890497386,-1.7699942412912844,-8.32979567348e-05,-0.3105789721012115,0.5481374859809875
1.717719482421875,0.3443911642488092,0.6567139963246882,-1.9933418089061972,0.0412976965308189,-0.2387980073690414,0.690375566482544
1.72774755859375,0.2473267744217067,0.38768100152947,-1.953615947717428,0.0649718642234802,-0.0949268490076065,0.7895743250846863
1.737775390625,-0.010824468614161,-0.0479815387608483,-1.8865069895625115,0.0746873468160629,0.1076049506664276,0.8101107478141785
1.747802734375,-0.4184735416129231,-0.5463958649098872,-1.5597300271332264,0.081904225051403,0.2970301806926727,0.7588134407997131
1.75783056640625,-0.691002342634648,-0.9600184593603014,-0.9455816454678774,0.0651588067412376,0.430081158876419,0.6530531644821167
1.767858642578125,-0.8842606961298733,-1.155896274638921,-0.0286877498239278,0.0161933414638042,0.4730146527290344,0.5066586136817932
1.7778857421875,-1.0122551348149775,-1.2372124757140874,0.8860445838719606,-0.0530166216194629,0.442562997341156,0.3445794284343719
1.78791357421875,-1.020145376608148,-1.1863674007482825,1.596872301569581,-0.1198100000619888,0.3400830030441284,0.1934442073106765
1.797940673828125,-0.9757455322589724,-1.0689973049953578,2.0862673453629017,-0.1677612662315368,0.178473874926567,0.0646156519651413
1.807968505859375,-0.9180595053572208,-0.8817747245330363,2.3170406790643927,-0.1982780396938324,0.0010319873690605,-0.0283120423555374
1.81799658203125,-0.8274616081304847,-0.6413507152371108,2.2961907832592723,-0.205107182264328,-0.1415219604969024,-0.0748497173190116
1.8280234375,-0.7870360742397606,-0.4548214873338118,2.010839471673965,-0.1847159564495086,-0.223914086818695,-0.0902946814894676
1.838051513671875,-0.813657393053174,-0.3378085709881037,1.5979197647958994,-0.1386134475469589,-0.2657819390296936,-0.0818460658192634
1.84807861328125,-0.769328495048359,-0.1962581563657149,1.2215852829933165,-0.0715117156505584,-0.2760520875453949,-0.0440892651677131
1.858106689453125,-0.6514425587277859,-0.0640882951594889,0.9520961419284344,0.006938618607819,-0.2997347712516784,0.0201959796249866
1.868134765625,-0.5226366209967062,0.0545392898412421,0.7677619033187627,0.0763877853751182,-0.3131320476531982,0.0938930958509445
1.87816162109375,-0.461387713981606,0.0962803998425602,0.624997107937932,0.1278562992811203,-0.2972798347473144,0.154415026307106
1.888189453125,-0.3978841233748942,0.073616294222325,0.4632143083542585,0.1553628593683242,-0.2662197649478912,0.1928775161504745
1.898216796875,-0.3045954161616042,0.0804790561312809,0.3740297119915485,0.1639526188373565,-0.1938864588737487,0.2141729444265365
1.908244384765625,-0.2895592116039246,0.0154182261452078,0.2829875050634146,0.1649069786071777,-0.1154534295201301,0.2267847508192062
1.918272705078125,-0.2556240991784259,-0.0368417936524376,0.2121393603801727,0.1539962738752365,-0.0291217342019081,0.2240057438611984
1.928299560546875,-0.3409949824718758,-0.0990663225003518,0.3079278850525617,0.132912129163742,0.0362211093306541,0.1982910335063934
1.938327392578125,-0.4027027391703799,-0.1947592961100861,0.4977858555197715,0.1006410047411918,0.0697452425956726,0.1572067141532898
1.94835400390625,-0.4002235991731286,-0.249160218660254,0.7099345682501792,0.0674638226628303,0.0898354724049568,0.0948298275470733
1.958382080078125,-0.4218345059460028,-0.1971494791822508,0.900600347968936,0.0332046449184417,0.0815455839037895,0.0313286110758781
1.96841015625,-0.4088557088421657,-0.0935513219385407,1.056855908563733,0.0039928797632455,0.0656853392720222,-0.0242552626878023
1.97843701171875,-0.3341313437800854,0.0505794645658694,1.194564005076885,-0.0122880889102816,0.0426583215594291,-0.0617216788232326
1.988465087890625,-0.276081890393421,0.2100146781100891,1.1986790391802786,-0.0118225514888763,0.0211400724947452,-0.081774927675724
1.9984921875,-0.222078789788112,0.407855263095349,1.1269020892143249,0.0026581203565001,0.0171613097190856,-0.083327017724514
2.00852001953125,-0.154207286295481,0.6088354430142789,1.0560703111439942,0.0203654319047927,0.0200904961675405,-0.0651621147990226
2.01854833984375,-0.0957878670852631,0.7544839040726423,1.0424649796396492,0.0379311107099056,0.0237398259341716,-0.0379435457289218
2.028574951171875,-0.073155325647071,0.8490010205697268,1.0244137746423485,0.0528028309345245,0.0239961743354797,-0.0126453293487429
2.038603271484375,-0.1059096307901665,0.8612105138015002,0.9969663802683352,0.0614860691130161,0.0203862600028514,0.003941636532545
2.04863037109375,-0.1808606807475909,0.8275130460567772,0.973098597946763,0.0590695515275001,0.0136511549353599,0.0057357884943485
2.058657958984375,-0.2567132826546207,0.7700235646404325,0.9010153585106134,0.044517770409584,0.0184610895812511,-0.00679970998317
2.06868603515625,-0.3644751902479678,0.6928065425124019,0.7910363959223031,0.026205439120531,0.0173527374863624,-0.030310908332467
2.078713134765625,-0.4373105266930535,0.6870426452234387,0.6806956142842769,0.0034367439802736,0.0151753360405564,-0.0574964545667171
2.0887412109375,-0.439458060115762,0.740738068119064,0.5819891563385725,-0.0159423556178808,0.0232229195535182,-0.0757509917020797
2.09876806640625,-0.4593902565540745,0.8395048779498785,0.4997282217592,-0.0467066578567028,0.0467519499361515,-0.0884441509842872
2.108796142578125,-0.4240242710752412,0.9726050422761588,0.4813759879887104,-0.0766078904271125,0.0783691331744194,-0.0898485034704208
2.11882421875,-0.383173826303333,1.0302543173640966,0.3831529296457767,-0.0963871851563453,0.1104096248745918,-0.0774336457252502
2.128851318359375,-0.3703786786707118,1.0856873777072875,0.342877617880702,-0.1057559177279472,0.1367517560720443,-0.062957763671875
2.138879150390625,-0.4158141496779396,1.0678807220555842,0.3186310653746128,-0.1135235652327537,0.151869460940361,-0.051537599414587
2.14890625,-0.4727689031630754,1.0239528791323305,0.3326654359459877,-0.1229106709361076,0.1597164571285247,-0.0510204136371612
2.15893408203125,-0.5623772413631901,0.927326588461548,0.3550163839638233,-0.1392126828432083,0.1667714416980743,-0.0663096234202385
2.168962158203125,-0.6647174161687492,0.8385293839812278,0.3644125733405351,-0.1666361987590789,0.1802765876054763,-0.1007944792509079
2.178989013671875,-0.7067731816098094,0.8205081357307732,0.4087058885753155,-0.1977999806404113,0.1943756192922592,-0.1347729563713073
2.18901708984375,-0.6841760768111794,0.878971869006753,0.4894891518175601,-0.2291736304759979,0.1917674839496612,-0.1627319902181625
2.199045166015625,-0.6430371339540928,0.9604885610900818,0.5428408027768135,-0.2508980929851532,0.1775773763656616,-0.1829168796539306
2.209072021484375,-0.5854938765238971,1.048525667918101,0.5220838459521532,-0.2508028745651245,0.1372441798448562,-0.1923541128635406
2.21910009765625,-0.5804033484518528,1.0926723412238062,0.3960036433905363,-0.2391936182975769,0.0971252471208572,-0.2011923491954803
2.229127197265625,-0.688074180228263,1.1014919728215784,0.236779296118021,-0.2254214882850647,0.0675675123929977,-0.2065079361200332
2.2391552734375,-0.7396840290214866,1.106724393582344,-0.008931494474411,-0.1991595327854156,0.0562906190752983,-0.2095985412597656
2.24918212890625,-0.7939929076403379,1.116778023954481,-0.3211374952375889,-0.1673332750797271,0.0580260455608367,-0.196976289153099
2.2592099609375,-0.8542783033855259,1.2218530670840293,-0.6194482416391373,-0.1398859322071075,0.0760085061192512,-0.1556722670793533
2.26923828125,-0.7328072020545602,1.360063925487548,-0.9500696045368908,-0.1158230677247047,0.1275138705968856,-0.0746767744421958
2.27926513671875,-0.6132322897337377,1.4431819152876737,-1.2851648979783057,-0.1031600013375282,0.2084071189165115,0.023869240656495
2.289293212890625,-0.6202811853319407,1.3869229985795914,-1.5249883840978145,-0.0980678722262382,0.2952433228492737,0.1258653253316879
2.299321044921875,-0.5813357339311391,1.2076837450213729,-1.660194726923108,-0.0909899920225143,0.3836964964866638,0.207881361246109
2.30934814453125,-0.6682294428776949,0.9155184425722808,-1.669294563701749,-0.0787973031401634,0.4597509205341339,0.2345264703035354
2.319376220703125,-0.7695555818025023,0.6805696498170495,-1.5663070674359798,-0.0703076794743537,0.4827052354812622,0.1971684545278549
2.329403076171875,-0.7520740664519369,0.5145497971855104,-1.3263070557057857,-0.0705170631408691,0.4294221699237823,0.1287914514541626
2.33943115234375,-0.6214074128828943,0.345046486352384,-1.059216792476177,-0.0820594653487205,0.2939479649066925,0.0556125827133655
2.349459228515625,-0.3647550301026552,0.2264375329868868,-0.8728238677710294,-0.1077502742409706,0.1192493438720703,-0.0006996684824116
2.35948583984375,-0.0961646097094751,0.2092643529331311,-0.8839403050690889,-0.1367675364017486,-0.0509322397410869,-0.0392867401242256
2.36951416015625,0.1539220396133139,0.145014839329943,-1.249188744711876,-0.1396908611059188,-0.1749477237462997,-0.0603130124509334
2.379541015625,0.2765046093175187,0.0128516635928303,-1.7769652493476866,-0.1176436021924018,-0.2336344718933105,-0.0746232494711875
2.3895693359375,0.3238517591649666,-0.1897382896102964,-2.1522639583617447,-0.0856831222772598,-0.2465079128742218,-0.0812242925167083
2.39959716796875,0.3603398440089077,-0.4495335004609078,-2.261250402781368,-0.0644526705145835,-0.2000187188386917,-0.0898915529251098
2.4096240234375,0.338762766440399,-0.7516485345162451,-2.1942606870919463,-0.0583861917257308,-0.0876538679003715,-0.1144841015338897
2.419652099609375,0.1933865464521572,-1.0642557364914569,-2.117428791823983,-0.0532936938107013,0.0867975652217865,-0.1656144112348556
2.42967919921875,0.0654292112073162,-1.3017134433276951,-1.8525562046438453,-0.0502147078514099,0.2826439142227173,-0.2349428087472915
2.43970703125,-0.0629839506467804,-1.392146724577248,-1.199208031490445,-0.0476426258683204,0.411661297082901,-0.315553218126297
2.449735107421875,-0.1500008567147422,-1.3665781296871602,-0.3910322847187519,-0.044067308306694,0.457450121641159,-0.3959652781486511
2.45976220703125,-0.1834784072316251,-1.2028794865448027,0.4956669636696577,-0.0470103695988655,0.4154568612575531,-0.4762231111526489
2.469790283203125,-0.2148502267740666,-0.9910060836244374,1.2474848634034394,-0.0554460622370243,0.3106128275394439,-0.5508995056152344
2.47981689453125,-0.1714780084395781,-0.6914891032382845,1.8265397198557851,-0.0659889802336692,0.1710762232542038,-0.5954374074935913
2.48984521484375,0.0215258405716158,-0.4127480035729706,2.0709540408968925,-0.0677854344248771,0.0159348286688327,-0.5997776985168457
2.499873046875,0.1350158617544919,-0.2040696703668683,2.032037742525339,-0.0442886315286159,-0.1172727644443512,-0.571287214756012
2.509900390625,0.2301146688633598,-0.0213869983565062,1.824654636761546,0.0020807301625609,-0.2174358367919922,-0.51143878698349
2.519927978515625,0.3535704229392111,0.1213910948973149,1.5027087477505203,0.0666149854660034,-0.2890565097332001,-0.4298405647277832
2.529955078125,0.4052853395421057,0.2046142986375838,1.1329308479845523,0.1403771638870239,-0.3252693116664886,-0.3378158807754516
2.539983154296875,0.4106532232508063,0.179641477683559,0.7292945177584886,0.2083391696214676,-0.3280107676982879,-0.2489363253116607
2.55001123046875,0.3732419591473415,0.0879846459884196,0.4195668898075819,0.2520053684711456,-0.3156116604804992,-0.1617593467235565
2.5600380859375,0.4277212989622727,-0.0099693130895495,0.2201245139151811,0.2636524438858032,-0.2778312563896179,-0.0744606629014015
2.570066162109375,0.4766065450971946,-0.1320701636914164,0.0418067591160535,0.2619120478630066,-0.2334855496883392,-0.005724910646677
2.58009326171875,0.4297170758893713,-0.3157353074004873,-0.1301087274253368,0.2432289123535156,-0.1756701916456222,0.0315588116645813
2.590121337890625,0.3559610809354111,-0.4695222128594294,-0.2305710891276597,0.212307259440422,-0.0959865227341651,0.0346302315592765
2.60014892578125,0.2179914474092423,-0.6840458745602518,-0.2659966227740049,0.1828335225582122,-0.0130684664472937,0.0042297132313251
2.61017626953125,0.092332347203372,-0.838804620726034,-0.1591407606422901,0.1507546305656433,0.0626410841941833,-0.049670074135065
2.6202041015625,-0.0021496317649609,-0.9025812926530836,0.0501654221385717,0.1101779043674469,0.1234114840626716,-0.1292306780815124
2.63023095703125,-0.0831695647237356,-0.8675433700848371,0.3921148192584514,0.0679250508546829,0.1550638079643249,-0.2090087980031967
2.640259033203125,-0.0746028758405707,-0.7043360175907611,0.7175169862031936,0.0289147980511188,0.156603917479515,-0.2685826420783996
2.650287109375,0.0305917659475002,-0.4608351946653798,1.026275476861,0.0035160391125828,0.1216606423258781,-0.3011525869369507
2.660314208984375,0.1254771403682418,-0.179056115543656,1.2469406735241413,-0.0117193730548024,0.0835039392113685,-0.3062680065631866
2.670342041015625,0.1369838008265942,0.0654027752915397,1.385094760239124,-0.0204728301614522,0.0570534765720367,-0.2997150421142578
2.6803701171875,0.1099497638932894,0.2017563153905794,1.4802905797153711,-0.0202102418988943,0.0242212265729904,-0.2818657457828522
2.690397216796875,0.1082660759895108,0.2932056783474981,1.5373545291960238,-0.0136666093021631,-0.0099558504298329,-0.2600298523902893
2.700425048828125,0.0916073665302246,0.3777759493151679,1.5138281076580284,-0.001467733643949,-0.0396801903843879,-0.232716217637062
2.7104521484375,0.0561916692913044,0.4296355716183781,1.4439759882748129,0.0073430403135716,-0.0533812828361988,-0.206202745437622
2.72047998046875,0.0160210737094515,0.4519565263567492,1.378907011514902,-0.0002285931259393,-0.05325797945261,-0.1802316009998321
2.73050830078125,-0.0121008041263325,0.4520567353282123,1.318113812378049,-0.0169894453138113,-0.0465522110462188,-0.1580044329166412
2.740535400390625,-0.0811197834539227,0.4322143360652029,1.258116732054949,-0.0370371863245964,-0.0216777510941028,-0.1423040330410003
2.75056298828125,-0.1025471868860535,0.4623818030528724,1.2125462364912032,-0.0515708588063716,-0.0017776507884263,-0.1298847198486328
2.76059033203125,-0.0694209522911813,0.4943865684702992,1.2092577163398266,-0.0573440603911876,0.0010490282438695,-0.1153025701642036
2.7706181640625,-0.0302845814281608,0.5465538684831932,1.2119418408572673,-0.0588318035006523,-0.0144837405532598,-0.101754605770111
2.780646240234375,0.0336773588217445,0.6161956695839762,1.2177636788785458,-0.0581561587750911,-0.0446680076420307,-0.0792727321386337
2.790673095703125,0.1039580765972845,0.6455177717886865,1.1969488543868063,-0.0569547899067401,-0.0791167020797729,-0.0567494891583919
2.800701171875,0.1371943565710447,0.6014007995015009,1.1177572442501782,-0.0609551221132278,-0.1122570782899856,-0.0367803089320659
2.810728271484375,0.1411885407737456,0.5572716618524864,0.9499421787649392,-0.0633483976125717,-0.1335546523332595,-0.0189244840294122
2.820756103515625,0.1205402684879489,0.5098759966881945,0.7485679580271244,-0.0672501996159553,-0.1449274122714996,-0.0088753122836351
2.8307841796875,0.0949949266092851,0.462517192935571,0.5622475140362978,-0.0731035023927688,-0.1416686475276947,0.0018232092261314
2.840811279296875,0.0525761548084206,0.428063463463448,0.2789046196639537,-0.0832900926470756,-0.1192165985703468,0.0101304072886705
2.850839111328125,0.0385377565158996,0.4300639530982822,0.0288783039599657,-0.090294025838375,-0.0703926533460617,0.0249155052006244
2.8608662109375,0.1611166272925213,0.5050196061655878,-0.3540028230071068,-0.0925976634025573,0.0567844696342945,0.0620588771998882
2.87089404296875,0.1192021334856748,0.5806988242670893,-0.8742676368385552,-0.0795930922031402,0.2404981702566146,0.1056462824344635
2.880922119140625,0.0564463655715808,0.581022064872086,-1.1582067435383796,-0.0440327003598213,0.4156249761581421,0.1647197157144546
2.89094921875,0.1778898665095679,0.6924005189947784,-1.1607155114889145,-0.0022931506391614,0.5260980725288391,0.2347180247306823
2.90097705078125,0.1345765935543924,0.7885270434498787,-0.9650222589969636,0.0267124027013778,0.5750440955162048,0.2890403866767883
2.911004150390625,0.0368012698458041,0.7504539179041981,-0.7533914326608181,0.0328470841050148,0.5564728379249573,0.3307388424873352
2.9210322265625,-0.0192859526903368,0.6898514190338552,-0.5783908395856618,0.0199853479862213,0.4911854267120361,0.3620421588420868
2.931060302734375,-0.0904218282737769,0.5919981803840025,-0.4706418280065059,-0.0079141426831483,0.3913868367671966,0.3805647492408752
2.941087158203125,-0.1363807934321463,0.4432294318806379,-0.4502314926624298,-0.0461904220283031,0.2709845006465912,0.3848625719547272
2.951114990234375,-0.1444827965461649,0.2693976268565282,-0.5466840342015028,-0.0827463716268539,0.1561421006917953,0.371012419462204
2.96114208984375,-0.2230572976977564,0.0890248026911169,-0.761030549237132,-0.1145272031426429,0.0822375193238258,0.3456564545631408
2.971170166015625,-0.271136981337145,-0.090561876065284,-0.9643149875104426,-0.1336567103862762,0.0488261133432388,0.3117603361606598
2.981197998046875,-0.3090979517452418,-0.2239505750093608,-1.1171247915655371,-0.1525838077068328,0.0582262724637985,0.2734406292438507
2.99122509765625,-0.4149279779605567,-0.307095160555467,-1.1449112086355686,-0.1726289093494415,0.0892544016242027,0.2226791083812713
3.001253173828125,-0.4856499755134805,-0.3073874945655465,-1.0873685357272624,-0.1914675682783126,0.1114129647612571,0.1761204004287719
3.01127978515625,-0.4183881283517927,-0.1276933368466794,-1.0171662877321244,-0.2039357423782348,0.1248900294303894,0.1515015512704849
3.02130810546875,-0.2942271668823435,0.0661633478678762,-1.0284574970752,-0.190226063132286,0.1318062543869018,0.1584436148405075
3.0313359375,-0.0576911780009046,0.2539072487905621,-0.9990274044513702,-0.1489340513944625,0.1051506549119949,0.2022933512926101
3.04136328125,0.2819176108095795,0.5095872063420712,-0.9074164577245712,-0.0951307490468025,0.0184546411037445,0.2721840441226959
3.051390869140625,0.5196856257040053,0.7372965493630618,-0.7655956651955843,-0.0439084284007549,-0.1186303421854972,0.3450226187705993
3.06141796875,0.6057898647733032,0.8017964209981262,-0.6144324593037367,-0.0063282954506576,-0.315207302570343,0.4238452613353729
3.071446044921875,0.8230302015542984,0.8059640620715915,-0.5276946715712547,0.0055543575435876,-0.5113343596458435,0.5212425589561462
3.08147412109375,0.9600681437209247,0.69525335114263,-0.7578513346791267,0.0032477935310453,-0.6391541361808777,0.6095378398895264
3.0915009765625,0.7844596478804946,0.3462758820168674,-0.9649673139393328,-0.0141202788800001,-0.715344250202179,0.6611621379852295
3.101529052734375,0.6406616369944066,-0.140356565195322,-1.0939145963698624,-0.0368956290185451,-0.6991711258888245,0.6706104874610901
3.11155615234375,0.4315161246679723,-0.6611037557162344,-1.3420324481040238,-0.0527308620512485,-0.5838975310325623,0.6283403038978577
3.121584228515625,0.0922700134237296,-1.1248717524304983,-1.5489759934067726,-0.0749392285943031,-0.3996829688549042,0.5364900231361389
3.13161181640625,-0.1864818816302344,-1.5053279903382062,-1.4785013582110405,-0.1093911454081535,-0.184268981218338,0.4159645140171051
3.14163916015625,-0.3817808010423555,-1.7140072733923792,-1.175032206133008,-0.1629830151796341,0.0368463620543479,0.2863796353340149
3.1516669921875,-0.6063661668239161,-1.7996091889627277,-0.7279536245435476,-0.2138247489929199,0.2143155038356781,0.1711965501308441
3.16169384765625,-0.7898680097300559,-1.6629875725120304,-0.1764233193546533,-0.2452559024095535,0.2961139678955078,0.083508513867855
3.171721923828125,-0.8288740322116762,-1.3514999491512774,0.523341152536869,-0.2608814835548401,0.3038922548294067,0.0329678393900394
3.18175,-0.9106284785736352,-1.0299200439084322,1.1265589748650788,-0.2588697075843811,0.2389308363199234,0.0005068344762548
3.191777099609375,-1.0535016296997666,-0.794043176522851,1.6057459283769129,-0.2509711980819702,0.1410621404647827,-0.0133230071514844
3.20180517578125,-1.0889259943023324,-0.631697701555118,1.9477198754161595,-0.2384157180786132,0.0224830377846956,-0.002218424109742
3.21183203125,-1.115705791613087,-0.4651766944684088,2.1298247475385663,-0.2216819822788238,-0.0876695364713668,0.0383766666054725
3.221860107421875,-1.0510754985313862,-0.2796737774055451,2.143428909999132,-0.1938372999429702,-0.1824426651000976,0.0987087190151214
3.231887939453125,-0.9257057092614472,-0.0967171107593923,2.059551772394776,-0.1488851308822631,-0.2523965239524841,0.1838907748460769
3.2419150390625,-0.7162398789394646,0.1293142160467803,1.7664041078448294,-0.0823857262730598,-0.2770715355873108,0.287771612405777
3.25194287109375,-0.5487110830496996,0.2799899306826293,1.4036176744014024,0.0016116389306262,-0.255784273147583,0.3956407010555267
3.26197119140625,-0.3919929829770699,0.3140548435002565,1.1487632078886032,0.0907886549830436,-0.2282903492450714,0.4944879114627838
3.271998291015625,-0.2403014240958727,0.2822989382773637,1.0233271484494209,0.1619741767644882,-0.1815090477466583,0.5640136003494263
3.28202587890625,-0.2383145245949737,0.206992206750065,0.9675643446952104,0.2118285596370697,-0.1329798698425293,0.591000497341156
3.29205322265625,-0.26330312764002,0.0727448451500386,0.9888339272171258,0.2318084836006164,-0.1033777296543121,0.5828275084495544
3.3020810546875,-0.2265284992059692,-0.1020609560053795,1.0947867030292748,0.2209766060113906,-0.0953490957617759,0.5431442260742188
3.31210791015625,-0.3006953582494519,-0.2692898191004991,1.1769833402007817,0.1835484802722931,-0.1043242290616035,0.4609074592590332
3.322135986328125,-0.3884921352492645,-0.4344950674135238,1.2696645465075969,0.1349023878574371,-0.1404785066843032,0.3574191331863403
3.332163818359375,-0.3635431700948625,-0.4917012018438428,1.252317690387368,0.0792874544858932,-0.1750699579715728,0.2383172214031219
3.342191162109375,-0.4104007463270798,-0.4520665991351008,1.212587737545371,0.0207841955125331,-0.1851545572280883,0.1108743026852607
3.35221923828125,-0.4025493021743372,-0.3506209254838526,1.1931313419252634,-0.0338338054716587,-0.1959586590528488,-0.0019434939604252
3.362245849609375,-0.1841291810242459,-0.1124817391894757,1.102322943753004,-0.0671832412481308,-0.1670700162649154,-0.0694865882396698
3.372274169921875,-0.0265911154713947,0.1836942602057009,0.8684329393357038,-0.0735587552189827,-0.1091896146535873,-0.1016871556639671
3.382302001953125,0.0048839087171945,0.4417027337700128,0.6826864958405494,-0.0558348931372165,-0.0247687436640262,-0.1091746315360069
3.3923291015625,0.0530701580035965,0.673001041193679,0.6229407599300145,-0.020592538639903,0.041858360171318,-0.0993279293179512
3.40235693359375,0.0662675571610219,0.8274407114729285,0.7126163546800613,0.0159199312329292,0.0918493568897247,-0.0743096619844436
3.412385009765625,-0.073398285823781,0.9465516595438124,0.8640636382102965,0.0329503007233142,0.1107483804225921,-0.0604210905730724
3.422412109375,-0.2031575787569396,0.9864485664505512,1.1002356160849331,0.0262918677181005,0.1091342344880104,-0.0487026497721672
3.432440185546875,-0.2867924685706384,0.9803531721848994,1.222992227181792,0.004638809710741,0.0989878922700882,-0.0431334674358367
3.442467041015625,-0.4516006986564025,0.9088996820196508,1.2182055774271487,-0.0135862668976187,0.0845831185579299,-0.049618799239397
3.4524951171875,-0.5956003695944324,0.8265694815963506,1.1324433567285537,-0.0309823416173458,0.070094957947731,-0.0621388293802738
3.462523193359375,-0.6811624280784279,0.8003880155049264,1.0492179610311985,-0.0474217683076858,0.0615448802709579,-0.0838547796010971
3.472550048828125,-0.7415425163697451,0.8091819281395525,0.9534119007021188,-0.0660765916109085,0.0543163157999515,-0.0974499732255935
3.482577880859375,-0.7195083061508833,0.842528536619991,0.8898802165120839,-0.0878625810146331,0.0643862560391426,-0.1056690216064453
3.492605224609375,-0.7168381370935588,0.8635811153903603,0.7619540938228369,-0.1088798195123672,0.0934787467122078,-0.1028280332684516
3.502633056640625,-0.6996049704808741,0.9149329708345234,0.6513777498632669,-0.1197202131152153,0.1254899501800537,-0.0930347889661789
3.5126611328125,-0.647743631144613,0.9580123071696608,0.5479290658265352,-0.1162331700325012,0.1466858834028244,-0.0827537029981613
3.52268798828125,-0.6611203415248542,1.005309334265068,0.5145382528781891,-0.1085257157683372,0.1557049453258514,-0.0773573443293571
3.532716064453125,-0.6919469300083816,1.0215727059975266,0.4955477212041616,-0.1033610254526138,0.1388802528381347,-0.0770629718899726
3.542742919921875,-0.6910269656192511,0.9875524360392242,0.4825064533233642,-0.1110309287905693,0.1112675368785858,-0.0832231268286705
3.55277099609375,-0.6959982512257993,0.9658138477660716,0.4027636390447616,-0.1241551637649536,0.0783428698778152,-0.0970994159579277
3.562799072265625,-0.7156479043956846,0.9271737359873948,0.2236754843950271,-0.1359369903802871,0.042615495622158,-0.1089392974972724
3.572826171875,-0.7174340571600943,0.9345896382670849,-0.0369119728118181,-0.1427001655101776,0.0127272168174386,-0.1080367863178253
3.58285400390625,-0.667521440738812,0.9282070245578884,-0.3639659986168146,-0.1381991654634475,0.0034450353123247,-0.0923901796340942
3.592881103515625,-0.590080071802996,0.8730272813886404,-0.7418243289858102,-0.1260372549295425,0.0075245909392833,-0.0639472901821136
3.602908935546875,-0.5898475782213732,0.7734773583561182,-1.038718778848648,-0.1043577790260315,0.0149281788617372,-0.0387447290122509
3.612937255859375,-0.6099466921918094,0.646663726953417,-1.2516121724665163,-0.0846509113907814,0.0192593783140182,-0.0263497661799192
3.6229638671875,-0.6378376656148582,0.5459900605879724,-1.3958780200600622,-0.0856828838586807,0.0335989035665988,-0.0183986332267522
3.632991943359375,-0.661449135087803,0.3809548350796103,-1.4949597410589457,-0.110920064151287,0.0715034082531929,-0.0254847723990678
3.64301904296875,-0.6779515032079071,0.2492708942268043,-1.5239754076629877,-0.1502760052680969,0.1371849477291107,-0.0378855168819427
3.653047119140625,-0.6531149489194155,0.2028811912346631,-1.5163678552687168,-0.1811549365520477,0.2054877430200576,-0.0617244690656662
3.663074951171875,-0.5811704603668302,0.322646511561051,-1.3960983848124742,-0.188994750380516,0.2156213372945785,-0.1005344465374946
3.67310205078125,-0.5096703545808792,0.4888509269792586,-1.1511714380741118,-0.1750138700008392,0.1184722185134887,-0.1491739451885223
3.6831298828125,-0.4161787452066317,0.5474405516572296,-0.9414017294347286,-0.1537021845579147,0.0001820600591599,-0.1928031742572784
3.6931572265625,-0.3671879563380033,0.502996722035855,-0.8513444418907165,-0.1494340002536773,-0.1414481699466705,-0.2235025614500045
3.703184814453125,-0.1978232137253507,0.541710118246451,-0.898753843319416,-0.1620371490716934,-0.2713342607021332,-0.2320025712251663
3.713213134765625,-0.0031296945941634,0.6539259730413556,-1.1352356177955865,-0.1629157662391662,-0.4015799164772033,-0.2136376649141311
3.723239990234375,0.0721022272644098,0.6628519876230508,-1.573006857335567,-0.1477890163660049,-0.5044496059417725,-0.1780309379100799
3.73326806640625,0.0933085078923031,0.5498876525484026,-1.9997475842952728,-0.130675196647644,-0.5541571974754333,-0.1341437548398971
3.743295166015625,0.0672339362414553,0.2932296437449753,-2.2511235610425477,-0.125779241323471,-0.5286073684692383,-0.1013461276888847
3.753322998046875,-0.057809698947193,-0.0680761957518756,-2.229596788889169,-0.1439933627843856,-0.4398544430732727,-0.0899015590548515
3.76335107421875,-0.1507413272179663,-0.432196362017095,-2.016571877846121,-0.1696896702051162,-0.3025327920913696,-0.1068565770983696
3.7733779296875,-0.1854834269111044,-0.7047540968723595,-1.695782757654786,-0.1841025352478027,-0.1489423364400863,-0.1466623693704605
3.78340576171875,-0.170731482654903,-0.8454336104117334,-1.3960785110682248,-0.1623503714799881,0.0128114121034741,-0.1885184645652771
3.79343310546875,-0.0582142520269379,-0.8184162780180573,-1.1016156722664832,-0.1160651296377182,0.1627279669046402,-0.2197040915489196
3.8034609375,0.0281207635909318,-0.717287707491964,-0.6823544874072075,-0.0634738206863403,0.2570168972015381,-0.2331770211458206
3.8134892578125,0.0863482404256239,-0.6716011843331158,-0.0186024091392755,-0.0137138040736317,0.2683709859848022,-0.2476662099361419
3.82351611328125,0.1776745067258365,-0.6198046538613736,0.6466092202872038,0.0100895296782255,0.213935449719429,-0.2630848586559295
3.833544189453125,0.2387564596761949,-0.5046009423620998,1.2129033793658015,0.0093636931851506,0.1205228567123413,-0.2848840951919555
3.8435712890625,0.2501646647287532,-0.5049323662735522,1.5575287176966666,0.0011883217375725,0.0252791568636894,-0.2951202094554901
3.853598876953125,0.3338846024774015,-0.5224240376919508,1.636977517464757,0.0069577093236148,-0.0520729459822177,-0.2874164581298828
3.863626953125,0.4425319146031513,-0.499959692427516,1.5645429803729056,0.0367158725857734,-0.1063375174999237,-0.2636554837226867
3.873654052734375,0.5429129912301898,-0.457680785755068,1.4197574928194283,0.0954337492585182,-0.1334007531404495,-0.2381143420934677
3.88368212890625,0.5918841620828956,-0.4426566734939813,1.277840254178643,0.1640423834323883,-0.1554749011993408,-0.2194351851940155
3.893708984375,0.644538551492989,-0.4550403542488813,1.1866788047850132,0.2276933044195175,-0.1808781325817108,-0.2000603526830673
3.903737060546875,0.719150140362978,-0.4903973527036607,1.1050544145435095,0.2722488045692444,-0.207723319530487,-0.1799106150865554
3.91376513671875,0.7736188126534224,-0.5402908260330558,1.0094172810405493,0.2896386981010437,-0.2355157285928726,-0.1562723070383072
3.923792236328125,0.8557437728282064,-0.5747825859606266,0.8263608072817326,0.3002945482730865,-0.2540984451770782,-0.1357220262289047
3.933820068359375,0.8922146508090197,-0.6761020759489387,0.5652613088995218,0.3079700469970703,-0.2584423422813415,-0.115881472826004
3.94384716796875,0.9256661079034209,-0.7430551128897815,0.3113116822719574,0.3204996883869171,-0.2494531124830246,-0.0965490564703941
3.953875,0.907688114272803,-0.8264693091575056,0.0942009632200002,0.3324014544486999,-0.2238052785396576,-0.0896510705351829
3.9639033203125,0.8373622398979962,-0.8976173866353928,-0.0622393062919378,0.3342323899269104,-0.1692932993173599,-0.0960780754685401
3.973929931640625,0.7759400952078401,-0.973137760913372,-0.0899590878665447,0.3202716410160064,-0.0984487310051918,-0.1206011027097702
3.99210498046875,0.715556938176602,-0.969278016745299,-0.0436672922909259,0.2538446187973022,0.0483033061027526,-0.1906508356332779
4.002132080078125,0.5720094314528629,-0.9715541449837386,0.1458218448638916,0.2132149040699005,0.1128426119685173,-0.2420921921730041
4.012159912109375,0.4322240172090008,-0.9246116304144264,0.3466302484124898,0.184127390384674,0.1501365900039672,-0.2941822409629822
4.02218701171875,0.3739698715630918,-0.7986345229011028,0.5938777470529079,0.1582632958889007,0.1459098756313324,-0.3314606249332428
4.032215087890625,0.4332679002387449,-0.5542767543528229,0.8789894046634436,0.1436834335327148,0.1169569790363311,-0.352300077676773
4.042242919921875,0.4709812160287052,-0.2700554697107523,1.1063462079197168,0.1301415264606475,0.0653710141777992,-0.3511354625225067
4.05227001953125,0.488670163584873,-0.0620566432014107,1.2853519449830055,0.1190779581665992,0.0116658108308911,-0.329801082611084
4.0622978515625,0.5204222694154829,0.1398656398732215,1.4088321941792965,0.1027660965919494,-0.0338992774486541,-0.2934316098690033
4.072324951171875,0.5209572165424003,0.3271815246421843,1.4432996964484452,0.0881338939070701,-0.0634529069066047,-0.2535686194896698
4.082353271484375,0.4746363775353878,0.4547623410250991,1.369861535272002,0.0827575027942657,-0.065628707408905,-0.211124762892723
4.092380859375,0.4019353349944576,0.4981647718347609,1.247640346226096,0.0814892724156379,-0.0468044504523277,-0.1766240298748016
4.102408203125,0.3168514154162257,0.5156624346025288,1.130426756209135,0.0804136171936988,-0.0230051130056381,-0.1433632671833038
4.11243603515625,0.2795030970137566,0.5114440862551332,1.0940730018019675,0.0770222395658493,-0.0059241228736937,-0.1180295497179031
4.122462890625,0.2816734267901629,0.5505607295043766,1.0998942553013562,0.0655107274651527,0.0028539225459098,-0.1021027863025665
4.132490966796875,0.2698671075318009,0.5898278140749782,1.1410264761567117,0.0422761179506778,-0.0091106817126274,-0.0925358682870864
4.14251904296875,0.2704732932640239,0.6545008503198624,1.2349597283512352,0.012897191569209,-0.0520890392363071,-0.0817189067602157
4.152546142578125,0.2977271378273144,0.7426121183626353,1.3058347610414027,-0.0188814420253038,-0.1183975338935852,-0.0668857395648956
4.162573974609375,0.3458788455232978,0.8274955834653228,1.310342009332776,-0.0462515465915203,-0.1807495951652526,-0.0508295483887195
4.172600830078125,0.3648879357673227,0.8774216438900679,1.1677554931282996,-0.0689928010106086,-0.2247028201818466,-0.0247584581375122
4.182629150390625,0.3886727890457958,0.9216971312072127,0.9608779987990856,-0.0884770229458808,-0.2583614587783813,0.0055459192954003
4.192656982421875,0.4651977372564375,0.9912073783501982,0.7112240235388279,-0.1003265902400016,-0.2554595470428467,0.0476272739470005
4.20268408203125,0.5080531286425888,1.0201805940520017,0.3921183263897895,-0.1025159731507301,-0.217489555478096,0.0928165912628173
4.2127119140625,0.4825837198106572,0.9496170384638012,0.0619376929968595,-0.0987899005413055,-0.1755402088165283,0.1389595568180084
4.222739013671875,0.4821193537019193,0.8311907116562127,-0.1716337469905614,-0.0934523940086364,-0.1289245039224624,0.1700745970010757
4.23276708984375,0.4807103271542117,0.7369708976052701,-0.2952969515383243,-0.092761106789112,-0.0957707688212394,0.1783723384141922
4.242794921875,0.4220588162211701,0.6800782130382955,-0.3355687561720609,-0.1002227514982223,-0.0946064293384552,0.1748108863830566
4.252822021484375,0.421489711096324,0.5892736873235553,-0.3276765416175127,-0.1153850331902504,-0.1146238073706626,0.1625788658857345
4.26285009765625,0.4260373279307037,0.5175924528170377,-0.3102449298232793,-0.1353441029787063,-0.1467085033655166,0.1512010395526886
4.272876708984375,0.4117828848678618,0.5021834328915924,-0.3647077568948269,-0.1477171331644058,-0.1731639802455902,0.1540248692035675
4.282905029296875,0.4776175853032618,0.4658370580732822,-0.5346604189306498,-0.1501869559288025,-0.197534829378128,0.167040005326271
4.292932861328125,0.4995490658000111,0.4410080295041203,-0.7376736390471458,-0.1447855830192566,-0.2068321704864502,0.1852566748857498
4.302960205078125,0.5185998032286763,0.4044399747591465,-0.9587374796390532,-0.1296074390411377,-0.1914963573217392,0.2013725191354751
4.31298779296875,0.5124415728598832,0.2938460220776498,-1.1508417677283287,-0.1212371215224266,-0.1579050868749618,0.2108475118875503
4.323014892578125,0.4194468436244875,0.1339963094484061,-1.261568333813548,-0.1252134889364242,-0.1051910072565078,0.1997184306383133
4.33304296875,0.30074148067981,-0.0254245833095163,-1.2912754898130894,-0.1373061239719391,-0.0624116882681846,0.1761387139558792
4.343071044921875,0.239321747142449,-0.125006581980735,-1.2559779664605857,-0.1411400139331817,-0.0502871125936508,0.1466924101114273
4.353097900390625,0.2138083895709365,-0.1141428773347288,-1.241165597254038,-0.1367062479257583,-0.0565044432878494,0.1255167722702026
4.372527099609375,0.2901177222695201,-0.0235064747285097,-1.3624170644849538,-0.0883820429444313,-0.0624885223805904,0.1741831004619598
4.382553955078125,0.4710403988700359,0.0112920861259102,-1.545935310536623,-0.0086003933101892,-0.1052642166614532,0.2425475120544433
4.39258203125,0.6733186557754873,0.2016091985374689,-1.7635685921579598,0.0857508480548858,-0.1575638204813003,0.314723789691925
4.40260986328125,0.7295814449410886,0.3481444523677229,-1.9997037451535464,0.1624568104743957,-0.17563097178936,0.3816242516040802
4.412636962890625,0.6531180907245725,0.2653160931639373,-2.1796979087322947,0.1989041864871978,-0.1433071047067642,0.4377805888652801
4.4226650390625,0.555178598563373,0.0671635378863662,-2.219640627542138,0.194390133023262,-0.0433911643922328,0.4728221893310547
4.43269189453125,0.3748449008319526,-0.2627224964741617,-2.168321359193325,0.1669177114963531,0.1138793900609016,0.4665853381156921
4.442719970703125,0.1188867839261889,-0.6550134029518813,-2.027567903634906,0.1436222344636917,0.2752264440059662,0.4243840873241424
4.452748046875,-0.1214631372202187,-0.9925640536561608,-1.7283125698596238,0.1288830339908599,0.3722437024116516,0.3471703231334686
4.46277490234375,-0.2921481321185827,-1.2147107941139488,-1.227258067932725,0.0972998142242431,0.4151136577129364,0.2368891090154647
4.472802978515625,-0.5004026869546622,-1.2892156346738337,-0.5128600905328988,0.042261753231287,0.4108930826187134,0.0982570648193359
4.482830078125,-0.6906986835129558,-1.3398068810090422,0.2821066305756569,-0.0339083820581436,0.3580663502216339,-0.0440002121031284
4.492858154296875,-0.7764810702167451,-1.3330240890011191,0.990256653496623,-0.1086464822292327,0.2868416011333465,-0.1721570491790771
4.502885986328125,-0.8394881460107863,-1.1997009295739234,1.5357587844371794,-0.1728337258100509,0.1928895115852356,-0.2725068032741546
4.512912841796875,-0.8701118323333561,-0.9668583153177052,1.8881641091197727,-0.2222530543804168,0.0886222496628761,-0.3370542526245117
4.52294091796875,-0.8698529622014611,-0.7154547199111432,2.1275573871284723,-0.2504863142967224,-0.005453651305288,-0.3590133488178253
4.532968017578125,-0.8769042689524591,-0.5092653539765626,2.153440016403794,-0.2447115629911422,-0.0818810984492302,-0.3408223390579223
4.542995849609375,-0.877813638882339,-0.3447618241921067,2.034601455533505,-0.2100246995687484,-0.1404831707477569,-0.2794817388057709
4.55302392578125,-0.838056359641999,-0.1192525484986603,1.860880380874872,-0.15150748193264,-0.1848049312829971,-0.185492604970932
4.563051025390625,-0.7949379334054887,0.1102130636051297,1.6350053406089544,-0.0710592567920684,-0.2266653031110763,-0.0564275607466697
4.5730791015625,-0.7028059584792703,0.3243946704026311,1.3681693444013594,0.0142847821116447,-0.2694540619850158,0.1017803326249122
4.58310595703125,-0.5216405591640622,0.4955880532145499,1.1334762069076298,0.0861427262425422,-0.3181347846984863,0.2736665904521942
4.593134033203125,-0.336543008031696,0.5767826006714254,0.9367717315465212,0.1351420730352401,-0.3559636771678924,0.4385946989059448
4.603161865234375,-0.2143766179129481,0.5368899315483868,0.7952987295418977,0.1744402050971985,-0.3476191759109497,0.5740963220596313
4.61318896484375,-0.1723455485217273,0.4056823029704391,0.3832441150605678,0.2103393524885177,-0.3066736161708832,0.6705360412597656
4.623216796875,-0.178771928307414,0.1045626366280019,0.0291875160396099,0.2384287714958191,-0.2271620035171508,0.7167376279830933
4.633243896484375,-0.2593498782359063,-0.1927428782537579,-0.2990980973869562,0.2502033710479736,-0.1156890392303466,0.7149208784103394
4.643272216796875,-0.3235074392393231,-0.5328044158004224,-0.5522773241639137,0.2312778830528259,-0.0013062711805105,0.6531845331192017
4.653300048828125,-0.4932132869072258,-0.838674637670815,-0.5905062247931957,0.1845672726631164,0.1082744002342224,0.5485102534294128
4.663326904296875,-0.5933293924551457,-1.0902425567936151,-0.4622147759228944,0.1124185100197792,0.2205263674259185,0.4136368334293365
4.67335498046875,-0.6852652602873742,-1.2074579003762451,-0.2329600300908088,0.03795712813735,0.2915195524692535,0.2698159217834472
4.683382080078125,-0.7137740002825855,-1.223103067145124,0.1592594185858964,-0.0206103101372718,0.3136847615242004,0.1352394670248031
4.69341015625,-0.617548253236711,-1.1232272731591015,0.5639823750048876,-0.0536467395722866,0.3081236183643341,0.0100420881062746
4.70343798828125,-0.5975521977819502,-0.8788091527257114,0.9266764539897442,-0.0599693544209003,0.2634669542312622,-0.0974878296256065
4.71346484375,-0.5717533012673258,-0.5894135341856628,1.2482938416987657,-0.0538164228200912,0.195069745182991,-0.176196202635765
4.7234931640625,-0.4830525428988039,-0.2226744906589388,1.5736106684476137,-0.0492211431264877,0.1264549940824508,-0.2255826741456985
4.733519775390625,-0.3829670151522383,0.1231166035156696,1.796594078925252,-0.0453325919806957,0.0759672746062278,-0.2526679337024688
4.743548095703125,-0.3832073267141357,0.4019456737253815,1.8352578638404609,-0.0341568998992443,0.0521932318806648,-0.2616800665855407
4.753575927734375,-0.4019195529034361,0.6074021222755313,1.781827886947989,-0.0156414285302162,0.0465278774499893,-0.2536547482013702
4.763603271484375,-0.4238431058220565,0.7835484513197094,1.704805437543988,0.011955046094954,0.0430178306996822,-0.2398939430713653
4.773630859375,-0.470574973315373,0.9329436976909636,1.631616867214441,0.0353224202990531,0.0423075668513774,-0.2251245826482772
4.783657958984375,-0.5429509851530194,1.0625450601160529,1.5753917066454886,0.0502923130989074,0.0423871949315071,-0.2114540338516235
4.79368603515625,-0.5977663519892841,1.1660077726781368,1.4950322217732668,0.0565250925719738,0.0413517020642757,-0.1944353431463241
4.803714111328125,-0.6479371078900993,1.2240739580038935,1.4175199430257082,0.0573069974780082,0.0332807265222072,-0.1757692545652389
4.813740966796875,-0.7126255608998239,1.297768358963728,1.3580495169252156,0.052965722978115,0.020208466798067,-0.1576600819826126
4.82376904296875,-0.8133498614739626,1.33118547539711,1.252459729206562,0.0454838387668132,-0.0160542018711566,-0.1371742486953735
4.8337958984375,-0.8414044279608875,1.3499793154552575,1.147291966292262,0.0216660238802433,-0.0443618856370449,-0.1256827861070633
4.84382421875,-0.9218035141911356,1.3060155244357885,1.0224363370895384,-0.0232524462044239,-0.0368134230375289,-0.1194493770599365
4.853851806640625,-1.0355915867388248,1.2022618661031126,0.8801163628667592,-0.0711459219455719,-0.0137745887041091,-0.1132158860564231
4.863879150390625,-1.0617933649659157,1.058222447676584,0.7393295895606279,-0.1073872819542884,0.0233112592250108,-0.1099665686488151
4.873906982421875,-1.0735849981117993,0.9827746271781624,0.5432686728000641,-0.123812660574913,0.0707762837409973,-0.105494201183319
4.883933837890625,-1.09809896938242,0.937974969856441,0.3858943373084068,-0.1288420408964157,0.0968206673860549,-0.1071568131446838
4.8939619140625,-1.0711359244592489,0.8639859698642045,0.3677051851451396,-0.1272885352373123,0.0966455042362213,-0.1092277243733406
4.903989990234375,-1.0784580840408802,0.8260108248002827,0.3910305311530828,-0.1297447681427002,0.0736094266176223,-0.1154355555772781
4.91401708984375,-1.062203114810586,0.784077224434167,0.4275906217873096,-0.1412794440984726,0.0393406637012958,-0.1234330311417579
4.924045166015625,-1.0473742328606546,0.748343574686721,0.4361591281682253,-0.1504428535699844,-0.0028970711864531,-0.1246865764260292
4.93407177734375,-0.9926907487757504,0.7535665700320154,0.3486754905045032,-0.146874114871025,-0.0537517443299293,-0.1153291538357734
4.9441005859375,-0.8825430054917931,0.767822985856235,0.1438929226279258,-0.1275914907455444,-0.1017115488648414,-0.0981610864400863
4.954128662109375,-0.7565102222684771,0.7994960351012647,-0.1424146667689085,-0.0990653410553932,-0.136052668094635,-0.0693610310554504
4.96415576171875,-0.6529495292246341,0.8014794640034437,-0.4964245040386915,-0.0544765666127204,-0.1622584462165832,-0.0422953255474567
4.97418359375,-0.5696484014099463,0.668193787042424,-0.8644809868395328,-0.0253696870058774,-0.1640067249536514,-0.006781302858144
4.984210693359375,-0.4502678426174447,0.6147884331345558,-1.1484510731995106,-0.0104703661054372,-0.1347455084323883,0.0251651797443628
4.994238525390625,-0.3857944936631247,0.4779324234060942,-1.4150819022238257,-0.0164405982941389,-0.0738326013088226,0.0454619042575359
5.004266845703125,-0.3699027682546526,0.2712486250180751,-1.6129291178792715,-0.0407770983874797,0.0198941584676504,0.0476819165050983
5.01429345703125,-0.3740604724559933,0.0695160923618823,-1.7665005539566276,-0.0679473280906677,0.1350734084844589,0.0305761974304914
5.02432177734375,-0.3397787385499105,-0.1339115537744015,-1.838213206514716,-0.0884744450449943,0.2401148676872253,-0.0190699193626642
5.0343486328125,-0.3328850335134193,-0.2392635872144252,-1.7906097438186406,-0.0864830315113067,0.2742107808589935,-0.0878432467579841
5.04437646484375,-0.3364154361292719,-0.2056569395583123,-1.607991076955199,-0.0697349458932876,0.2423303574323654,-0.1585935950279235
5.054404541015625,-0.2715351503418758,-0.1213901450492441,-1.4158108010202646,-0.0487564764916896,0.1962038427591323,-0.2258860766887664
5.064431640625,-0.1818215251363814,-0.0617664280831813,-1.3575930053293703,-0.0259227976202964,0.1249887943267822,-0.2681269943714142
5.074459716796875,0.008674012582004,0.1236504181314259,-1.3540227456271647,-0.0097132036462426,0.02811817266047,-0.2817485332489013
5.084486572265625,0.2294269971264526,0.3893058993175625,-1.4064537746101615,0.0188295077532529,-0.0727889090776443,-0.2564239203929901
5.094514404296875,0.4075152540186419,0.5777987189114093,-1.6910896314024924,0.0472813472151756,-0.1631936728954315,-0.1981158405542373
5.104542724609375,0.5302853091189638,0.680466554768756,-2.000323922878504,0.0692178010940551,-0.2010033577680587,-0.1173312440514564
5.114569580078125,0.6272573810201137,0.6175264067310839,-2.246374320688844,0.0899860635399818,-0.1711505800485611,-0.0349101908504962
5.12459765625,0.6625108460351824,0.46974838629812,-2.4444383939653638,0.0929032936692237,-0.0246860384941101,0.0351538471877574
5.13462451171875,0.6275226808927953,0.2713083193160593,-2.5596692857325074,0.0976369604468345,0.2103809267282486,0.0750197023153305
5.144652587890625,0.4829474750891327,-0.0896629544641822,-2.5393010359644888,0.108406513929367,0.4881150722503662,0.0709623768925666
5.1546806640625,0.2632913458706811,-0.4795632394783198,-2.235193001461029,0.1087038516998291,0.6828311085700989,0.0088033713400363
5.16470751953125,-0.0056707025801762,-0.8503103496026247,-1.407434017819166,0.0951763242483139,0.7655707597732544,-0.1073930040001869
5.174735595703125,-0.2017054619861766,-1.042851275543496,-0.3848690859138965,0.0487930104136467,0.7430666089057922,-0.2575969696044922
5.1847626953125,-0.3249658944193274,-1.0781694032926112,0.7164543254077435,-0.0185506083071231,0.6438689231872559,-0.4174111187458038
5.194790283203125,-0.4197453881796449,-1.0542272405605762,1.5704741239875557,-0.0755100548267364,0.5081257820129395,-0.5537885427474976
5.204818603515625,-0.4041418685954064,-0.9812520937860012,2.0523796888083217,-0.1221595853567123,0.3463011980056762,-0.6470940113067627
5.214845703125,-0.2967239521341398,-0.7840689680624753,2.418629998970032,-0.1535501778125763,0.2029233276844024,-0.6863098740577698
5.224873779296875,-0.0619384236492216,-0.4765780861876905,2.4982395422577857,-0.1573145687580108,0.0853761956095695,-0.669776439666748
5.234900634765625,0.0933712709302082,-0.2381676086712628,2.355454288610816,-0.1118390560150146,-0.0061315121129155,-0.6039122939109802
5.2449287109375,0.3176670791806653,-0.0819054722052067,2.0417367142409084,-0.0229501910507679,-0.0622565671801567,-0.5157584547996521
5.25495654296875,0.4426685831274837,0.067803224029392,1.655924209997058,0.0828294605016708,-0.0787455588579177,-0.4311817586421966
5.264983642578125,0.3883782630786299,0.087296152267605,1.313031394547224,0.1851678192615509,-0.0814739689230918,-0.3464058637619018
5.275011474609375,0.4008045408662408,0.0192034437723457,1.020473512583971,0.2600508034229278,-0.0768386721611023,-0.260870099067688
5.28503857421875,0.3952567340133711,-0.1122547985658049,0.8638584710270166,0.2929365932941437,-0.0778288319706916,-0.1862824261188507
5.295066650390625,0.3347285059556364,-0.2579828276664018,0.7554799293726682,0.2898394763469696,-0.0879925414919853,-0.1200891509652137
5.3050947265625,0.3418587596943602,-0.3903229674056172,0.6509498798400163,0.2789202332496643,-0.1052684634923935,-0.0554832555353641
5.31512158203125,0.3814231101784855,-0.5021853325877338,0.4733090013891458,0.2655546069145202,-0.1088509336113929,-0.0022147269919514
5.325149658203125,0.3500338463108986,-0.5994607348170131,0.2061830823242664,0.2632286250591278,-0.0977157205343246,0.0345211811363697
5.3351767578125,0.2859673793907277,-0.7392216722067445,-0.0380675725877285,0.2690112292766571,-0.0696458667516708,0.0574755705893039
5.345204833984375,0.2476340137399733,-0.8807332526560873,-0.2445803252577781,0.2662569880485534,-0.0133602172136306,0.0566372089087963
5.355232421875,0.1344741560932248,-0.9929449427325278,-0.2937164043486118,0.246102750301361,0.0557296723127365,0.0298907924443483
5.365259521484375,-0.0221088646239601,-1.0886883861541747,-0.1821387743920087,0.2161440551280975,0.1246083378791809,-0.0139264641329646
5.375287841796875,-0.0833446746954694,-1.1011567495178431,0.037104280513525,0.1831540316343307,0.1749838143587112,-0.0669779330492019
5.385314453125,-0.1886873009863309,-1.1093290961880236,0.3225181359410285,0.1532203704118728,0.191085547208786,-0.1197623163461685
5.3953427734375,-0.2033816515700891,-0.9575452741798012,0.6947410907715559,0.1310952603816986,0.1665898859500885,-0.1637825518846511
5.40536962890625,-0.1714102404329925,-0.7233220192201435,1.0631249058306216,0.113953024148941,0.1173752099275589,-0.1874489933252334
5.415397705078125,-0.1233330136121716,-0.4172952185485511,1.329872639232874,0.1092735677957534,0.0596412532031536,-0.1764443665742874
5.42542578125,0.0210805170900654,-0.0772240363907069,1.497007905760407,0.1106219217181205,0.0014328057877719,-0.1362881511449813
5.43545263671875,0.1385428485705517,0.2037133312098681,1.5638590897619724,0.1238196492195129,-0.0452781245112419,-0.0783381089568138
5.445480712890625,0.1858070693749003,0.3881954538576305,1.5193255360305309,0.1450114846229553,-0.0443617329001426,-0.010075963102281
5.4555078125,0.2214308838060125,0.5523463708121329,1.2814426625847817,0.1656958907842636,-0.0504702143371105,0.0540006272494792
5.465535400390625,0.1490610825134441,0.5677849090930074,1.271121175056696,0.1856940984725952,-0.0674915388226509,0.1134916543960571
5.475563720703125,0.2131933629451319,0.6071001436542719,1.2395733596265317,0.1900965720415115,-0.0827413350343704,0.1603060364723205
5.485590576171875,0.2792865681862458,0.7102066631898284,1.1636708541631695,0.1808370351791381,-0.0898543670773506,0.1888756304979324
5.495618896484375,0.2294767362860031,0.704908849042654,1.075908984079957,0.1538614928722381,-0.1151385828852653,0.2060558944940567
5.5056455078125,0.2613311882462352,0.6436453289803117,1.095592174193263,0.1186033859848976,-0.1487713754177093,0.2192758321762085
5.515673583984375,0.3353369567101821,0.701383159134537,1.0850152505993842,0.0786236971616745,-0.1760501563549041,0.2206966280937194
5.52570166015625,0.3281250525699928,0.7680086446214467,0.9599515316039324,0.0469198301434516,-0.1916269809007644,0.2138573676347732
5.535728759765625,0.3233835936639457,0.7697934822116047,0.7858616236329078,0.0186994038522243,-0.1984229087829589,0.2091346681118011
5.545756591796875,0.4001612379940226,0.7829807344343512,0.6117027420789003,-0.0095375590026378,-0.1949980854988098,0.1999907046556472
5.55578369140625,0.4222643487306311,0.79785652426593,0.4925754273951053,-0.0377326719462871,-0.1795053780078888,0.1913295537233352
5.5658115234375,0.4713294814771041,0.8377765928525477,0.4012655094414949,-0.0642508342862129,-0.1565241664648056,0.1799421459436416
5.57583984375,0.5574472010824829,0.8758644775759428,0.2635726104974746,-0.09169352799654,-0.1447213143110275,0.1664451360702514
5.585866455078125,0.5276442565582692,0.9030682724524288,0.1627864236682653,-0.1209092065691948,-0.14251010119915,0.1530267894268036
5.595894775390625,0.533094009864144,0.930534809918329,0.1360322722554206,-0.1490088850259781,-0.1232592537999153,0.1488784402608871
5.605921630859375,0.5955337706316262,0.9880332783587276,-0.0020896657556295,-0.1709690392017364,-0.1314396858215332,0.1492933630943298
5.615949462890625,0.6211964004807173,0.9895720322333276,-0.0608393763661384,-0.1946795284748077,-0.1342615783214569,0.1617466956377029
5.6259775390625,0.731376146338135,1.0228361500620842,-0.1399316177815198,-0.208161249756813,-0.1116284281015396,0.1736712753772735
5.636004638671875,0.6818488759726286,1.0191730244446546,-0.4239426206737756,-0.2083542793989181,-0.1165127977728843,0.1858907043933868
5.64603271484375,0.6295787366397678,0.8658229029677807,-0.5284294155865907,-0.2080125957727432,-0.1007090657949447,0.2019056230783462
5.6560595703125,0.7021586004864424,0.8401051819305867,-0.6844020675867796,-0.1994845271110534,-0.1061393618583679,0.207134261727333
5.66608740234375,0.5745388403326273,0.6933655646346509,-0.8347533725738525,-0.1993779987096786,-0.1192990988492965,0.2124840170145034
5.67611572265625,0.5505718719528988,0.5553997670333832,-0.919483327615261,-0.2073917686939239,-0.1101824343204498,0.2129207253456115
5.686142822265625,0.4509257950695231,0.4015200687244534,-1.0276339057326316,-0.2161770164966583,-0.088487260043621,0.2161724418401718
5.696170654296875,0.4031974273521453,0.1795204816523939,-1.1042220553725957,-0.2322702705860138,-0.0458122603595256,0.2070348709821701
5.70619775390625,0.3109309027934446,0.0217444334920495,-1.208994096967578,-0.2467783540487289,0.004916698206216,0.1805864870548248
5.7162255859375,0.1787450768331065,-0.1142489680577069,-1.222507658535242,-0.2441662847995758,0.0508987978100776,0.1369483321905136
5.726253662109375,0.0368979442864656,-0.0894639978259801,-1.3307745565086602,-0.230643019080162,0.0664785578846931,0.1079670265316963
5.736280517578125,-0.0003915566008538,0.0146594436671584,-1.311181382766366,-0.1972670704126358,0.0817998051643371,0.1297271400690078
5.74630859375,0.1735570066707208,0.1299136432446539,-1.421483001437783,-0.1437806785106659,0.0947747230529785,0.1942350268363952
5.756335693359375,0.318449900121428,0.2226176459051668,-1.5142670835971832,-0.0641389712691307,0.0628639459609985,0.2901664674282074
5.76636376953125,0.424267468713969,0.3093664664883166,-1.5552034896194933,0.0418891981244087,-0.0378179252147674,0.3891122043132782
5.7763916015625,0.5265272352270781,0.4145850828070193,-1.6897230192244053,0.1451050788164138,-0.1565892249345779,0.4796083867549896
5.786418701171875,0.518333224714361,0.3975828023407608,-1.8923107074052092,0.2174426615238189,-0.2419326156377792,0.5510841608047485
5.79644677734375,0.3764924853758886,0.1409451787382364,-2.0577683961093425,0.228616863489151,-0.2379530519247055,0.6030510663986206
5.8064736328125,0.2020790810715407,-0.2621379015192389,-2.162781845244765,0.1888580024242401,-0.1439714282751083,0.6339208483695984
5.81650146484375,0.0287056142741814,-0.7145574057452381,-2.1677309920847416,0.1276926398277282,0.0011720666661858,0.6296267509460449
5.826529541015625,-0.2258718253955245,-1.1501418758306652,-2.015430306595564,0.0559295006096363,0.1564316898584365,0.5855098962783813
5.836556640625,-0.4402786923162639,-1.4989616701766848,-1.7174094830513,0.0103695699945092,0.2923223078250885,0.5050845742225647
5.846584716796875,-0.6721078186810017,-1.805451046858728,-1.365320969232917,-0.0061191255226731,0.370328426361084,0.3789117336273193
5.856611572265625,-0.9618123570397497,-2.1213275528281925,-0.8468576518654822,-0.0320544503629207,0.3862378001213074,0.2255184650421142
5.8666396484375,-1.1470044545877724,-2.1981156089544296,-0.0948334159046411,-0.0804395601153373,0.3889148235321045,0.06428724527359
5.876667724609375,-1.2782808375529944,-2.1542153846904637,0.6801859111964702,-0.1383298933506012,0.4224663376808166,-0.0682120472192764
5.886694580078125,-1.284745941913873,-1.9469985754042864,1.0795914719849824,-0.1850270926952362,0.4368138611316681,-0.1584665924310684
5.89672265625,-1.287509561408311,-1.6828569328472016,1.4317197332918643,-0.2182846516370773,0.4231748580932617,-0.2109941393136978
5.906749755859375,-1.2604253012582658,-1.3422984055638312,1.8638555972933768,-0.2319144308567047,0.3623424172401428,-0.2330893278121948
5.916777587890625,-1.25966703023687,-0.9576641513191164,2.183687270629406,-0.2158703356981277,0.270382672548294,-0.2239428609609604
5.9268056640625,-1.2820453046530484,-0.6235262316677719,2.347245847713947,-0.1797533333301544,0.1417115032672882,-0.1802337318658828
5.93683251953125,-1.14787626898624,-0.235204155755788,2.4275953957140444,-0.1361985504627227,0.0054158056154847,-0.0948618873953819
5.94685986328125,-1.036056427771598,0.1212735329322516,2.387498947647214,-0.0767757073044776,-0.1422213166952133,0.0285553894937038
5.95688671875,-0.847856745905429,0.3738382810726761,2.276962935698032,0.0014343005605041,-0.2846791446208954,0.1879758089780807
5.966914794921875,-0.5214588459216057,0.6069111969534308,2.013500799837708,0.0939232259988784,-0.4018566310405731,0.3593986928462982
5.976942626953125,-0.2363112219485454,0.802081594615057,1.5936720442235468,0.1852756589651107,-0.4738620817661285,0.5222856998443604
5.986969970703125,-0.0826325809033587,0.7768675122510641,1.0975941616654394,0.2727873921394348,-0.4825711548328399,0.6595889925956726
5.99699755859375,-0.0095228479636833,0.5431682811655104,0.5652513720273972,0.3610633909702301,-0.4412798881530761,0.7611173391342163
6.007024658203125,-0.0263429585297591,0.2034991770025342,0.0021750059515237,0.4359996914863586,-0.3734395802021026,0.8072877526283264
6.017052978515625,-0.0924304281498305,-0.140071683839336,-0.3858931682646274,0.4567552208900451,-0.305073082447052,0.7863699793815613
6.027080810546875,-0.2028449691438116,-0.4807843787711113,-0.4200982202053069,0.4162618517875671,-0.2430493831634521,0.6958422660827637
6.03710791015625,-0.3362430752370506,-0.8991563597057014,-0.3383393899291753,0.3168989419937134,-0.152372196316719,0.5503490567207336
6.0471357421875,-0.4941687975337728,-1.21240785093382,-0.3132657389491796,0.2051204741001129,-0.0387194044888019,0.3777677118778229
6.057162841796875,-0.6215574158128351,-1.4703914092525838,-0.2891618097841739,0.1161956787109375,0.0687272474169731,0.1980832517147064
6.067190673828125,-0.6147488317765295,-1.5100905285649,-0.2084954509198665,0.0648866817355156,0.1504466086626052,0.0247681979089975
6.077218505859375,-0.6130141900036483,-1.3000678680777549,0.0408300230383872,0.0432122759521007,0.1941064745187759,-0.1218177825212478
6.087245849609375,-0.5592658678770065,-0.9064324151232838,0.43372576354146,0.0394758619368076,0.1793754547834396,-0.2162313759326934
6.09727392578125,-0.4033103862073272,-0.4300326811771839,0.890527282243967,0.0375772230327129,0.1234627142548561,-0.2723890542984009
6.107300537109375,-0.2978687930540181,0.0013570406321436,1.3307757255524395,0.0242622140794992,0.0543078780174255,-0.3034732043743133
6.117328857421875,-0.2984810066682286,0.3594290127743035,1.64853468426764,0.0181076508015394,-0.0008046538569033,-0.3088999390602112
6.127356689453125,-0.3339874052647501,0.6368321418341248,1.718673803898692,0.0246092248708009,-0.0328214429318904,-0.2888993322849273
6.137384033203125,-0.3422311366707086,0.8409490123435854,1.6793138534128664,0.0440354160964489,-0.051822368055582,-0.2571249902248382
6.14741162109375,-0.3558042464058846,1.0223754737477748,1.599863884600997,0.0732244551181793,-0.0609125345945358,-0.2196444571018219
6.157438720703125,-0.4170968464322387,1.1746153689604253,1.4989116935551166,0.0982923582196235,-0.0602023676037788,-0.1793257743120193
6.167466796875,-0.4399905960898846,1.299343937717378,1.425334416168928,0.1141829118132591,-0.058004193007946,-0.1357322186231613
6.177494873046875,-0.4908962786691263,1.32566948845461,1.3164800736963749,0.1142281889915466,-0.063778206706047,-0.0988000109791755
6.187521728515625,-0.5559831929445267,1.370090229461342,1.238359892183542,0.0964292138814926,-0.0640546381473541,-0.0722006261348724
6.1975498046875,-0.6166161600183695,1.4009247820556163,1.1596440828651189,0.0728314891457557,-0.0469977892935276,-0.0486691184341907
6.20757666015625,-0.6743789784833788,1.3483625279083846,1.0284469756811856,0.0532346181571483,-0.0269335340708494,-0.0302368495613336
6.21760498046875,-0.7137207357253879,1.2454988041527568,0.8588841897457837,0.0383096635341644,0.0013450135011225,-0.0193076487630605
6.227631591796875,-0.757984167278558,1.1870730647996068,0.7262748776763677,0.0233424305915832,0.0284155141562223,-0.015399994328618
6.237659912109375,-0.7701419303230941,1.1655609787587076,0.6522574553072452,0.0045615495182573,0.041971281170845,-0.0162895079702138
6.247687744140625,-0.7228671881247312,1.1470487321209162,0.6486041934967041,-0.0155194848775863,0.0460712164640426,-0.0152340969070792
6.257714599609375,-0.6344072527747601,1.126460555991903,0.6350935545384884,-0.0303303003311157,0.041812065988779,-0.0173033811151981
6.26774267578125,-0.5944236174326389,1.0627045615267008,0.5694044000536203,-0.0421973466873168,0.040633350610733,-0.0318000316619873
6.277769775390625,-0.5892876062510535,0.9570759761676192,0.4518669849097728,-0.0539053045213222,0.0491186082363128,-0.0543902441859245
6.2877978515625,-0.6140139416307211,0.8535781192269176,0.3521978194117546,-0.0717064067721366,0.0585312843322753,-0.0835989937186241
6.29782568359375,-0.6289596548933536,0.7685906822931021,0.2878518962293863,-0.0943953767418861,0.0549971610307693,-0.1110446825623512
6.3078525390625,-0.5950085411811247,0.7085604303527623,0.2260118183881044,-0.1111764833331108,0.0333525836467742,-0.1295789629220962
6.317880859375,-0.5371807311885058,0.6307188465856015,0.1482850201070308,-0.1225467026233673,0.0150644071400165,-0.1489567905664444
6.327907958984375,-0.4982165020219981,0.5807165791194886,0.0122170920163393,-0.1308509707450866,0.0004724152386188,-0.166674792766571
6.337935791015625,-0.4531378816284239,0.5482593206942081,-0.1737596531033516,-0.1335812658071518,-0.00757851684466,-0.1769877821207046
6.347963623046875,-0.3766809206200763,0.5000174870293587,-0.3602349953949451,-0.1375001072883606,0.0039649549871683,-0.1781164407730102
6.35799072265625,-0.346635509109497,0.4515370953682809,-0.5700181480377913,-0.1366708278656005,0.0430099964141845,-0.1790494471788406
6.368018798828125,-0.3803859491504728,0.3435004259541631,-0.8015326554954052,-0.1344577372074127,0.0915524959564209,-0.1722594499588012
6.378045654296875,-0.4039376512601971,0.2402894231308251,-0.9117337364017964,-0.1342982947826385,0.126706063747406,-0.1736797392368316
6.38807373046875,-0.4144504601093008,0.1829617812126874,-0.9052034578502176,-0.1456148624420166,0.1625490188598632,-0.2001137435436248
6.398101806640625,-0.5261739648099988,0.0964265303149819,-0.8234247538298368,-0.1783600747585296,0.1805817931890487,-0.2485204190015792
6.408128662109375,-0.6350356138061731,0.0302510536178946,-0.6282096402436494,-0.2101504951715469,0.2156886458396911,-0.2902268469333648
6.41815673828125,-0.6087107571886852,0.1234330490536987,-0.6239905612438916,-0.2152327746152877,0.2066436260938644,-0.3194962739944458
6.428183837890625,-0.5763127546699718,0.3017164631918072,-0.6949649626553058,-0.1956769078969955,0.1503316313028335,-0.3235706388950348
6.4382119140625,-0.4056836181446909,0.5298549914103001,-0.7803928368330001,-0.1657932102680206,0.0878871455788612,-0.321239709854126
6.448239501953125,-0.3105054804556071,0.6714370798125863,-0.9404939669400452,-0.1424700319766998,0.0395728722214698,-0.3038330078125
6.4582666015625,-0.2441570400780998,0.8175083693929016,-1.0782581775546074,-0.1213709190487861,-0.0825538635253906,-0.2476480305194854
6.468294677734375,-0.0361012226845137,0.924867285675928,-1.1779846261978149,-0.1008254289627075,-0.2838816344738006,-0.1613035500049591
6.47832177734375,0.2100519779131747,0.9204188548997044,-1.3182991058170794,-0.0940902605652809,-0.4632508456707001,-0.0749830454587936
6.488349853515625,0.3157215711360797,0.868715482604131,-1.6937562202632426,-0.1002168655395507,-0.5254678726196289,-0.0015873895026743
6.498377685546875,0.2041881456473842,0.480617570836842,-2.2978175076782703,-0.1066790223121643,-0.424402505159378,0.0369794443249702
6.50840478515625,-0.0151426606068387,-0.1459269857387989,-2.8654987372010945,-0.1150843054056167,-0.188170850276947,0.0379797331988811
6.518432861328125,-0.2295800687963143,-0.7244666592106223,-3.174785051125288,-0.1170741692185401,0.1173518970608711,-0.0060728737153112
6.528459716796875,-0.4126062935473397,-1.1677614114124326,-3.1404414674967525,-0.1097968146204948,0.4249443411827087,-0.085115760564804
6.53848779296875,-0.559026579228416,-1.4079928207457064,-2.7209283537030218,-0.1119888499379158,0.6420008540153503,-0.1880966573953628
6.548515869140625,-0.6974645243860781,-1.4336159223020075,-1.8257950389683248,-0.131757766008377,0.7114233374595642,-0.291057139635086
6.55854248046875,-0.6813916337244212,-1.24895727404356,-0.609715367653966,-0.1728555709123611,0.6566185355186462,-0.3831366300582886
6.56857080078125,-0.5756453768024221,-0.9847096138287336,0.5595435157746076,-0.2172613739967346,0.5098943114280701,-0.4549077451229095
6.57859765625,-0.4112015778485685,-0.6648813745588064,1.42846394636631,-0.2542600333690643,0.3169518411159515,-0.4877802729606628
6.5886259765625,-0.225999543428421,-0.3511797284103929,1.9480150589704512,-0.2641012370586395,0.1017910838127136,-0.4743057191371918
6.59865380859375,-0.0135255214335164,-0.1034919386565685,2.1304835037082435,-0.2422360479831695,-0.0864455103874206,-0.4272249937057495
6.6086806640625,0.236886409754306,0.074947104434669,2.02063956567645,-0.1938733011484146,-0.2244939357042312,-0.3566858470439911
6.618708740234375,0.4230628421645611,0.1453375684782862,1.7069623233169315,-0.1181655377149581,-0.2851175367832184,-0.2778074145317077
6.62873583984375,0.517891654959321,0.0614329583451151,1.219074176955223,-0.0313978791236877,-0.2833388149738312,-0.1946161240339279
6.638763671875,0.590722278696671,-0.1361747494660317,0.7652034510076046,0.0454696267843246,-0.2519550621509552,-0.1269906312227249
6.648791748046875,0.6106747872706503,-0.3270322523646056,0.4730985735088586,0.0939495489001274,-0.2170215547084808,-0.0787000656127929
6.65881884765625,0.6320269335094839,-0.503736653682962,0.4029705597937106,0.1097663044929504,-0.1997848749160766,-0.0404342636466026
6.668846923828125,0.7357908940404653,-0.6569732317827641,0.3686562022596597,0.1094166338443756,-0.2064379751682281,-0.0153472851961851
6.67887353515625,0.8517370214048773,-0.8316355328142643,0.2806540936797857,0.1036399975419044,-0.2220713496208191,-0.0022856222931295
6.68890185546875,0.9169260443478822,-0.9720685242466628,0.1688788953244686,0.1038535833358764,-0.220280647277832,-0.0005689487443305
6.6989296875,0.920957637951523,-1.1298668573040511,-0.0115787941128015,0.110559158027172,-0.2141513526439666,-0.0071544339880347
6.70895703125,0.9274950768962502,-1.2930180956967174,-0.1877665511459112,0.1150854676961898,-0.175178125500679,-0.0245890840888023
6.718984619140625,0.8861584195099771,-1.413930101840198,-0.2779074253201484,0.1153331026434898,-0.1067237257957458,-0.0630006566643714
6.72901171875,0.7506003406375646,-1.513257468163222,-0.3572060029625892,0.1138638332486152,-0.0231396183371543,-0.1139378696680069
6.739039794921875,0.5753887351602316,-1.622978802728653,-0.3255792770773172,0.0990522429347038,0.0617012195289135,-0.1729152798652649
6.74906787109375,0.4624792720779776,-1.6010899192646144,-0.1042009637087583,0.0727529972791671,0.1289375126361847,-0.2334513366222381
6.7590947265625,0.3249116800140589,-1.535732919343561,0.2303384494155645,0.0521969124674797,0.1597567945718765,-0.2813498079776764
6.769122802734375,0.2807867253498174,-1.4328732872411607,0.5912234331518411,0.0472018867731094,0.1455515027046203,-0.3057243824005127
6.779149658203125,0.352075617804192,-1.1746168302651494,0.8792641299515962,0.0532159209251403,0.0963081121444702,-0.3059398531913757
6.789177734375,0.4281830347225069,-0.885497471383214,1.140796174532175,0.0712311416864395,0.0368652939796447,-0.2945702970027923
6.799204833984375,0.3860085017399862,-0.637332273375988,1.2995178329795598,0.0904166102409362,-0.0349749475717544,-0.260280966758728
6.80923291015625,0.4552088426835834,-0.452575425440073,1.407256907686591,0.1164982765913009,-0.077679805457592,-0.2136439532041549
6.8192607421875,0.4461585441350936,-0.3274048850692808,1.2919172948479651,0.1447513997554779,-0.0992804840207099,-0.1656830608844757
6.82928759765625,0.3184858116850256,-0.2512311614491045,1.1123539239019156,0.1555337458848953,-0.1145494580268859,-0.1178785264492034
6.839315673828125,0.3007954028241336,-0.2239746134720742,1.1118640945583582,0.1560175120830536,-0.1377739161252975,-0.0787957683205604
6.8493427734375,0.3372616046298295,-0.210178581701219,1.0654232459008692,0.1424841284751892,-0.1451125293970108,-0.057860929518938
6.859370849609375,0.2401541063133627,-0.2546615012239664,0.988124902164936,0.1276296228170395,-0.1399632543325424,-0.0421371161937713
6.869398681640625,0.2362872748173773,-0.3071840809479356,0.852201350980997,0.1190353408455848,-0.1227105036377906,-0.0230230782181024
6.87942578125,0.2911141128957271,-0.2741011649049818,0.7524544440716504,0.1118771284818649,-0.1020386144518852,-0.0092989597469568
6.889453857421875,0.2876839192513376,-0.2082519975528121,0.7119166819781064,0.1040285304188728,-0.1024199798703193,0.0058935745619237
6.899480712890625,0.3536134583633393,-0.0905832841794937,0.7174398293137549,0.091455690562725,-0.1332379281520843,0.0350676141679286
6.9095087890625,0.4657170484228059,0.0264550954010337,0.7406248900681733,0.0757875144481659,-0.168199360370636,0.0703606233000755
6.91953662109375,0.5122359307525679,0.1517285116244107,0.7266273443758487,0.0563261844217777,-0.2102435976266861,0.111187070608139
6.929563720703125,0.5456237480262294,0.2511741705648601,0.5998538988530635,0.0314429402351379,-0.2340005934238433,0.1456483751535415
6.939591796875,0.4961206987865268,0.2341284893482923,0.3965869962364435,0.0054739653132855,-0.2257492840290069,0.1727814376354217
6.949619140625,0.4420135167522355,0.1820817835077643,0.1891261490613222,-0.0152552817016839,-0.1966100484132766,0.2063921242952346
6.959647216796875,0.4787909764641895,0.1960964995305985,-0.0234282218605279,-0.0300492383539676,-0.1487827450037002,0.2466662526130676
6.96967529296875,0.5185537721298634,0.1881887220807373,-0.173587219145894,-0.0388786830008029,-0.096484400331974,0.2892701923847198
6.979702392578125,0.5335970640154555,0.1828114860218018,-0.2320171962827444,-0.0445871837437152,-0.060964860022068,0.327678233385086
6.989730224609375,0.5240955876333638,0.125062038495019,-0.2087982332587242,-0.0515803769230842,-0.0404675714671611,0.3494136035442352
6.99975732421875,0.4425084241297096,0.0471182364623993,-0.1547369727253914,-0.064682513475418,-0.0124201588332653,0.3557798564434051
7.009785400390625,0.2663939149959012,-0.1014729269843548,-0.1050701477587223,-0.0980870798230171,-0.0506098866462707,0.3537918031215668
7.019813232421875,0.2511864089919254,-0.2097781111415475,0.0014051906228065,-0.1454839557409286,-0.0931413322687149,0.3336091637611389
7.029840087890625,0.288674574256502,-0.1375002989813685,0.0787368521064519,-0.1937934309244156,-0.0343416631221771,0.3036587238311767
7.0398681640625,-0.0967667585873976,-0.2433976182792335,-0.1946235774338245,-0.2242330461740493,-0.0379229597747325,0.3441891670227051
7.049895263671875,0.3274614010294899,-0.288925809071213,-0.4007417778283357,-0.2489178776741027,-0.0697565227746963,0.372067391872406
7.059923095703125,0.6818434691451489,-0.1108786879070103,-0.3373474562823772,-0.2619361877441406,-0.0022957841865718,0.339368462562561
7.069951171875,-0.0010157529138028,-0.2801109267137944,-0.5209866983652115,-0.2508023083209991,0.0301130227744579,0.3376182317733764
7.079978271484375,0.1244355771597474,-0.4597316538702696,-0.4787719429701566,-0.1901879608631134,0.0493852533400058,0.329353392124176
7.09000634765625,0.1282343849208206,-0.4492904854852706,-0.4923831196933984,-0.1631448864936828,0.0102685559540987,0.3082101345062256
7.100033203125,-0.0200171347754076,-0.3094619627520442,-0.2953103955417871,-0.1614960432052612,0.0076269311830401,0.2894017100334167
7.110061279296875,-0.0642392114048823,-0.344148514599353,0.0074807111442089,-0.1820561736822128,-0.0412255600094795,0.2962113916873932
7.120089111328125,-0.0948744785673916,-0.258595260476321,0.1597644454985857,-0.2055780887603759,-0.1228471398353576,0.3228074312210083
7.130116455078125,0.027904892350547,-0.1392383017551153,0.2369476384222507,-0.1764684021472931,-0.1859584599733352,0.3357309401035309
7.140144287109375,0.0776427001941949,-0.0828157919831573,-0.1399047297745943,-0.1137122213840484,-0.2202260792255401,0.3368742167949676
7.150171142578125,-0.003908990137279,-0.0169724698498845,-0.591415740853548,-0.0337044708430767,-0.2159221470355987,0.3595733940601349
7.160199462890625,0.1647533763596788,-0.094790745806694,-0.9651999536514282,0.062006551772356,-0.2489204406738281,0.4161628484725952
7.170227294921875,0.4892433238303288,0.0333541341997683,-1.2454308534830807,0.1489944458007812,-0.2590790688991546,0.4713914692401886
7.18025439453125,0.4154620848372578,0.0735018740624189,-1.6004600969284772,0.1820297390222549,-0.2930740416049957,0.5651559233665466
7.1902822265625,0.6491641654670238,0.1069749584667384,-1.7231693617522716,0.1544921249151229,-0.3044641315937042,0.6653845310211182
7.200309326171875,0.7677407874654978,-0.0424416229534894,-1.7585627466946838,0.0565396584570407,-0.2363015413284301,0.7513538599014282
7.210337158203125,0.6163441381439566,-0.2429781507581472,-1.7382926966041323,-0.0500898472964763,-0.0982917472720146,0.8021100163459778
7.2203642578125,0.5001339530158788,-0.472694230491668,-1.9601245989590883,-0.1058185398578643,0.0596276372671127,0.8162105679512024
7.230392333984375,0.2530628338556736,-0.818437320806086,-2.124159561383724,-0.1016309857368469,0.1912146955728531,0.7968398332595825
7.24042041015625,0.0138962407423183,-1.2235877088569105,-2.019080061274767,-0.0807201638817787,0.3154228031635284,0.7302660942077637
7.250447021484375,-0.328504261145927,-1.5363209483645854,-1.468003929594159,-0.0813654512166976,0.4146327376365661,0.621447741985321
7.260475341796875,-0.6329952670849859,-1.6040191045843064,-0.6518091270178556,-0.0842894837260246,0.4887434244155884,0.5055981874465942
7.270502197265625,-0.7154132919222116,-1.4851520482718945,0.0771171419501304,-0.044812124222517,0.481079638004303,0.3808083534240722
7.280530517578125,-0.6760312026698142,-1.3934203977748751,0.7829618105381727,0.0476107113063335,0.4923663735389709,0.2615956664085388
7.29055810546875,-0.9378028281599282,-1.2712414404354988,1.1740262439608573,0.1743193864822387,0.4068229496479034,0.197379395365715
7.300585205078125,-1.1280996284358202,-0.8677068170182406,1.4737807594299317,0.267298549413681,0.2267053872346878,0.1582109630107879
