seconds_elapsed,ax,ay,az,gx,gy,gz
0.07309375,0.2938549360364675,0.5757079571772367,2.998751607871055,0.1108559146523475,-0.4254952073097229,0.0050210850313305
0.08311962890625,-0.0175715134552679,0.5607691851120442,2.413155951473117,0.2165967524051666,-0.5381715893745422,-0.0448335818946361
0.09314599609375,-0.216474028583616,0.4155614535585045,1.7353052052259443,0.3226297199726105,-0.6110754013061523,-0.0772519707679748
0.103171875,-0.048881222980353,0.1329212275628,0.893112038040161,0.4037128388881683,-0.6933916211128235,-0.0395774915814399
0.113197998046875,0.2251889576978981,-0.0112085268951486,0.026324527823925,0.4144978523254394,-0.7303435206413269,0.0584209784865379
0.123223876953125,0.1416771828072145,0.0772358638258185,-1.1681406930536031,0.3317045867443084,-0.704161524772644,0.1458813697099685
0.13325,-0.1393014118528925,0.0090905255276011,-2.8022885400503874,0.214340940117836,-0.644760012626648,0.1835078448057174
0.14327587890625,-0.3323630919985473,-0.1202229644333943,-4.784239770892262,0.0968442931771278,-0.4817762374877929,0.2102253437042236
0.153302001953125,-0.4634236402560025,-0.2024042031063698,-6.942168330886959,-0.0302971489727497,-0.127047449350357,0.2290714830160141
0.163328125,-0.787196014041826,-0.5571305363487452,-9.23802769023478,-0.1582397818565368,0.315712034702301,0.2393291890621185
0.17335400390625,-0.9674556966889648,-1.3162317980237304,-11.319995877099036,-0.2980890274047851,0.705967128276825,0.3025624752044678
0.183380126953125,-0.4621180375501513,-2.15371371877864,-12.99297468227148,-0.4994520843029022,0.8883548378944397,0.4344020485877991
0.193406005859375,0.5132996509939431,-3.0978526180922983,-14.329720129883288,-0.719864547252655,0.789856493473053,0.5791773796081543
0.20343212890625,1.122298614006862,-3.8733459924459455,-15.515464868688582,-0.8406254649162292,0.5477415323257446,0.6484202742576599
0.2134580078125,1.2576635814599693,-4.128728574486076,-16.15516562476158,-0.8389865756034851,0.2370750159025192,0.6057772040367126
0.223484130859375,1.0825121086720375,-3.600296820811927,-16.01202556632757,-0.7594080567359924,-0.0646535754203796,0.451349526643753
0.233510009765625,0.6682726974975317,-2.6188012736588715,-15.19961262037754,-0.6349157094955444,-0.3041998445987701,0.1910380721092224
0.243535888671875,0.1801681136398576,-1.880573215599358,-13.97137314019203,-0.4501746594905853,-0.462148904800415,-0.1255889534950256
0.25356201171875,-0.2013835365554317,-1.0797834143605085,-12.445084779411554,-0.2470221072435379,-0.4729514718055725,-0.4458028972148895
0.263587890625,-0.6838821353659034,-0.2403189414862543,-10.74517705078125,-0.0327219814062118,-0.3799608647823334,-0.7411086559295654
0.2736142578125,-1.2320187064632773,0.1649669825777411,-9.227588713806869,0.195044070482254,-0.1557903587818145,-1.0148688554763794
0.283638916015625,-1.6236152009360492,0.2454369786197319,-7.82254305242896,0.3993207812309265,0.1809159070253372,-1.2130197286605835
0.2936650390625,-1.3890420365601777,-0.1210560542566701,-6.317330212903022,0.5340958833694458,0.4991482198238373,-1.267918586730957
0.303691162109375,-0.5909559778546914,-0.7123920444048941,-4.581840298759937,0.5490297079086304,0.7172805666923523,-1.1374213695526123
0.313717041015625,0.3726412898404523,-1.214645692988485,-2.4675790310561654,0.38092240691185,0.7798430323600769,-0.8486140966415405
0.3237431640625,1.0526805956404657,-1.5832672623261808,0.0409738154232501,0.0966037213802337,0.7022753953933716,-0.5024380087852478
0.33376904296875,1.110776810778305,-1.6795885787010192,2.246424005049467,-0.1269369572401046,0.4462676048278808,-0.1758649051189422
0.343795166015625,0.8053800516385584,-1.3384807469718158,3.861931448984146,-0.1743689179420471,0.1105360388755798,0.0802514851093292
0.353821044921875,0.3809182293962687,-0.3880478255478665,5.173532518467307,-0.0411552116274833,-0.1643082946538925,0.2306604385375976
0.363846923828125,-0.1749945103942416,0.595716324124299,6.740173932424187,0.1998964995145797,-0.3581097722053528,0.2296152561903
0.373873046875,-0.8084790405672043,1.3090569379583,8.386728256529569,0.4514880180358886,-0.3743598461151123,0.0803061947226524
0.38389892578125,-1.0394072725694623,1.892956604093313,9.965780239248277,0.6244619488716125,-0.2708331346511841,-0.0895924121141433
0.393925048828125,-0.4863672569373622,2.179154887896776,11.386591625034807,0.6633757948875427,-0.1191786378622055,-0.2100711464881897
0.403951171875,0.1764386265216395,1.9899470519013704,12.451983306753634,0.5562578439712524,0.0055843270383775,-0.2748751938343048
0.413977294921875,0.6298520736884325,1.4393383916020392,13.08887368158102,0.3517095148563385,0.0588787086308002,-0.2537001371383667
0.424003173828125,1.2299657194562257,0.8874255168363452,13.201565994781255,0.1253744512796402,-0.0139358611777424,-0.1395426094532013
0.43402880859375,1.355312785437703,0.593149286647886,13.06969902551174,-0.047542467713356,-0.1647077947854995,-0.0119175361469388
0.444054931640625,0.9032068041402846,0.5400096710041165,12.546456072652338,-0.1120032370090484,-0.2944121956825256,0.0691981837153434
0.454080810546875,0.3356847107019275,0.8727309287905692,12.042447397094964,-0.0968919321894645,-0.3312684893608093,0.0780574604868888
0.46410693359375,-0.3739726115094497,1.3795641602493822,11.787526879608633,-0.0548050180077552,-0.227020263671875,-0.0101313386112451
0.4741328125,-1.095493097732961,1.7386561230890452,11.650683290970324,-0.0240769311785697,-0.0467562116682529,-0.1737623363733291
0.484158935546875,-1.4606313549995422,1.8960038628347216,11.3166711165905,-0.0143677378073334,0.1446548402309417,-0.3413811922073364
0.494184814453125,-1.3733886864848437,1.7960104338183998,10.62398695834875,-0.013107263483107,0.2798179984092712,-0.4429040849208832
0.5042109375,-1.087516419765353,1.4577442552559077,9.85938907201886,-0.0335060581564903,0.3235161602497101,-0.4490574598312378
0.514237060546875,-0.7400467248540371,1.022575745560229,9.13638284074962,-0.0932125300168991,0.2788927853107452,-0.3675471544265747
0.524262939453125,-0.4784479351801797,0.6349517349150031,8.527228614109754,-0.1930929869413375,0.1941882669925689,-0.2185219377279281
0.5342880859375,-0.4095162185775116,0.4265239058712497,8.023943576651812,-0.3171355724334717,0.1200868636369705,-0.0521774366497993
0.54431396484375,-0.4320262661471962,0.4361307788565755,7.662379378479718,-0.4407047033309936,0.0076572149991989,0.0814952999353408
0.554340087890625,-0.4485553761437535,0.3870058787468821,7.343312259775399,-0.502179741859436,-0.103475697338581,0.1575578451156616
0.564365966796875,-0.5450712287100031,0.3458111871145665,7.030035414910316,-0.4842940270900726,-0.1979981511831283,0.1956677287817001
0.574391845703125,-0.4852606108697131,0.37094157325048,6.942060194337367,-0.4287814795970917,-0.2551333308219909,0.2270946204662323
0.58441796875,-0.3046748380733654,0.3306049232196063,7.072235557258129,-0.3871637284755707,-0.2539165318012237,0.2340936809778213
0.59444384765625,-0.237737912017107,0.2215801195509731,7.300618196430802,-0.3765473067760467,-0.2345404475927353,0.2098629027605056
0.604469970703125,-0.2035682601833716,0.2452928939739242,7.455302562186121,-0.3987309634685516,-0.1684163361787796,0.1645701229572296
0.614495849609375,-0.129575095472671,0.1854583838013932,7.269727383604645,-0.4672687351703644,-0.0591228641569614,0.125517264008522
0.62452197265625,0.0417394203677307,0.0173855806954205,6.813784527558088,-0.522761344909668,0.0572387464344501,0.1033263877034187
0.6345478515625,0.3627989641314372,-0.2700711787365377,5.980954232001304,-0.5179471373558044,0.1409568190574646,0.121771439909935
0.644573974609375,0.8701409853626042,-0.7775343055967241,5.018870364543795,-0.4764841496944427,0.1832961738109588,0.2086171954870224
0.65460009765625,1.5488210951060055,-1.3812816316917538,3.9927345884144314,-0.45244300365448,0.163501426577568,0.3648744523525238
0.6646259765625,2.1527445814855395,-1.904591950698942,3.0908903778642416,-0.4798998832702636,0.0316919982433319,0.5378616452217102
0.674652099609375,2.0930524754583835,-2.2202324559554456,1.9177432548254727,-0.5548425912857056,-0.1087047904729843,0.6535568237304688
0.684677978515625,1.383680363396555,-2.036068605476617,0.1041413424760103,-0.557858943939209,-0.1843897849321365,0.6530628800392151
0.6947041015625,0.1744188293981365,-1.2486749499708414,-2.5520325072437524,-0.481162279844284,-0.035276211798191,0.5102753639221191
0.70472998046875,-0.996866134764254,-0.1378464820705354,-5.940403610426187,-0.3315336108207702,0.3338193297386169,0.3434657454490661
0.714755859375,-1.6676200546182691,1.8375488973870877,-10.151550648140908,-0.1798106431961059,0.9463343620300292,0.2429620325565338
0.724781982421875,-2.1867574718549845,3.620276363523304,-15.035626173269748,-0.1689042001962661,1.5364627838134766,0.0978773385286331
0.734807861328125,-2.776647610576451,3.1816835784673687,-19.791242491745948,-0.3137508630752563,1.5628219842910769,-0.2213688194751739
0.744833984375,-1.4100960766352713,0.0066929217673838,-23.743407753884792,-0.3848008811473846,0.4071646332740783,-0.463706225156784
0.754860107421875,1.4070955796450375,-2.4557716888844965,-26.517391990470884,0.0157950036227703,-1.463412165641785,-0.337847352027893
0.76488623046875,0.6140129187174141,-0.7402491886235774,-28.416157573103906,0.8734664916992188,-2.352306842803955,-0.3104186058044433
0.774912109375,-3.301884952123463,0.4728473752267658,-28.14591673688888,1.7412301301956177,-2.3121652603149414,-0.6616277694702148
0.78493701171875,-4.784759410852193,-0.2702958543378859,-23.7002770526886,2.0950074195861816,-1.7176440954208374,-0.8431737422943115
0.794963134765625,-2.1132174577392635,-1.1641983121033757,-17.196839746284486,1.6588774919509888,-0.7616006731987,-0.4782194793224334
0.804989013671875,1.524216815203428,-2.1936320337995885,-11.64550910320282,0.735942006111145,0.186783105134964,0.2555488348007202
0.81501513671875,3.729985569259524,-2.628516027465462,-8.466186408647895,-0.1608228832483291,1.0138046741485596,1.0074458122253418
0.825041015625,3.859532278887927,-1.264326984871924,-7.329823832648992,-0.7549493312835693,1.657230257987976,1.4238327741622925
0.83506689453125,2.71816327290386,0.7591289533995091,-7.178226911514997,-0.9302234053611756,1.876522421836853,1.3908675909042358
0.845093017578125,1.4088215266548096,2.1195552824586628,-7.863788670530915,-0.6457104086875916,1.4371845722198486,0.9480737447738647
0.855118896484375,-0.1456145587887614,2.446024494113028,-8.858513993874192,0.0095358900725841,0.5566820502281189,0.2517175674438476
0.86514501953125,-1.609264750152826,2.626819160419702,-8.319527528437971,0.6867581009864807,-0.3144036531448364,-0.4356946051120758
0.8751708984375,-2.0158444403544067,2.8097499619722366,-6.462841676643491,1.124155044555664,-0.9534847736358644,-0.8675448298454285
0.885197265625,-0.7608398489706217,2.2269661481246352,-3.823602595111728,1.288724660873413,-1.36051344871521,-0.940604567527771
0.89522314453125,0.5863677367489785,1.4308447040230037,-0.7572177129507064,1.178812026977539,-1.438746690750122,-0.7254576683044434
0.905249267578125,1.2511097759023309,1.0422803437877446,2.4385738858461377,0.801142156124115,-1.2557791471481323,-0.4521281123161316
0.915275146484375,1.1358863367892802,0.952557987286523,5.1888013992697,0.3389116823673248,-0.9467658400535583,-0.3093019723892212
0.925301025390625,0.4378489078860729,0.8671661342702806,6.537117457687854,0.0258795954287052,-0.6695883870124817,-0.2694312632083893
0.9353271484375,0.3535211039047688,0.8103193346716463,6.710242320019006,-0.007170233875513,-0.4947657287120819,-0.240810826420784
0.94535302734375,0.4543798810461535,0.7213749768055975,6.681441757470369,0.1444864124059677,-0.4578001797199249,-0.2103095054626464
0.955379150390625,0.1777937674576416,0.6036197907252236,7.381780814379454,0.2828506827354431,-0.5327093601226807,-0.2055959701538086
0.965405029296875,0.1135699728175997,0.3032213878620415,8.620381529581547,0.3193857967853546,-0.6309399008750916,-0.2191541939973831
0.97543115234375,0.0280163899010047,0.2303610631061717,10.013381363856793,0.280874639749527,-0.6275556087493896,-0.2291756719350814
0.98545703125,-0.0099206516422331,0.362635992122069,10.980039115101098,0.2449240088462829,-0.4424499273300171,-0.179422914981842
0.99548291015625,0.3356494201928377,0.5661991742715239,11.505191116452217,0.2138459831476211,-0.1349871903657913,-0.0605846755206584
1.005509033203125,0.5288354391042143,0.7689922488313168,12.115401574146746,0.1031443998217582,0.2377889156341552,0.0406640544533729
1.015534912109375,0.4948123196016997,0.8128625163484364,12.537545620965956,-0.0782349780201911,0.5660405158996582,0.1343418061733245
1.02556103515625,0.8147467957250774,0.8327816341094673,12.44536885704994,-0.257404625415802,0.7684145569801331,0.2298849672079086
1.0355869140625,0.808772835882008,0.9096573685191572,11.8957172052145,-0.3614910542964935,0.8599937558174133,0.2830608487129211
1.045612060546875,0.6682233784630894,0.877297944445163,11.086091259634497,-0.4009425938129425,0.8374065160751343,0.2764918804168701
1.05563818359375,0.5313078936323523,0.8084946034625172,10.19734910724163,-0.3782926797866821,0.6952406167984009,0.2190339118242263
1.0656640625,0.3435020333893597,0.8673650178432464,9.405600763657688,-0.2968937456607818,0.4936501085758209,0.1246496215462684
1.07568994140625,0.0646034050747752,1.0002194637801498,8.788223483073711,-0.1780605614185333,0.3640218079090118,-0.0132160959765315
1.0857158203125,-0.0913928652630187,1.098955659276992,8.384659049040078,-0.0402782969176769,0.3482071161270141,-0.1414763629436493
1.0957421875,0.1853572797807864,1.175941649128124,8.224933181986213,0.0458507277071476,0.3802939355373382,-0.209265798330307
1.10576806640625,0.5786492347935215,1.007574137391895,8.429089726918935,0.0128848534077405,0.4210643470287323,-0.2284514904022216
1.1157939453125,0.6934153951257467,0.7523373935632407,8.676818287074566,-0.1309476792812347,0.4309239089488983,-0.2100945860147476
1.125820068359375,0.9332138929344712,0.6020229499878361,8.772935313048958,-0.3202210366725921,0.3849943578243255,-0.1505213528871536
1.135845947265625,1.0834523851968347,0.4381096046488731,8.584755504927038,-0.477693498134613,0.3264279961585998,-0.0795909985899925
1.1458720703125,0.8470970866445452,0.3320502631897106,8.178404070523381,-0.5700829029083252,0.2756886184215545,-0.0239140875637531
1.15589794921875,0.4064643932588398,0.4656233787899836,7.738878680792451,-0.6149854063987732,0.214633509516716,-0.0320186205208301
1.165924072265625,-0.0606612478868337,0.5437415875414386,7.391231364291906,-0.6090397834777832,0.1397382020950317,-0.099358394742012
1.175949951171875,-0.2376534668703563,0.4407176317228004,7.0209455150038,-0.5448834300041199,0.0787952169775962,-0.1642575114965438
1.185975830078125,-0.3540560875643044,0.4169871755126863,6.715390204301476,-0.4604368805885315,0.0508973710238933,-0.2142626345157623
1.196001953125,-0.3881711961992085,0.2153981429804116,6.425951331141591,-0.4276946485042572,0.012092450633645,-0.233660027384758
1.206028076171875,-0.225044051068183,-0.3254339503224939,6.144791041505337,-0.497497409582138,-0.0233803298324346,-0.1446065455675125
1.21605419921875,0.4632118241362273,-0.9532218580227344,5.689433876392245,-0.7035229802131653,0.0067333644255995,0.1184570491313934
1.226080078125,1.3177460019789635,-1.346973265507072,5.047696061533689,-1.022209405899048,0.2318321317434311,0.4405912458896637
1.236106201171875,1.2561752425983548,-1.489992766301334,3.73918828189075,-1.3850514888763428,0.4643476903438568,0.7151053547859192
1.246132080078125,0.811852097196877,-1.4019563170604408,1.5087836837500332,-1.629391312599182,0.5254510641098022,0.9101709723472596
1.256157958984375,0.1832233547583222,-1.1800137208726256,-1.9252438397139309,-1.5511447191238403,0.4528434574604034,0.9102959036827089
1.26618408203125,-1.3803978345945476,-0.5971306113690138,-6.644910308408737,-1.1109588146209717,0.5005589723587036,0.6917919516563416
1.2762099609375,-2.4864956207111475,1.0933774207532403,-12.28882571168542,-0.5283926129341125,0.8817963600158691,0.5034289360046387
1.286236083984375,-0.968896762342751,3.602600713840127,-17.280786441993712,-0.3342531323432922,1.57464337348938,0.4149524867534637
1.296261962890625,1.3294444769486784,3.980421634808183,-21.356215680229663,-0.7018657326698303,1.5999513864517212,0.2007051706314087
1.3062880859375,3.712811147096753,0.894757174898684,-24.83294252773523,-0.9791995286941528,0.2448960095643997,-0.0034179075155407
1.31631298828125,6.052051383009553,-0.6354468980208039,-28.38385923156738,-0.7559698820114136,-1.675297737121582,0.1343109309673309
1.3263388671875,5.553823044419288,2.414180033823848,-30.944649630284307,-0.1148021295666694,-2.6883530616760254,0.2037317305803299
1.336365234375,1.3235412442542611,4.314289432281256,-30.66270900392532,0.6061728596687317,-3.157402276992798,-0.2038301974534988
1.34639111328125,-2.653073545616865,3.464637181261182,-26.27927647731304,1.0426479578018188,-3.2437331676483154,-0.8210676908493042
1.356417236328125,-3.978596465207636,2.947912231993675,-21.024896982717515,1.2419363260269165,-2.558793544769287,-1.191693663597107
1.366443115234375,-2.2661849365741014,1.947905461116135,-16.91032465161681,1.3286477327346802,-1.4450187683105469,-1.0118523836135864
1.37646923828125,0.8018336842685937,0.1370818543735891,-12.87290453377962,1.1938390731811523,-0.3700195252895355,-0.4725220799446106
1.3864951171875,2.212966264344752,-0.9664273034892976,-8.879576071125268,0.8019450902938843,0.5703422427177429,0.0618817955255508
1.39652099609375,2.466670099517703,-1.5532432954624291,-5.7216690895646805,0.2258378267288208,1.270589828491211,0.5511902570724487
1.406547119140625,2.8081495410382744,-1.7524796273887155,-2.955636688765883,-0.360929936170578,1.5943876504898071,0.9579131603240968
1.416572998046875,2.089428878133744,-1.5045827249288557,-1.4867764346033334,-0.6202946901321411,1.486432433128357,1.1584031581878662
1.42659912109375,1.0407995306454598,-1.256492930245399,-1.5055068540364502,-0.3885501027107239,0.9189870357513428,1.2160942554473877
1.436625,0.4462293443489819,-0.5275398463357239,-1.2978916930824518,0.1389320641756057,0.1082507669925689,1.0953481197357178
1.4466513671875,-1.052915792635828,0.9130406542818992,0.2514595633774996,0.6590178608894348,-0.4731427133083343,0.71185302734375
1.45667724609375,-2.4628625239282846,2.335740411098301,2.746754284355044,1.0035896301269531,-0.605307936668396,0.2760426700115204
1.466703125,-2.324663867419213,3.151017806568741,5.471590751412511,1.098232984542847,-0.3872544765472412,-0.0535145923495292
1.476729248046875,-1.6156600041478872,3.04854790443629,7.792076017972827,0.9822842478752136,0.0103749278932809,-0.2210135757923126
1.486755126953125,-0.9264468830175696,2.2819489074170587,9.290294468566774,0.7431057095527649,0.3344618380069732,-0.2300059795379638
1.49678125,-0.4928520523793995,1.7982028292961418,10.022985058504345,0.5017354488372803,0.4800882637500763,-0.2026332169771194
1.50680712890625,-0.426751723277755,1.5945286610528826,9.776071906384823,0.3448725044727325,0.4216873049736023,-0.2007890343666076
1.5168330078125,-0.316966566228494,1.348010207339376,9.464619938859345,0.2109945863485336,0.2258938252925872,-0.1678100526332855
1.52685888671875,0.176641912275087,1.1019466577865182,9.579521160280704,0.0865412354469299,0.0134701039642095,-0.1096486002206802
1.536884765625,0.5165025386884808,0.8626172387942671,9.902274274021387,-0.0082052489742636,-0.1391777545213699,-0.0286967623978853
1.546910888671875,0.6157364545743912,0.9797538911174982,10.37899980585575,-0.0752564296126365,-0.1706943213939666,0.0130834178999066
1.55693701171875,0.3841914789132774,1.3573732250988482,10.860758071160316,-0.13042514026165,-0.101594865322113,-0.0427790470421314
1.566963134765625,-0.0170608970520086,1.6722306171536443,11.233708755743503,-0.1754564642906189,0.0430741049349308,-0.1961119621992111
1.576989013671875,-0.4532645036827772,1.7866437627971172,11.255811866480112,-0.1796714514493942,0.2253075689077377,-0.4059224426746368
1.58701416015625,-0.5920398641012609,1.6137489098295568,10.849282737421987,-0.1159628927707672,0.3851920664310455,-0.5775291323661804
1.597040283203125,-0.3291564779769629,1.271158584457636,10.379369223690032,-0.0354496762156486,0.5089662075042725,-0.6649234294891357
1.60706591796875,-0.0046732776242191,0.7609682245906442,9.944917483961582,0.0106946090236306,0.5783026218414307,-0.6703038811683655
1.617092041015625,0.1964495142193511,0.1036962290570139,9.60698316770196,-0.0436463914811611,0.5857434868812561,-0.6030787229537964
1.627117919921875,0.3193007813297212,-0.3792228236552327,9.475476263916493,-0.1846929043531417,0.5231180191040039,-0.47613525390625
1.63714404296875,0.3888909983737394,-0.6526958467245102,9.02496770787835,-0.3169513642787933,0.4081128537654876,-0.3420307338237762
1.647169921875,0.2323106628039851,-0.8290574259545653,8.334605855104327,-0.3627851903438568,0.2764303088188171,-0.2334204465150833
1.65719580078125,-0.0223266538267955,-0.8518984225116669,7.713903814011812,-0.3339186608791351,0.2080967873334884,-0.1529972404241562
1.667221923828125,-0.2199131727194413,-0.6712495213512331,7.407144972738624,-0.2966417968273163,0.242889866232872,-0.0922106802463531
1.677247802734375,-0.1243284635234624,-0.4570869845803826,7.514546193793415,-0.3231405019760132,0.3090912401676178,-0.0445917658507823
1.687274169921875,-0.0855258363931439,-0.3751549166291952,7.772005289846658,-0.4355476498603821,0.3567977249622345,-0.0138626536354422
1.697300048828125,-0.0675752970250323,-0.4855704440038651,7.798456074398755,-0.5594924688339233,0.3704877197742462,0.0266349706798791
1.707326171875,0.0013515242068096,-0.5155484528340399,7.5359788579225535,-0.6423279047012329,0.3215361833572387,0.0847186669707298
1.71735205078125,0.1481598958900198,-0.6457010924663394,7.066487368994951,-0.6779034733772278,0.2220905423164367,0.1691888123750686
1.7273779296875,0.3262225434169173,-0.8860619003329425,6.594412293314933,-0.6836928725242615,0.1288952827453613,0.2723473310470581
1.737404052734375,0.3935437560830265,-0.9986546986814588,6.264938346886635,-0.7070181369781494,0.0578456111252307,0.3786969482898712
1.747429931640625,0.3050204366406425,-0.9962240374684334,6.22175270063281,-0.7836745381355286,0.0224701408296823,0.4653937220573425
1.7574560546875,0.0857066180538386,-1.043029773915559,6.039605742934346,-0.8761194944381714,0.0047071231529116,0.5044577717781067
1.76748193359375,-0.0515703205004334,-1.0354827195368708,5.67288255456388,-0.9413766860961914,-0.0002976185642182,0.5278540253639221
1.777508056640625,-0.3721075482899323,-0.8650519185952842,4.846624038612842,-0.981831431388855,0.0341178774833679,0.541840136051178
1.787533935546875,-0.583431427568756,-0.749222184152156,3.516117777651548,-1.0197659730911257,0.1601489782333374,0.5973467826843262
1.797560302734375,-0.3343421369865536,-0.7589645566180347,2.0040151786118745,-1.120742917060852,0.3110780417919159,0.7461436986923218
1.807586181640625,-0.124183465562202,-0.6947839069999754,0.4789741875439882,-1.241557240486145,0.4413265883922577,0.9170872569084167
1.817612060546875,-0.1659340009789913,-0.451607457190752,-1.74637312720716,-1.2857872247695925,0.6437979340553284,1.0487898588180542
1.82763818359375,-0.0960207990583032,0.5580528388254344,-5.037959680417179,-1.244502067565918,1.031425714492798,1.1311092376708984
1.8376640625,0.0980506974507123,2.101454977622628,-9.207507464286683,-1.1646599769592283,1.4385337829589844,1.002616047859192
1.847690185546875,0.1036553125247359,2.9518484023988245,-13.565152638691664,-1.0664857625961304,1.3710265159606934,0.6128535866737366
1.857716064453125,0.8439658759467303,2.4351759139709173,-17.116695949989555,-0.8076246976852417,0.4522024095058441,0.1667930036783218
1.8677421875,2.131931510559469,1.1616045692831276,-20.471490362262724,-0.1709309518337249,-0.7620845437049866,-0.1349068582057953
1.87776708984375,3.527985325577855,0.6945049439281225,-23.48153025686741,0.7151604890823364,-1.6610108613967896,-0.0700447708368301
1.88779296875,4.931037182790041,1.6469794176496564,-23.64987957535982,1.4149513244628906,-2.0925769805908203,0.0864192917943
1.897819091796875,3.3127240337848662,1.6564346437372266,-21.754183901691437,1.735933780670166,-2.046480178833008,-0.1773276627063751
1.907844970703125,-1.1774766766756772,1.592482688308507,-19.66539025272131,1.7125999927520752,-1.3389126062393188,-0.7573094964027405
1.91787109375,-3.1431586175009607,1.5897604237377645,-18.84855130702257,1.5026696920394895,-0.4514385163784027,-1.0703861713409424
1.927897216796875,-0.124324883326888,0.0255376152299344,-18.551576777660845,1.3163820505142212,0.0697229877114296,-0.8961306810379028
1.937923095703125,2.674006443530321,-1.7897253621995448,-17.68482433875799,1.1255290508270264,0.3173157572746277,-0.4855617880821228
1.94794921875,3.1290266317740083,-2.2555549676187336,-15.742462775504588,0.8551510572433472,0.3629042208194732,-0.0670325383543968
1.95797509765625,3.0583088354721664,-1.973933344081044,-13.068735733437537,0.6155872344970703,0.1872583478689193,0.2268733829259872
1.968001220703125,2.360207620617748,-1.3957443106777965,-10.448242268908023,0.5050613880157471,-0.1310257017612457,0.3210643529891968
1.978027099609375,1.353640614441782,-0.6922213630355895,-8.100566213083267,0.5757694244384766,-0.5208891034126282,0.2780830562114715
1.98805322265625,0.7163951425664127,0.2161975497297942,-5.75524110429883,0.7856152057647705,-0.8162971138954163,0.1504951417446136
1.9980791015625,0.1069223149640485,0.9584931494891644,-3.280634951084852,1.0292582511901855,-0.996213674545288,-0.0205900482833385
2.00810498046875,-0.2242435848728753,1.1929323852870612,-0.795512664553523,1.21980082988739,-1.078119158744812,-0.1844470053911209
2.018131103515625,-0.1317898763121571,1.2101971891470251,1.5698048464238643,1.298877477645874,-1.021560549736023,-0.2790954709053039
2.028156982421875,0.3295285261597484,1.1258390630926935,3.892660349246859,1.222784399986267,-0.829959511756897,-0.2683363854885101
2.03818310546875,1.1156805841065942,0.7504045988697559,5.983633095821738,1.0183337926864624,-0.559320867061615,-0.1581044346094131
2.048208984375,1.7855872394815089,0.4099801828274503,7.794097294667362,0.7018726468086243,-0.2656659483909607,0.0191592276096344
2.058235107421875,2.0255951422572136,0.3341783977922052,9.099580173531177,0.3281645178794861,-0.010376114398241,0.1791262477636337
2.068260986328125,1.7557490044482051,0.3871136865029111,9.686846393489835,0.0188311636447906,0.1287289410829544,0.2585691809654236
2.078286865234375,1.3724747865103184,0.3524002831812948,9.682223994386195,-0.1209669560194015,0.1047570332884788,0.2703438103199005
2.08831298828125,1.0240013944491744,0.3714882108151912,9.389171606904268,-0.0761102139949798,0.0217232834547758,0.2409409880638122
2.09833837890625,0.7158384585317223,0.5205014355989173,9.22944866245985,0.0894470587372779,-0.0848995670676231,0.1944845467805862
2.108364501953125,0.5119099502012133,0.7117847992267459,9.55526291733682,0.2483778148889541,-0.173199325799942,0.1068729236721992
2.118390380859375,0.2425478878484107,0.7046494674541056,10.125866756308078,0.3326261043548584,-0.255900889635086,-0.0024756658822298
2.12841650390625,0.332330431837961,0.5674013166029006,10.70095446269512,0.3292427361011505,-0.2844234108924866,-0.0609099827706813
2.1384423828125,0.5209580933252349,0.5213204603642225,10.997744283139705,0.2684307992458343,-0.2289993017911911,-0.0524547100067138
2.14846826171875,0.5480916725097223,0.4421483951782807,11.07533839495182,0.1810351908206939,-0.1228576824069023,-0.0115490369498729
2.15849462890625,0.4762864462973549,0.2835770319217816,11.03445693398714,0.0924248918890953,0.0033279447816312,0.0190224554389715
2.1685205078125,0.2746000543378293,0.1809702055366709,10.82628413915038,0.0030530886724591,0.1433755606412887,0.0333995893597602
2.1785458984375,0.1650179455799982,0.0338643122116103,10.516780967605111,-0.0895444899797439,0.2594379782676697,0.0523269437253475
2.188571533203125,0.1216531981659121,-0.1426341547384858,10.12185225996971,-0.1790850311517715,0.2944555282592773,0.0817232504487037
2.198597412109375,0.0345240912945941,-0.254391379045695,9.65291431327164,-0.2309426367282867,0.2569238543510437,0.0995821431279182
2.20862353515625,-0.1663251009221188,-0.3299800327869132,9.131734722682832,-0.2117496281862259,0.1868556439876556,0.0966031700372695
2.2186494140625,-0.5698341697730124,-0.2803196010284126,8.742509195125102,-0.1700916588306427,0.0793353021144867,0.070962518453598
2.228675537109375,-0.8778491485871374,-0.2545677219932898,8.459607030257581,-0.1176487132906913,-0.0011043543927371,0.0371865443885326
2.238701416015625,-1.0521311450641602,-0.3348802989838644,8.09134479575157,-0.0622746720910072,-0.046477161347866,0.0045985071919858
2.2487275390625,-1.2613820174612105,-0.2040302151393145,7.95081871920824,-0.0373760052025318,-0.0361214540898799,-0.0399200096726417
2.25875341796875,-1.360354725127667,-0.0740140613682568,7.824729164296387,-0.0499011166393756,-0.0089145991951227,-0.0594718754291534
2.268779296875,-1.068727328947559,-0.2579759230015799,7.490905205965042,-0.0654161646962165,-0.0070000537671148,-0.0252113714814186
2.278805419921875,-0.8793927978325635,-0.4361158735483884,7.053039273878931,-0.0713438242673873,0.0057474332861602,0.0192602220922708
2.28883154296875,-0.8972807750921696,-0.4759104525918141,6.396399073442816,-0.0821396112442016,0.0133576542139053,0.0779838263988494
2.298857666015625,-0.9901859994132072,-0.4836057563347741,5.335443328344821,-0.119657963514328,-0.0100539289414882,0.0951284617185592
2.308883544921875,-1.6396717249847947,-0.5763119874849915,3.688252459901571,-0.1492078751325607,-0.0293406434357166,0.023924347013235
2.31890966796875,-2.649887316796184,-0.93465722361058,1.0545704279750585,-0.0893916934728622,-0.1302012205123901,-0.0682505890727043
2.328935546875,-2.9404230452820657,-1.3143493452779949,-2.163961410418153,0.1183295845985412,-0.3252504467964172,-0.1196125000715255
2.33896142578125,-2.731994522118568,-1.8396721731513737,-5.925972934013605,0.4388756453990936,-0.4834350347518921,-0.0497876144945621
2.348987548828125,-1.568195949922502,-2.1527342062219974,-9.337138052806258,0.7384821176528931,-0.5624752044677734,0.2429802268743515
2.359013427734375,0.6535732871461659,-0.9979232426017522,-12.270704364061356,0.8244960904121399,-0.3296233117580414,0.8011378049850464
2.36903955078125,1.9645225416570904,1.563277052090317,-14.720517436802387,0.5040897727012634,0.1043054088950157,1.2859973907470703
2.3790654296875,0.8459412676729261,3.743496792739629,-16.29006275550723,-0.1202119290828704,0.4103308320045471,1.235902190208435
2.389091552734375,-0.722607587340474,4.011861898210644,-17.43250728176832,-0.7415812015533447,0.3297873735427856,0.7507128715515137
2.39911767578125,0.298910538925603,2.9311355769768355,-18.25647038025856,-0.9895438551902772,-0.2507175803184509,0.1963119953870773
2.409143798828125,1.554991892695427,2.44888792072013,-19.592044446003435,-0.6881995797157288,-0.8826059103012085,-0.1955306380987167
2.419169677734375,0.4616475704941898,4.0386268632784486,-20.54510504904985,-0.0930030941963195,-1.0365957021713257,-0.5177736282348633
2.429195556640625,-1.468209096777439,4.260767100930214,-19.33322633655667,0.3848530054092407,-0.895050585269928,-0.9218347668647766
2.4392216796875,-1.409791394600272,1.4434906889759005,-15.196417623728513,0.5458389520645142,-0.7791354060173035,-1.2856897115707395
2.44924755859375,-0.646473465078324,-1.4284139697447418,-11.888969484519958,0.5108398795127869,-0.4610285460948944,-1.5166563987731934
2.459273681640625,-0.6599857114717363,-3.409253147691488,-10.557211177670956,0.4717207252979278,-0.1305025368928909,-1.5111634731292725
2.469299560546875,0.3332567529026419,-4.734986787423491,-9.646374682369828,0.4898334443569183,0.0831710621714592,-1.2090049982070925
2.47932568359375,1.8834350347712636,-5.51439412035048,-8.136414940577746,0.4774335026741028,0.2081425637006759,-0.7129480242729187
2.4893515625,2.653136089459061,-5.611538735806942,-5.437587944045663,0.3576734662055969,0.3516560792922973,-0.2208369523286819
2.49937646484375,2.305565491456538,-4.935432787400484,-2.575271344012022,0.203320637345314,0.4755420684814453,0.0976440832018852
2.509402587890625,1.5501716329321265,-3.845637024526298,-0.4991021988153457,0.1588138192892074,0.5179020762443542,0.190869852900505
2.519428466796875,0.7078256132721901,-2.718882527089119,0.5708119287639856,0.2943040132522583,0.4195810854434967,0.1094423681497573
2.529454833984375,-0.0518695591753348,-1.676045499266684,1.1553086840093134,0.5555171370506287,0.1982936114072799,-0.0666365027427673
2.539480712890625,-0.2884256409967318,-0.9347003320999444,1.6093465832173823,0.8549067378044128,-0.121512085199356,-0.212003007531166
2.549506591796875,-0.2036160813804715,-0.3627902693683281,2.527747376292944,1.1191058158874512,-0.4314199090003967,-0.2718407213687897
2.55953271484375,-0.2386366874877363,0.1859466239760629,3.729178929051757,1.2756842374801636,-0.65092933177948,-0.2448141723871231
2.56955859375,-0.2354449787743389,0.6712807202070951,5.337489154958725,1.2787892818450928,-0.7257760763168335,-0.155552476644516
2.579584716796875,-0.2337175704598426,1.1432029434129596,7.059907406082749,1.1110715866088867,-0.6142287850379944,-0.0724003389477729
2.589610595703125,-0.4028316627796739,1.3787640959128735,8.512398124724626,0.8294137120246887,-0.3873206675052643,0.0146396160125732
2.59963671875,-0.1348082834184169,1.500719912020862,9.4279248236686,0.5048867464065552,-0.1009975522756576,0.1530198603868484
2.60966259765625,-0.0600690495807677,1.797849778074771,9.869137728095057,0.168253019452095,0.2014979273080825,0.2923703789710998
2.6196884765625,-0.3977668536707758,2.066685277536511,9.745369894129038,-0.1266406774520874,0.4012110531330108,0.3850872814655304
2.629714599609375,-0.4551901379831135,2.317133179653436,9.2239652626127,-0.3168576955795288,0.453968346118927,0.4142704606056213
2.639740478515625,-0.5601413355372846,2.6303379821956154,8.511500883623958,-0.3825994431972503,0.433271586894989,0.3864518702030182
2.6497666015625,-0.7381314658172429,2.847546024142205,7.670295558431744,-0.3502943217754364,0.3312143981456756,0.3526235520839691
2.65979248046875,-0.4139476616863161,2.9933821897923947,7.223413376197218,-0.2870170772075653,0.1295182853937149,0.3208933174610138
2.669818603515625,-0.2071707781873643,3.021675679601729,7.14649730977714,-0.2372928857803344,-0.1269895583391189,0.2593031525611877
2.679844482421875,-0.0686248426105827,2.8657442363947627,7.341786657643317,-0.2085142433643341,-0.3750164210796356,0.1874226033687591
2.689870361328125,0.2065362796761095,2.660624691648781,7.663226350697874,-0.1688224822282791,-0.5182417631149292,0.1310719698667526
2.699896484375,0.4534920288283378,2.47118903824687,8.058568899831176,-0.142354667186737,-0.5405310988426208,0.1007859706878662
2.70992236328125,0.7089408079724758,2.1551073650941253,8.633563667237759,-0.1785414069890976,-0.4699580371379852,0.1004920601844787
2.719948486328125,0.8875965625543146,1.8142752815663812,9.22674291063249,-0.2768879532814026,-0.3216737806797027,0.1109795868396759
2.729974365234375,0.8933661589317023,1.5396033310361206,9.474905186030268,-0.4169699549674988,-0.1057927310466766,0.0802094936370849
2.740000732421875,0.5983508008137345,1.2547672754965722,9.368791082176566,-0.5853973031044006,0.0851572528481483,0.0055270013399422
2.750026611328125,0.6737319127514958,0.7798253391433507,8.922605650034546,-0.7309601306915283,0.2212337106466293,-0.0261087641119956
2.760052490234375,1.2002991146627813,0.3468142632098868,8.102298151442408,-0.8085513710975647,0.2717709243297577,0.0374017693102359
2.77007861328125,1.5997358743071557,0.0689029380327556,7.197021628355979,-0.8148277997970581,0.2261061519384384,0.1231757476925849
2.7801044921875,1.6702656006909906,-0.2066613490941934,6.3895180817574255,-0.7609012126922607,0.0744079798460006,0.1755361557006836
2.790130615234375,1.5427958434671163,-0.469205657723546,5.695086787587404,-0.6234814524650574,-0.0907721519470214,0.1984240561723709
2.800156494140625,1.382944596467912,-0.6508282992869615,4.854489949682355,-0.4300105273723602,-0.195408821105957,0.2217762470245361
2.8101826171875,1.2630217474922536,-0.8515797119513153,4.089495757511258,-0.3003504276275635,-0.2464165836572647,0.2217175364494323
2.82020751953125,1.040482208324596,-1.136867383715883,3.1902240277975795,-0.2764943838119507,-0.1828048378229141,0.2178439795970916
2.8302333984375,1.0086763995453716,-1.206709200900793,1.6728385199189184,-0.341100662946701,-0.0325934775173664,0.3130391538143158
2.840259521484375,1.1088258228410035,-1.014610173508525,0.0224514857828617,-0.4567180573940277,0.0605796091258525,0.4991608262062073
2.850285400390625,0.763821129803732,-0.8344948677681386,-1.979569888663292,-0.4834896028041839,0.1727824509143829,0.6679793000221252
2.8603115234375,-0.5225497829634695,-0.2765618559300899,-4.638896064934134,-0.353735864162445,0.4113564193248749,0.7691261172294617
2.870337646484375,-1.957925919871032,0.8887200866915285,-7.631402640935778,-0.1696483492851257,0.7991608381271362,0.7907097935676575
2.88036376953125,-2.093713277454674,1.6582162664569913,-10.348829123997689,-0.1306141316890716,1.0543960332870483,0.7987022399902344
2.8903896484375,-0.5770631711784749,1.75541319662258,-12.241034032940863,-0.3749749958515167,0.9222351312637328,0.850564181804657
2.90041552734375,1.1272197768613696,1.0348442755028604,-13.36910516593456,-0.7002209424972534,0.320185512304306,0.822158932685852
2.910441650390625,1.4723828753307462,-0.1044037562718614,-14.501829093170166,-0.660529375076294,-0.5214278101921082,0.6753230690956116
2.920467529296875,0.5314893146138638,-0.1913705304546281,-15.790439163166283,-0.1246339380741119,-1.2952334880828855,0.5540315508842468
2.93049365234375,-1.0760763034708798,1.4875892122909429,-16.25298887013197,0.631896436214447,-1.4725468158721924,0.466407835483551
2.94051953125,-3.16447729986161,2.6853368158400057,-15.916140595543384,1.1503092050552368,-0.9930180907249452,0.2446067184209823
2.950545654296875,-4.727532672025263,1.759580983826518,-13.733078763335945,1.06405770778656,-0.2500541806221008,0.003429630305618
2.960571533203125,-4.520416108243167,0.5119507206030189,-11.692850700092317,0.6317792534828186,0.547636091709137,-0.1315785199403762
2.970597412109375,-3.881380830341577,-0.4115312116617337,-12.042878774249552,0.303751140832901,1.2427870035171509,-0.1426040381193161
2.980623779296875,-2.4708558607697486,-1.7055268836863338,-13.797903409945963,0.1579875499010086,1.6393847465515137,-0.0269847773015499
2.990649658203125,-0.9376382121827452,-2.868384229509532,-14.90759016046524,0.0168822854757308,1.7044576406478882,0.1675693988800048
3.00067578125,-0.1839796164857223,-3.317278920610249,-14.956384878772496,-0.1477228999137878,1.3388066291809082,0.3793333172798157
3.01070166015625,0.4416182703569531,-3.388461704075336,-14.480145669150351,-0.1931493133306503,0.5702781081199646,0.5471588969230652
3.020727783203125,0.9027351680405438,-3.168210348910093,-13.25724404286146,-0.0732146427035331,-0.3784274756908417,0.6295027732849121
3.030753662109375,1.032245929572731,-2.5352649123162028,-10.80580833735466,0.1490966081619262,-1.2631646394729614,0.6128168702125549
3.040779541015625,0.7537396615765989,-1.5858005801960824,-7.391216751244664,0.4305189549922943,-1.909498929977417,0.4947884976863861
3.0508056640625,0.2151477484159171,-0.6951025444950908,-3.344325625228881,0.713096559047699,-2.152409553527832,0.2666803300380707
3.06083154296875,-0.382665073063597,0.2199993166329339,1.102750229254365,0.8553346395492554,-2.0007131099700928,-0.0247704107314348
3.070857666015625,-0.4089383090917021,0.7732342703152447,5.298632477819919,0.7864639759063721,-1.547821044921875,-0.2586984932422638
3.08088330078125,0.3356448901481926,0.7740361612826585,8.540318981829286,0.571503758430481,-0.9360615611076356,-0.3439548015594482
3.09090966796875,1.0438437206469475,0.595756911863014,10.77165939951539,0.2871401309967041,-0.3172007799148559,-0.2968242764472961
3.100935302734375,1.5616398062773047,0.4056733524790033,11.947311783373356,0.007629666943103,0.2236795276403427,-0.2050773352384567
3.11096142578125,1.6748270633876323,0.2295538201102055,12.23848551750183,-0.173920065164566,0.6348502039909363,-0.146644040942192
3.120987548828125,1.315318044179678,0.5741662076279521,12.04971183513999,-0.2503381371498108,0.9110159873962402,-0.1451502740383148
3.131013427734375,1.0911991999313235,1.171524198012054,11.60074875497818,-0.2360954582691192,0.9777736067771912,-0.1991854161024093
3.14103955078125,0.9571190846569836,1.3674974364891648,11.249095709967612,-0.1494145989418029,0.7300705909729004,-0.2963697612285614
3.1510654296875,0.8852868243072182,1.1916501634567975,11.022536194568872,-0.0246568545699119,0.3429107367992401,-0.3951870203018188
3.161091552734375,0.9063928868304938,1.3280955465577542,10.786944646930694,0.0965611785650253,0.0150140821933746,-0.4492164254188537
3.171117431640625,1.0233186728820205,1.7683653249152005,10.689380929279327,0.1828629374504089,-0.1397151798009872,-0.4749405682086944
3.181143310546875,1.0982827284514904,2.013283503825217,10.73534422355294,0.2065182030200958,-0.163486823439598,-0.5186840891838074
3.19116943359375,0.9440267441760748,2.0786985175438226,11.047584126585722,0.1351171731948852,-0.0444669425487518,-0.6021424531936646
3.2011943359375,0.5840123327292501,2.081545723668486,11.035304490727183,-0.0167461335659027,0.1888265013694763,-0.6721177697181702
3.211220458984375,0.5228160326842218,1.9934832632035016,10.753428161776066,-0.1820658296346664,0.3900677859783172,-0.7044413089752197
3.221246337890625,0.6469139023222029,1.5421683592185378,10.148307720696923,-0.2993122935295105,0.4723762273788452,-0.7019906640052795
3.231272216796875,0.6419093720331788,1.0041109913259745,9.296638284635543,-0.328423410654068,0.4141152203083038,-0.6710030436515808
3.241298583984375,0.5657557413529605,0.6094266138404607,8.258262620136142,-0.2586871981620788,0.2533614635467529,-0.6070371270179749
3.251324462890625,0.6252531285256147,0.1761312410729006,7.446255332377553,-0.1216436624526977,0.0026154837105423,-0.5244094729423523
3.2613505859375,0.6969163889840245,-0.186691432727687,7.209147534957528,-0.0243077836930751,-0.2461839616298675,-0.4272171556949615
3.27137646484375,0.7983622818309813,-0.4828072629008442,7.393361362057924,-0.0188105050474405,-0.4005840420722961,-0.3136147260665893
3.281402587890625,0.7693837323669344,-0.5543021079897881,7.822968584364652,-0.0697282776236534,-0.4363601505756378,-0.1817312687635421
3.291428466796875,0.7936356917005032,-0.5036737079819664,8.272076625955105,-0.1412630528211593,-0.3879368007183075,-0.0556676462292671
3.301454345703125,0.6883157338991761,-0.2732547589424066,8.572793264454603,-0.2052782624959945,-0.2613295912742615,0.0205501578748226
3.31148046875,0.4834348932798951,-0.0544326191629515,8.59032833662331,-0.214836448431015,-0.0693629384040832,0.0494165606796741
3.32150634765625,0.5629221984274685,0.0410418071921216,8.452128072679042,-0.1815722435712814,0.1244491413235664,0.0638429000973701
3.331532470703125,0.8881860528800636,-0.1648182034905068,8.22659848484993,-0.1515363007783889,0.2948765158653259,0.1062436178326606
3.341558349609375,1.2941343863755463,-0.6646729194398969,8.001727068668604,-0.1724778115749359,0.4096063077449798,0.204739049077034
3.351584716796875,1.5402295001104471,-1.05873390433006,7.554092606762051,-0.2382411360740661,0.4552437961101532,0.3066290915012359
3.361610595703125,1.3660213725872337,-1.326882809767127,6.583589870527386,-0.2965955138206482,0.491863340139389,0.4036014378070831
3.37163671875,1.0410991711791604,-1.320514882170409,4.765670094978809,-0.3184048235416412,0.590596616268158,0.4858901798725128
3.38166259765625,0.6605375732008367,-1.1429867433790115,2.319681548961997,-0.3194932639598846,0.7597867250442505,0.497753232717514
3.3916884765625,0.0769706826841458,-1.155097087085247,-0.5154004226654768,-0.2943539917469024,0.8972867131233215,0.434138536453247
3.401714599609375,-1.0472961991883811,-0.8369217295888811,-4.023728861615061,-0.1704853177070617,1.1339584589004517,0.3861595392227173
3.411740478515625,-2.1827656257398425,0.5858813780041411,-8.627623171272873,0.0386809036135673,1.6130472421646118,0.3678243160247803
3.4217666015625,-2.607487852483988,2.194024832509458,-13.521839566665887,0.1301738023757934,2.1009225845336914,0.4219839572906494
3.43179248046875,-1.211570523326844,2.9593320361524817,-17.49812570910454,-0.1150286123156547,2.313654899597168,0.5040670037269592
3.441818603515625,0.9111158967643976,2.389214081002027,-20.24170779316425,-0.6276407837867737,1.9434832334518437,0.4408304989337921
3.451844482421875,2.763866454936564,0.7488618264071643,-22.08286289834976,-0.972835898399353,0.9841738343238832,0.2304887324571609
3.46187060546875,2.57942524882108,0.3346040758583694,-23.58076336903572,-0.7789095640182495,-0.1485580205917358,0.0676169991493225
3.471896728515625,-0.286686980635859,2.8752970776379105,-24.960181252682208,-0.098597727715969,-0.6525768637657166,-0.1911544948816299
3.481922607421875,-3.3087253195375204,4.045191044099629,-25.31003163218498,0.6336245536804199,-0.8838005065917969,-0.6601305603981018
3.49194873046875,-3.769261348593235,1.6806534314535555,-22.74547691249847,1.1790744066238403,-1.1499959230422974,-1.139262557029724
3.501974609375,-2.962442569388449,-0.9442283311627804,-20.63358529653549,1.591766357421875,-1.111843466758728,-1.4071509838104248
3.512000732421875,-1.797498188158125,-2.557038644967973,-18.95030838471055,1.8190338611602783,-0.9140770435333252,-1.278572916984558
3.5220263671875,0.8669078486602753,-3.933611076055467,-15.914215180438756,1.6627119779586792,-0.7287703156471252,-0.7921078205108643
3.53205224609375,2.791243414422869,-4.843830316241085,-11.9853501298666,1.0472571849822998,-0.5806165933609009,-0.1946167200803756
3.542078369140625,3.521025715698302,-4.887849782970547,-8.048360809549688,0.2736070454120636,-0.4706061780452728,0.3508191406726837
3.552104248046875,3.664094170200825,-4.124789773732424,-5.8683840838760135,-0.2085740119218826,-0.2450187057256698,0.7242244482040405
3.56213037109375,2.9603379983246323,-2.4754288677737115,-4.798395722016692,-0.3654142320156097,6.72060996294e-05,0.8486827611923218
3.572156494140625,1.8370538073465228,-0.5980317249272018,-2.9660125368297097,-0.3698334395885467,0.152333378791809,0.6119329929351807
3.582181396484375,0.7817306613080203,0.7488983590252697,-0.3896376154899597,-0.2949964702129364,0.1812262833118438,0.158389464020729
3.592207763671875,0.8565103732865303,1.3947516463786362,1.8658634299844503,-0.1476382613182068,0.1302172243595123,-0.2257818281650543
3.602233642578125,1.5773869721159337,1.8198890297949315,3.759601539844274,0.0512522011995315,-0.0122842602431774,-0.4409700334072113
3.612259521484375,2.05006600503847,1.691631190933287,5.54054095351994,0.2265208959579467,-0.2233243137598037,-0.5734673738479614
3.622285400390625,1.841860915367305,1.05821616406627,7.36871207396984,0.3482720851898193,-0.3828250169754028,-0.6604062914848328
3.6323115234375,1.3057521973244846,0.5162899919163435,9.063209467989203,0.4225787818431854,-0.3709300458431244,-0.6878383159637451
3.64233740234375,0.6212547796044499,0.2371149760794825,10.39925465837717,0.4294047355651855,-0.1712486296892166,-0.6631745100021362
3.65236328125,0.101875699098967,-0.010173274696432,11.654614785200357,0.33267343044281,0.1196592450141906,-0.5891394019126892
3.662389404296875,-0.2900069371051155,-0.222147763371095,12.448756745922564,0.1833425313234329,0.3758785128593445,-0.5007123351097107
3.672415283203125,-0.9358518402226268,-0.2438824061214923,12.351997330391406,0.074428491294384,0.5607642531394958,-0.4245378077030182
3.68244140625,-1.3301872581399976,-0.2195656744560226,11.692310601866245,0.0342531092464923,0.667823076248169,-0.3241536915302276
3.69246728515625,-1.358772278241813,-0.1007567050063982,10.865541798305513,0.0233840644359588,0.6863170266151428,-0.2085974067449569
3.70249365234375,-1.517229440534115,0.1150979861024767,10.220824675375225,-0.0309255123138427,0.6474835872650146,-0.1242095604538917
3.71251953125,-1.7703868938706817,0.3235419625634327,9.606332594838738,-0.1174456924200058,0.5750803351402283,-0.0720619559288024
3.722545654296875,-1.6941253458365797,0.5360361277306452,8.87314048511982,-0.1832657158374786,0.4904301762580871,-0.0127618797123432
3.732571533203125,-1.3929437201738355,0.6806389156609773,8.139325275066495,-0.221915066242218,0.4022148251533508,0.0480652563273906
3.742597412109375,-1.2559610153257843,0.7992639799110591,7.68445793929696,-0.2586472332477569,0.3003249168395996,0.091641753911972
3.75262353515625,-1.1423111091397702,0.9221184984244406,7.439971137541532,-0.2946650385856628,0.165365844964981,0.0926308929920196
3.7626494140625,-1.093186574356258,0.9864666135638952,7.302835287958383,-0.3082269430160522,0.005374317523092,0.0549343824386596
3.772675537109375,-0.8702483912598341,1.0120287056479602,7.233208794024586,-0.2810253500938415,-0.1506686508655548,0.0210145767778158
3.782701416015625,-0.5731630219347774,1.0600843690909445,7.311322545796632,-0.2214650809764862,-0.2835143208503723,0.0012350113829597
3.7927275390625,-0.4275493033962324,1.0815367608338593,7.56800773486793,-0.1568473875522613,-0.3651699423789978,-0.043706327676773
3.80275341796875,-0.5388873524433001,1.0415579477973282,8.009918558430671,-0.1345053315162658,-0.391899824142456,-0.1069750487804412
3.812779541015625,-0.3314748379219323,0.9493155712991952,8.36772252728641,-0.1533955484628677,-0.3772743046283722,-0.1532905548810959
3.8228056640625,-0.1366249135194812,0.8265521651353687,8.583556066009402,-0.21243916451931,-0.3315457105636596,-0.1474238783121109
3.83283154296875,0.1929453785559162,0.6986915088977664,8.701030352789163,-0.3061985075473785,-0.2399074286222458,-0.0762454643845558
3.842857666015625,0.6394754228845239,0.6027670828860253,8.680980667451024,-0.4297001957893371,-0.1281830370426178,-0.0032229139469563
3.852883544921875,0.8870410475634037,0.62014718368873,8.56927268911302,-0.5386868119239807,-0.0887519568204879,0.0414459072053432
3.86290966796875,0.9142783063180744,0.6616829438436777,8.229259813013673,-0.5759643912315369,-0.1194869726896286,0.0657757446169853
3.872935546875,1.046740172740817,0.5753815382344648,7.600687769198418,-0.5094788074493408,-0.2096109092235565,0.0849038287997245
3.88296142578125,0.9885379399452358,0.455598901447095,6.734675335007905,-0.3725166916847229,-0.2711088955402374,0.0928943753242492
3.892987548828125,0.8666841229069977,0.3224019622154533,5.846725794297456,-0.2548366487026214,-0.2860980629920959,0.1339737176895141
3.903013427734375,0.83599599304609,0.2398454787556082,4.77372597566247,-0.2217111885547638,-0.148648589849472,0.1930934935808181
3.91303955078125,0.2746768276347778,0.3569704041084274,3.0751123784959318,-0.308616429567337,0.0983555316925048,0.3108834624290466
3.923065673828125,0.1459043355155736,0.4666640834819525,1.2628636343210935,-0.5111607909202576,0.3360527753829956,0.5078200101852417
3.933091796875,-0.1495427011510822,0.7962747349672019,-1.139104568183422,-0.6801149845123291,0.5273150205612183,0.6384630799293518
3.94311767578125,-1.682425555692613,1.5719376206688582,-5.003562320774793,-0.694904625415802,0.7849308252334595,0.6528787612915039
3.953143310546875,-2.789870372503996,2.755068815974891,-9.71925520966351,-0.5919352769851685,1.0090763568878174,0.5852231383323669
3.96316943359375,-3.737346453416347,3.786536308521032,-14.4283921010375,-0.488482117652893,1.253113031387329,0.363558679819107
3.9731953125,-4.278084438695013,3.677703008836508,-18.77124828711152,-0.5166118741035461,1.2933499813079834,0.0555791519582271
3.983221435546875,-2.111927417928725,1.6116943153873085,-21.373641446805,-0.6746931076049805,0.8158857226371765,-0.1628573089838028
3.993247314453125,1.1093613179571926,-1.1303365937076508,-22.287913177251813,-0.6526339650154114,-0.2252462953329086,-0.2015303969383239
4.0032724609375,2.331580076548457,-1.6123673923432826,-23.122909710931776,-0.249316319823265,-1.1317671537399292,-0.1199375241994857
4.013298583984375,1.8238618789486587,-0.2520112059108912,-23.21097377883196,0.3288503885269165,-1.6828911304473877,-0.0743578076362609
4.023324462890625,1.1656379164524375,0.3068826137833297,-20.806643523371218,0.7447927594184875,-2.0143725872039795,-0.1507130265235901
4.0333505859375,0.3804173672020435,-0.2052064923770725,-16.942615978890657,0.8808416724205017,-1.830355167388916,-0.3033678233623504
4.04337646484375,-0.6437947473883628,-0.1661193674832582,-13.523299702346325,0.7855359315872192,-1.0907142162322998,-0.444690078496933
4.053402587890625,-1.427542739868164,0.4863418667677789,-11.34676931773424,0.5794776082038879,-0.1794665902853012,-0.5683083534240723
4.063428466796875,-1.2384408484652638,0.7115165036793798,-10.200741672289372,0.2914165258407593,0.504305899143219,-0.6297080516815186
4.073454345703125,-0.3718449883636087,0.5590875887006521,-9.10816387748122,-0.0935758203268051,0.966361939907074,-0.5951052904129028
4.08348046875,0.1070514943016693,0.3084705405618995,-8.18776460406482,-0.4743109047412872,1.106586456298828,-0.5159279108047485
4.09350634765625,0.3825276373542845,-0.1864719082254916,-8.011939250603318,-0.596518874168396,0.7754991054534912,-0.4449963867664337
4.10353271484375,0.6264860313214361,-0.6056058499759063,-8.241166523906587,-0.4228999316692352,0.1371652036905288,-0.3331004679203033
4.11355859375,0.8836383264478296,-0.6669133918430655,-7.346613054886459,-0.1216764003038406,-0.6205250024795532,-0.1566904634237289
4.123584716796875,1.0296918611757455,-0.5151747972160577,-4.892575642448663,0.1529724597930908,-1.2134333848953247,0.0047397101297974
4.133610595703125,0.7241257368184626,-0.0119407227603718,-1.163817569157481,0.2874639332294464,-1.4992241859436035,0.0857865512371063
4.14363671875,0.6351230728939176,0.692033731509,2.9891619417488573,0.2809700965881347,-1.4340193271636963,0.0666381567716598
4.15366259765625,0.5576651181494817,1.3454568695947526,6.56152066206038,0.2284789532423019,-1.085997462272644,-0.0428705140948295
4.1636884765625,0.2840557188168168,1.8161694247499107,9.285268749359249,0.2041991800069809,-0.5675560832023621,-0.2077393680810928
4.173714599609375,0.1625657666549086,2.0161722110040485,10.94465566703081,0.2806549668312073,-0.0515896789729595,-0.3799865543842315
4.183740478515625,0.0277705619137734,1.9093981819368897,11.492194856756925,0.4530358016490936,0.3062195777893066,-0.5600420832633972
4.1937666015625,-0.2798615550626069,1.6354237121514974,11.202523343884945,0.657893180847168,0.481363832950592,-0.6739912033081055
4.20379248046875,0.1052427278466522,1.111089456924051,10.637757125025988,0.7588205933570862,0.4833180606365204,-0.6619904637336731
4.21381884765625,0.5478172394825145,0.2965374165860935,10.629903488916158,0.6020952463150024,0.453663021326065,-0.5304567217826843
4.2238447265625,0.6305187939688564,-0.2158795880881138,11.2506096216619,0.2167899012565612,0.4860318601131439,-0.3008845150470733
4.23387060546875,0.731773328962177,-0.3218503927472979,11.280744063162803,-0.1560137271881103,0.520599365234375,-0.0522280260920524
4.243896728515625,0.4907155883399769,-0.1861933104798197,10.30449196962118,-0.3189906477928161,0.5169646739959717,0.1016938909888267
4.253922607421875,-0.2279191133141517,0.0924576814829371,8.882228631460666,-0.2623469829559326,0.5311833024024963,0.1380326151847839
4.26394873046875,-0.4626337685199454,0.5389982289392501,8.035297914358972,-0.1629514396190643,0.5256924033164978,0.1030503958463668
4.273974609375,-0.3593004544911906,0.817110675312206,8.1461033908993,-0.1341779977083206,0.4830061495304107,0.0187904331833124
4.284000732421875,-0.1871584839838556,0.7177209112774581,8.287538983502984,-0.1234177649021148,0.4132659435272217,-0.087733082473278
4.294026611328125,0.053551192119345,0.5979913198515773,7.879236415031552,-0.0520823076367378,0.2765593230724334,-0.1685424596071243
4.304052490234375,0.5123930575430393,0.4742701745714992,7.394962367513775,0.0635028779506683,0.0822609663009643,-0.2136958241462707
4.314078857421875,0.9282967486679552,0.14296071981173,7.338608027607202,0.1553620547056198,-0.1252394616603851,-0.229239210486412
4.324104736328125,0.9805272135775536,-0.1755034645633772,7.739528084611893,0.1861082464456558,-0.2981678545475006,-0.2320278137922287
4.334130859375,0.8350333585590124,-0.5012719806024805,8.238474216082691,0.1742747873067855,-0.3742991685867309,-0.2141720354557037
4.34415673828125,0.6916367680806667,-0.8873370348352938,8.626758663398027,0.1251631826162338,-0.324528157711029,-0.1567007601261139
4.354182861328125,0.6064144994776696,-1.2473220740571618,8.918422811391949,0.0356155633926391,-0.1470873653888702,-0.0659617409110069
4.364208740234375,0.2012340998810715,-1.3084860062025487,9.031258332455158,-0.1031271442770958,0.0658115819096565,-0.001685545546934
4.37423486328125,-0.1428475417608395,-1.1924161063279957,8.910434150725603,-0.2524866759777069,0.2243174165487289,0.0416004471480846
4.384260498046875,0.1680695151703432,-1.2806456669881938,8.212263670027255,-0.3370846509933471,0.2929430603981018,0.1148504242300987
4.394286376953125,0.8417427930697798,-1.3709487459868193,7.206098084259032,-0.32099249958992,0.276012122631073,0.2233326286077499
4.4043125,1.272122461053729,-1.3331515147730708,6.251260534667968,-0.2392129451036453,0.1826992481946945,0.3178116977214813
4.41433837890625,1.4423831661254167,-1.3664873826637862,5.421331805771589,-0.1334713101387024,0.0093441773205995,0.353830873966217
4.42436474609375,1.4244504729412495,-1.373505298601836,4.82025684069097,-0.0583874806761741,-0.2309403270483017,0.3628203868865967
4.434390625,1.5188037041135132,-1.4436863576784729,4.147347057977319,0.0168954730033874,-0.3921648859977722,0.4324809312820434
4.444416748046875,1.702103046717495,-1.4531829386897384,3.1883746005386118,0.092156670987606,-0.4317061603069305,0.5783028602600098
4.454442626953125,1.8004652212701735,-1.2515516744509338,2.032848474386334,0.1545370817184448,-0.2287050932645797,0.7227132320404053
4.464468505859375,1.573225906913727,-0.7492411811135709,0.5910697038948536,0.1203346401453018,0.1597771346569061,0.8590369820594788
4.47449365234375,1.3888732558645307,0.4994363261405378,-0.7386381001651287,-0.0877896398305893,0.6542337536811829,0.9526251554489136
4.48451953125,1.1048145413730293,1.9763091333016751,-2.776905676990747,-0.4007904231548309,1.107177495956421,0.891632080078125
4.494545654296875,0.3357266866801306,3.35085648830235,-5.803788569846749,-0.659372091293335,1.350502371788025,0.6532206535339355
4.504571533203125,0.2030416059607639,4.0306043003425,-9.63960007366836,-0.7569180727005005,1.2666349411010742,0.3257625997066498
4.514597412109375,0.7932909699160605,3.3134263368353247,-13.132413548099994,-0.6646029353141785,0.8425635695457458,0.0001747079368215
4.52462353515625,0.9756438985154032,1.8918636942900715,-15.708373458898066,-0.4250976145267486,0.2589071094989776,-0.2592821717262268
4.5346494140625,0.7110857110466807,0.7766206248179077,-17.42407964516282,-0.1479134410619735,-0.4379680156707763,-0.3753518462181091
4.544675537109375,0.2031749317505397,0.4893959936413913,-17.772652259814738,0.0564357116818428,-0.9740846753120422,-0.356495052576065
4.55470166015625,-0.8716666605599224,0.8488161655221134,-17.46042755435109,0.1621053218841552,-1.0902765989303589,-0.3052209317684173
4.564727783203125,-2.180093045529723,1.1869742806002497,-16.39865990834832,0.1426567882299423,-0.8485027551651001,-0.3022632002830505
4.574753662109375,-3.0981077618971464,1.0753966506436468,-15.29254341753125,0.0088965110480785,-0.2824856042861938,-0.4001231491565704
4.584779541015625,-3.715267308077216,0.5708101021330804,-14.944613776957988,-0.1720061600208282,0.2703522741794586,-0.5078749656677246
4.5948056640625,-3.0754823808521032,-0.2781878496967256,-14.85372529928684,-0.3439608812332153,0.5697580575942993,-0.4867940545082092
4.60483154296875,-1.4330457211986185,-1.2583439649395645,-14.667026669633389,-0.459978848695755,0.4523813724517822,-0.3063209652900696
4.614857666015625,0.2134005942213349,-2.003281019118428,-13.998431827509403,-0.4341526329517364,-0.0682365149259567,-0.0903682187199592
4.624883544921875,0.6368269542023539,-1.983211752296984,-12.854695507872105,-0.1944492161273956,-0.7774355411529541,0.0422231145203113
4.63490966796875,0.4536605903282761,-1.2315984352245926,-10.893245797789096,0.2021320164203643,-1.4095430374145508,0.0389779172837734
4.644935546875,0.0496677748147398,-0.3540671934802085,-7.694407670903205,0.5967994332313538,-1.777538180351257,-0.1036261096596717
4.65496142578125,-0.225923993974179,0.0844415665540844,-3.8390024088174095,0.8592801690101624,-1.7674942016601562,-0.2949840724468231
4.66498779296875,-0.0824726411012932,0.1670990992356091,-0.0541904398709535,0.9269756078720092,-1.3895913362503052,-0.4281037747859955
4.675013671875,0.1290683515269309,0.1194091272998601,3.165523301783204,0.8070619702339172,-0.7148892879486084,-0.5092471837997437
4.685039794921875,0.3068515610579401,-0.013592216294445,5.304311107978225,0.5582087635993958,0.0287257842719554,-0.5216018557548523
4.695065673828125,0.6703083680436015,-0.1797928871192969,6.265329976552724,0.2940024733543396,0.6085367798805237,-0.4799041748046875
4.705091796875,0.9325508989810944,-0.232355323929619,6.099262046995759,0.0923199653625488,0.869651734828949,-0.4466215968132019
4.71511767578125,1.1633183874636888,-0.3406867202403024,5.499789256414771,-0.0262315589934587,0.7354202270507812,-0.4675365090370178
4.725143798828125,1.1151171050049364,-0.4518402430333197,4.893728319615126,-0.0401132851839065,0.299286276102066,-0.5486074090003967
4.735169677734375,0.9371952907208352,-0.4371411980081349,4.518827085486054,0.0822664871811866,-0.2827232480049133,-0.6690241098403931
4.745195556640625,1.007964378818497,-0.3686537911068648,4.510151027077436,0.3240855038166046,-0.8460973501205444,-0.7494485974311829
4.7552216796875,1.048434993959963,-0.3202378064515069,5.131019072386622,0.6054134964942932,-1.192462921142578,-0.7314675450325012
4.76524755859375,0.8690291516631841,0.0096997297673951,6.514480093944072,0.7773868441581726,-1.264668345451355,-0.6432178616523743
4.77527392578125,0.705511198849976,0.3940258039789274,8.327590423384308,0.7594936490058899,-1.1051732301712036,-0.5179855823516846
4.7852998046875,0.5482376933842897,0.5047677137637511,10.137116464596986,0.5828480124473572,-0.7548530101776123,-0.4017876088619232
4.795325927734375,0.1676479652900248,0.7775912964809686,11.30126545766592,0.3441463410854339,-0.2851077020168304,-0.2999325394630432
4.805351806640625,-0.1492142637811601,1.1384352175544947,11.456701518571377,0.1387932002544403,0.1763787120580673,-0.2062931507825851
4.815377685546875,-0.2177732015486806,1.3830185384869575,10.896809043228624,-0.0220184605568647,0.4993382096290588,-0.132512629032135
4.825403564453125,-0.2521883891087025,1.4298115615829825,10.14783425796628,-0.198458194732666,0.6958406567573547,-0.0597092621028423
4.835429443359375,-0.1836990094460547,1.3545789182052017,9.53303121178448,-0.3812225759029388,0.7235606908798218,0.0388770028948783
4.84545556640625,0.1071066220223903,1.2204935422338543,8.646524271097778,-0.4933802783489227,0.5721525549888611,0.1347428113222122
4.8554814453125,0.2182804204184562,1.010273240282759,7.556517788082361,-0.4664760828018188,0.3093737661838531,0.195002406835556
4.865507568359375,0.1920878484111279,0.9612432519149036,6.707657564222813,-0.3195167481899261,0.0306957904249429,0.2019053250551223
4.875533447265625,0.0186905258141458,1.103888074177876,6.434091382977366,-0.1443360298871994,-0.1985913217067718,0.146322876214981
4.8855595703125,-0.1292271953504532,1.1445233783617614,6.715953683403134,-0.0139282206073403,-0.3208043277263641,0.0469614081084728
4.895585693359375,-0.0501459137205034,1.0102341503813863,7.162018119513988,0.0351562537252903,-0.2986505031585693,-0.0196766443550586
4.905611572265625,0.4752293749924748,0.8114489962887018,7.682884406369924,-0.0196446739137172,-0.1579817980527877,-0.0146661726757884
4.9156376953125,0.9600061113353818,0.4441447200946509,7.990846778213977,-0.1736009269952774,0.0296461582183837,0.0408687815070152
4.92566357421875,1.0531536199796945,0.1420855261460878,8.10417622027397,-0.3939751088619232,0.1763442456722259,0.100057266652584
4.935689697265625,1.0186311726529151,-0.0176634477887302,7.746929300779104,-0.6006649732589722,0.2280064523220062,0.1370483487844467
4.945715576171875,1.1568297560967504,-0.2466075019701384,6.941260568392276,-0.7186829447746277,0.1260425299406051,0.200682446360588
4.955741455078125,1.5432115846611558,-0.5588461446275934,5.92807195211947,-0.7047012448310852,-0.086474023759365,0.2891612946987152
4.965767578125,1.6045441513717174,-0.7523908773161471,4.942316117173433,-0.5646823644638062,-0.3055267333984375,0.3526270985603332
4.97579248046875,1.2313751478627324,-0.7193265198431908,4.219584026670455,-0.4265649020671844,-0.4068253338336944,0.4182488024234772
4.985818603515625,1.1039100668139754,-0.6543599074792117,3.754375914150476,-0.4230721592903137,-0.3186653852462768,0.4918058514595032
4.995844482421875,0.7627884988203645,-0.4859159695059061,3.018759792155027,-0.5829627513885498,0.04384371265769,0.5729630589485168
5.005870361328125,0.2114335501983761,-0.0622642580701038,1.3037526940703392,-0.8904122114181519,0.5427475571632385,0.7436634302139282
5.015896728515625,0.1374649354070425,0.5441442865908146,-1.4090584041506051,-1.2590845823287964,0.8924338221549988,0.9797677397727966
5.025922607421875,-0.4079213871341198,1.0401077489890158,-4.782149520614743,-1.5592669248580933,0.9248900413513184,1.1804184913635254
5.03594873046875,-0.967453358601406,1.5131532771363854,-8.911091153329611,-1.6106374263763428,0.7463889122009277,1.357308268547058
5.045974609375,-0.3071064856670796,2.073917713008076,-13.120645953416824,-1.471833109855652,0.5790611505508423,1.5263351202011108
5.056000732421875,0.7107768642932176,2.320739095190912,-15.92010482299924,-1.3594703674316406,0.4347208142280578,1.536082148551941
5.066026611328125,0.8973081745557486,1.8114390352271497,-17.140540935957432,-1.310254693031311,0.1763377040624618,1.2483550310134888
5.076052490234375,0.63054436680153,0.8388748364180326,-17.588567612051964,-1.2146157026290894,-0.2640588581562042,0.821789026260376
5.08607861328125,0.6990403223354369,0.8809032754607498,-17.7582473023653,-1.005828857421875,-0.6871353387832642,0.5048694014549255
5.096104736328125,0.4164646129433065,2.4021159404121337,-17.9957818007648,-0.6668137311935425,-0.7779843211174011,0.1996307969093322
5.106130859375,-0.9012674335755408,2.9201538719743487,-18.15628332836628,-0.2620063126087188,-0.7023881077766418,-0.2440728843212127
5.116156982421875,-1.7617454683840277,1.6133502659007906,-16.921754392647742,0.0762906223535537,-0.6146690845489502,-0.6009717583656311
5.12618310546875,-0.8240763496063649,0.0645825084172189,-14.67614170398116,0.2557796835899353,-0.3708899319171905,-0.6154974102973938
5.136208984375,-0.0698636636905372,-0.8298404660910368,-12.342090853405,0.2834856510162353,0.0500900149345397,-0.3740818798542022
5.146235107421875,-0.0215999835200607,-1.6208426674827932,-10.586065516233443,0.2200891226530075,0.5423231720924377,-0.0803474709391594
5.156260986328125,0.058611836509779,-2.266198965099454,-9.322069078490138,0.1064077764749527,0.9295586347579956,0.144305795431137
5.166286865234375,-0.0878963101178407,-2.214538043706119,-8.2948946069628,-0.0349847674369812,1.111759066581726,0.2722621560096741
5.17631298828125,-0.3050644584454596,-1.765644960040599,-7.248751231071353,-0.0874299779534339,1.0118887424468994,0.3212081491947174
5.1863388671875,-0.3486655901649966,-1.3861654582105576,-6.425345181941986,0.05521772056818,0.6184206008911133,0.2760832905769348
5.196364990234375,-0.4070073044965043,-1.174358106263727,-5.452883712854981,0.4154908359050751,0.0533188357949256,0.1557012796401977
5.206390869140625,-0.6509083787858486,-1.132481204520911,-4.087528841352462,0.9107751250267028,-0.5290862321853638,0.0201096292585134
5.2164169921875,-0.6602696429796516,-1.0514676396541296,-2.114281141448021,1.3765028715133667,-0.9988985061645508,-0.0941399857401847
5.22644287109375,-0.5546155578531324,-1.0604442884445189,0.515297546812892,1.6607847213745115,-1.2321045398712158,-0.1725828647613525
5.23646875,-0.4218920448195189,-1.0680074171751737,3.6416438534617424,1.6700817346572876,-1.17364764213562,-0.1754391193389892
5.246494873046875,-0.3230354378134012,-0.8838171901460736,6.802894300231337,1.4076762199401855,-0.8702922463417053,-0.1236859112977981
5.256520751953125,-0.5873398697167634,-0.6830958072938025,9.271454159018395,0.9825780987739564,-0.4463067352771759,-0.079469047486782
5.266546875,-0.925694238019362,-0.6440125548575073,10.597363155317304,0.5791195631027222,-0.0352480746805667,-0.0597691088914871
5.27657275390625,-1.1210909187175333,-0.4364093766022473,10.710278755879402,0.3300111591815948,0.2460701614618301,-0.0625436455011367
5.286598876953125,-1.0557275621209292,-0.0665265551570803,9.921910702383515,0.260697066783905,0.3333006799221039,-0.0849648043513298
5.296624755859375,-0.8057179783560335,0.059302887513861,9.012154403534533,0.3296476304531097,0.2520893514156341,-0.1380101591348648
5.306650634765625,-0.8306705602396279,-0.0282077842872589,8.30623316257894,0.4856345653533935,0.1105162277817726,-0.1930204182863235
5.3166767578125,-0.410074692710489,-0.0871392812054604,7.673592261889577,0.6700254678726196,-0.0754765570163726,-0.2016090452671051
5.32670263671875,0.2145145650789141,-0.0248631500344723,7.311788409742713,0.7904541492462158,-0.2114423811435699,-0.1797226518392563
5.33672900390625,0.6298973741348832,0.1374015147820115,7.385663793292641,0.7735398411750793,-0.2193392813205719,-0.1322366148233413
5.3467548828125,1.0805671120841056,0.4618558794826269,7.596088166448474,0.6309393048286438,-0.1662686020135879,-0.0606239475309848
5.356781005859375,1.4804728044144808,0.7789804127518087,7.714292521068454,0.4353268444538116,-0.1087262034416198,-0.0137611562386155
5.366806884765625,1.5699692432053387,1.0140810350678862,7.4507906377196305,0.2730900049209595,-0.0332389026880264,0.0127476826310157
5.3768330078125,1.881934859341383,1.1179216410316526,6.911482100722194,0.178551971912384,0.0547003410756588,0.0457771010696888
5.38685888671875,2.388332768122852,1.2283292042955756,6.554914980185032,0.1063139885663986,0.1261843740940094,0.073423370718956
5.396884765625,2.489496848353743,1.288540950282663,6.429218808504939,0.0218764264136552,0.1532568782567978,0.0547368489205837
5.406910888671875,2.132540728498995,1.273385028335452,6.3973904225677245,-0.0698907822370529,0.1051524728536605,-0.0319772735238075
5.416936767578125,1.740026096267998,1.1325351266652346,6.28109803904891,-0.1245349571108818,0.0120879579335451,-0.1182461008429527
5.426962890625,1.8253531404197212,0.9277793737303464,6.0053001532286405,-0.1205609887838363,-0.0954142659902572,-0.1545769423246383
5.43698876953125,1.8727508514106272,0.7357637137725949,5.865123620775342,-0.1000281274318695,-0.1367115080356598,-0.1384010314941406
5.44701513671875,1.8222607273623344,0.5273191893223673,6.085912151557206,-0.1343613415956497,-0.120010033249855,-0.0744726508855819
5.457041015625,1.815272914301604,0.4123323719767853,6.718062053859233,-0.2419593036174774,-0.0977141261100769,0.0040538124740123
5.46706689453125,1.6253040308058262,0.3495201977003365,7.203243863871693,-0.3758001923561096,-0.0626389607787132,0.0463882200419902
5.477093017578125,1.3289914724841714,0.3669533803971484,7.359301856067776,-0.4905104339122772,-0.0241189077496528,0.0601051338016986
5.487118896484375,1.073978308278322,0.4346532536499202,7.253267831712961,-0.5618740916252136,0.0076978765428066,0.065529465675354
5.49714501953125,0.7737307485952973,0.4474207460906356,7.00078418598473,-0.596386730670929,0.0154437161982059,0.0472821108996868
5.5071708984375,0.3755666392352432,0.2972495469108224,6.69912062202394,-0.6151526570320129,-0.0075729195959866,0.0189242381602525
5.517197021484375,0.2375903202399611,0.0029148645333945,6.290230609053373,-0.6083753705024719,-0.0451777949929237,0.0234659351408481
5.527222900390625,0.3888044526014477,-0.3943854676041752,5.573842919141054,-0.5922824144363403,-0.0422624312341213,0.0724124386906623
5.537248779296875,0.4109290445175022,-0.6337217547286301,4.914975105783343,-0.6504881381988525,0.0950318798422813,0.1780413836240768
5.54727490234375,0.3582576309073716,-0.2958426027223467,4.2368630782514805,-0.810040295124054,0.3822271823883056,0.3192808032035827
5.5572998046875,0.0810392107646912,0.2187477456692606,3.040195963415503,-1.0149049758911133,0.7530198097229004,0.4604210555553436
5.567325927734375,-0.6083111268792301,0.8517051649618893,1.4108131388634442,-1.2087048292160034,1.1855779886245728,0.60875403881073
5.57735205078125,-0.959558075306937,1.824449469578266,-0.3998714247345924,-1.3568743467330933,1.6314566135406494,0.7351953387260437
5.5873779296875,-1.223854470034316,2.754569342020154,-2.50371475879848,-1.4620084762573242,2.0245275497436523,0.7380568981170654
5.597404052734375,-1.6412028800748288,3.025176088938117,-4.741705282023549,-1.587521195411682,2.220192670822144,0.6359178423881531
5.607429931640625,-0.8969949438881129,2.68560803399682,-6.6364861789345735,-1.7172064781188965,2.047739028930664,0.5314907431602478
5.6174560546875,0.6849928000215441,1.8152894270449875,-8.765655677434802,-1.7174460887908936,1.5546128749847412,0.3696615099906921
5.62748193359375,1.144900248850137,1.1662551715679466,-11.199313149666786,-1.531144142150879,0.8535488843917847,0.1117777824401855
5.637508056640625,0.6236405787624418,1.727707151312381,-12.968389691591264,-1.155786156654358,0.2022422701120376,-0.1781608462333679
5.647533935546875,-0.38109541259408,3.1379701089471577,-14.467770171701908,-0.6386761665344238,-0.2340011000633239,-0.5218790173530579
5.657559814453125,-1.7200789945214985,3.6083623461067673,-15.303061304414271,-0.0191126614809036,-0.4754154086112976,-0.9145715236663818
5.6675859375,-2.901864182046056,2.95966141423732,-15.660636725211145,0.5497353672981262,-0.3816838562488556,-1.2682843208312988
5.67761181640625,-3.418024483168125,2.233771590355784,-15.76726403928399,0.8160850405693054,0.0088824648410081,-1.4072240591049194
5.687637939453125,-2.179907167568803,0.963148866340518,-14.853960277086497,0.6611441969871521,0.3799750506877899,-1.203434944152832
5.697663818359375,0.5606947316363453,-1.1715338426232338,-13.38460668644905,0.2352239787578582,0.5173988938331604,-0.6642024517059326
5.70768994140625,3.062649787285924,-2.830148606878519,-12.52307052088976,-0.0293307192623615,0.4586551785469055,0.0291523355990648
5.7177158203125,3.960947703531384,-2.483010701204836,-12.577204262137412,0.0080042406916618,0.3423759043216705,0.5888730883598328
5.727741943359375,3.498353572902084,-1.266116498637199,-11.233860731434822,0.1289245337247848,0.1197595968842506,0.7461920976638794
5.737767822265625,1.7979888942845164,-0.0479948001012206,-8.257448381143808,0.2410785406827926,-0.092096522450447,0.4733728170394897
5.747793701171875,0.4121198617372661,1.2851685512401163,-5.637415519863366,0.4065977334976196,-0.2168075740337371,-0.0290091037750244
5.75781982421875,0.2626909322921186,1.7641563289180398,-3.8920179596900937,0.6814646124839783,-0.2830780148506164,-0.4980922043323517
5.767845703125,0.997480978726968,1.282905720874667,-2.4696552528083324,0.9528971910476683,-0.3268854320049286,-0.826334536075592
5.777871826171875,1.7232292752459644,0.491120406281203,-0.758309599840641,1.076534628868103,-0.3659053742885589,-1.0205574035644531
5.787897705078125,2.208318000147492,-0.332262846494466,1.2792267401009798,1.0140944719314575,-0.3797450065612793,-1.10169780254364
5.797924072265625,2.459326458756625,-1.0100883121699094,3.0436347056925297,0.8245567083358765,-0.3426976203918457,-1.0908770561218262
5.807949951171875,2.464911857673526,-1.412354230825603,4.340850691470504,0.5958892107009888,-0.2487263679504394,-0.9949868321418762
5.817975830078125,2.490247958981991,-1.7447884883642195,5.052647546461224,0.4924386441707611,-0.1155004426836967,-0.8294536471366882
5.828001953125,2.260623356924206,-1.935010615968704,5.2725242230951785,0.5709280967712402,0.0500765368342399,-0.6147123575210571
5.83802783203125,1.7572930190198122,-1.6077578527212142,5.346173396673798,0.7008185386657715,0.2466186583042144,-0.4258919656276703
5.848053955078125,1.1884893613383174,-1.5590454058699308,5.800038277402519,0.7580671906471252,0.3314850926399231,-0.3016701340675354
5.858079833984375,0.5886071862388402,-1.634793159162998,6.670167499262094,0.7304873466491699,0.3058457374572754,-0.2424312680959701
5.86810595703125,0.1374842428957112,-1.23774365998134,7.400608848968147,0.6310092210769653,0.2477496862411499,-0.2475767582654953
5.8781318359375,-0.3333731458239257,-0.8313084928169846,7.9366352955549955,0.5133604407310486,0.1483928263187408,-0.2933743596076965
5.88815771484375,-0.6285667100530118,-0.8029207488529384,8.389652035021781,0.4138524830341339,-0.0038334596902132,-0.3367553949356079
5.898183837890625,-0.6536143498089164,-0.7578782957512885,8.66575211865902,0.3548242747783661,-0.1499468684196472,-0.3509080111980438
5.9082099609375,-0.6771688283976167,-0.5709537483874708,8.65362913466692,0.34835946559906,-0.254635751247406,-0.3339154422283172
5.918236083984375,-0.7960273360773921,-0.5161075480215251,8.56285639232993,0.3725816011428833,-0.2812950909137726,-0.3091271817684173
5.928261962890625,-0.9099075438879428,-0.4705316456303,8.530361066916585,0.3707331120967865,-0.2609671652317047,-0.2563470602035522
5.9382880859375,-0.8624341373123228,-0.3945965530715882,8.600067640349268,0.3286123275756836,-0.2067399471998214,-0.1659631878137588
5.94831396484375,-0.7718367515422403,-0.3316766441043466,8.622812556120753,0.2614063918590545,-0.1246365532279014,-0.0573544204235076
5.958340087890625,-0.6503068326961249,-0.2518244511671364,8.583546713659167,0.176343560218811,-0.0352617464959621,0.054445631802082
5.968365966796875,-0.598888524419628,-0.1173529984876513,8.469844346633552,0.0928297638893127,0.0472584292292594,0.1458306759595871
5.978391845703125,-0.6431496544178575,0.0532254672963172,8.130086322078109,0.0207521505653858,0.0877797454595565,0.2087382674217224
5.98841796875,-0.5573548831565305,0.1856814154349267,7.7289792180687185,-0.0509555898606777,0.0953678861260414,0.2505805194377899
5.99844384765625,-0.4867653528768569,0.2398273585770279,7.259547934895753,-0.1116360053420066,0.0694189071655273,0.2749171257019043
6.008469970703125,-0.5084789163066074,0.3042423284076154,6.635638037672639,-0.1417188048362732,0.0560804642736911,0.2808277308940887
6.018495849609375,-0.6182623928554356,0.3375640216425061,5.889699843627214,-0.1682177931070327,0.0535373575985431,0.2817035019397735
6.02852197265625,-0.5870726701479405,0.2403092238098382,5.104069690662622,-0.2211230844259262,0.0558726824820041,0.296946108341217
6.0385478515625,-0.4757830633524805,0.1337105513095855,4.442016233006119,-0.3399658799171448,0.0343084819614887,0.32623091340065
6.04857373046875,-0.4542240328973159,0.0965970645762979,3.8578573314130304,-0.4758763015270233,0.0501913093030452,0.3686462938785553
6.058599853515625,-0.5465715868029744,-0.1141061255209147,2.7709879773795603,-0.5480299592018127,0.1158921718597412,0.4400897622108459
6.068625732421875,-0.5941125787220894,-0.12170549460873,1.2605009968429803,-0.548834502696991,0.2003447413444519,0.5491390228271484
6.07865185546875,-0.6770723092205823,0.220958334390819,-0.1433130769133567,-0.5797615051269531,0.2760683596134186,0.6733836531639099
6.088677734375,-1.289175156532973,1.2067029903557152,-1.266643152859807,-0.6723647117614746,0.3308687806129455,0.7884085178375244
6.098702880859375,-1.94582207897082,2.7752646317854524,-2.669243174651265,-0.6387950778007507,0.5931105613708496,0.7504593133926392
6.10872900390625,-3.2115321887642145,3.390346202647686,-5.49803685978949,-0.4616275131702423,1.1478967666625977,0.3099775314331054
6.118755126953125,-5.086383227324485,2.466926704627275,-8.041738176539539,-0.3192104995250702,1.4428858757019043,-0.4409230053424835
6.12878125,-4.442566268104315,0.5494742494419217,-9.405586735132337,-0.229149580001831,0.9730722904205322,-0.9400883316993712
6.13880712890625,-0.4823418373461812,-1.3247623104818165,-10.841515610551834,-0.0638376176357269,-0.0453120432794094,-0.8001477122306824
6.148833251953125,2.8296239984825253,-1.964931853110343,-12.18143267393708,0.1624357402324676,-0.9561589360237122,-0.2363969981670379
6.158859130859375,3.5049268138125536,-1.7005119781337676,-12.49625031850338,0.3070647418498993,-1.419461727142334,0.3084557652473449
6.168885009765625,2.980025864613056,-1.354040865805745,-10.820420215553044,0.3382927179336548,-1.5206358432769775,0.6716853380203247
6.1789111328125,2.164873264566064,-0.4175353839799761,-8.69891029189527,0.3029990494251251,-1.19561767578125,0.8518202900886536
6.18893701171875,1.1919437395758927,1.193145370450616,-7.052960947945714,0.1349660903215408,-0.7001634836196899,0.6823574900627136
6.198963134765625,-0.6740479929633438,2.39573982950896,-5.36633063403964,-0.0295766647905111,-0.1994025707244873,0.2408985644578933
6.208989013671875,-1.4233084632992743,2.983194265516102,-5.000614576885104,-0.1014007851481437,0.1595529168844223,-0.1922382116317749
6.21901513671875,-0.5210744497139006,3.0326410179913044,-5.431881841358542,-0.0395601913332939,0.1869153827428817,-0.4718474745750427
6.229041259765625,0.0946069502050057,2.5111194820970297,-5.962731762090325,0.1006792038679122,-0.0249332226812839,-0.6834430694580078
6.2390673828125,0.3213488364333287,1.601914241259545,-6.110138830319047,0.2834088504314422,-0.3206115961074829,-0.8175403475761414
6.24909228515625,0.980598086856678,0.6842919582758098,-5.84724134260416,0.4403723776340484,-0.5962817668914795,-0.8133676648139954
6.2591181640625,1.6150702215611934,0.0072700640682131,-4.858659344321489,0.4922579228878021,-0.7573423981666565,-0.704198956489563
6.269144287109375,1.6595055756151675,-0.3318906521812081,-3.5380548841714856,0.4183117747306824,-0.765296995639801,-0.5626910924911499
6.279170166015625,1.3041042839869856,-0.4711091532573103,-2.1842659473001955,0.3055773675441742,-0.6758734583854675,-0.3994643986225128
6.289196044921875,1.0827431409489363,-0.3912696006059646,-1.3801035278230904,0.2599845826625824,-0.5018774271011353,-0.2082521021366119
6.29922216796875,0.9678316173292696,-0.0874095495142042,-1.0078525159418583,0.2778488099575043,-0.3759056031703949,-0.048426479101181
