seconds_elapsed,ax,ay,az,gx,gy,gz
0.0684140625,-0.7353118783518672,0.6487679326910525,0.5829010104864836,0.2081369757652282,-0.3261309862136841,-0.0016138852806761
0.078440185546875,-0.9659913962900638,0.5923123974323272,1.016805053204298,0.0312149338424205,-0.3979431092739105,0.0391402021050453
0.088466064453125,-1.201395896923542,0.5601360017750412,1.321519236907363,-0.1332657188177108,-0.4360593259334564,0.0485827028751373
0.098491943359375,-1.4153526819892226,0.4949983436930924,1.5271271496921777,-0.276922732591629,-0.4460134208202362,0.0371875688433647
0.10851806640625,-1.5716905140399933,0.4900763040557503,1.6891121938496827,-0.3783580064773559,-0.4298117756843567,0.0176885314285755
0.1185439453125,-1.5960642000570893,0.5073766176205128,1.7693378232091663,-0.4485203325748443,-0.3933757245540619,0.0107102515175938
0.128570068359375,-1.5074975894622504,0.559515239528194,1.8075854285389183,-0.4862582087516784,-0.3363734185695648,0.0160223990678787
0.138595947265625,-1.4255667636200784,0.6371040906433015,1.77160635266304,-0.4856683313846588,-0.2839461863040924,0.024794852361083
0.1486220703125,-1.3998046919845044,0.6779811676938087,1.7478876234233378,-0.4595786929130554,-0.1998672783374786,0.0172281302511692
0.15864794921875,-1.3860516225725412,0.6157817550208419,1.7039485284537077,-0.427325427532196,-0.107059046626091,-0.0071512456052005
0.168673828125,-1.3309957980439069,0.4675602286040782,1.7278893760114906,-0.4159454703330993,-0.0050658416002988,-0.0411044172942638
0.1787001953125,-1.1561441849853842,0.3284365662045777,1.773331276759505,-0.4289936423301697,0.1088362261652946,-0.0743641108274459
0.18872607421875,-0.9676668552216142,0.2511442138180136,1.795424450623989,-0.4433555901050567,0.2165455520153045,-0.1076850295066833
0.198752197265625,-0.822465845669806,0.1956497421437874,1.7437123835653066,-0.4390641748905182,0.2906584143638611,-0.1464766263961792
0.208778076171875,-0.6663343498460949,0.2010706346813589,1.7037135506540535,-0.4181435108184814,0.3020009994506836,-0.1792429834604263
0.21880419921875,-0.5013628737563267,0.2810910968575627,1.6332909379065037,-0.3809322416782379,0.2674669921398163,-0.2067654132843017
0.228830078125,-0.3292330138118937,0.4089432044625282,1.6085820285856722,-0.3142500519752502,0.2052533775568008,-0.2248254120349884
0.23885595703125,-0.1245619069531559,0.5227542560270055,1.5901982306331397,-0.2145913988351822,0.1169975474476814,-0.2351188063621521
0.248882080078125,0.061694239629805,0.5732202320147305,1.5979378849744796,-0.1009871289134025,0.0380670577287673,-0.2300679087638855
0.258907958984375,0.1683434732735157,0.5961855125386267,1.727510021305084,0.0189067795872688,-0.0242298692464828,-0.212411418557167
0.268933837890625,0.1472486627966165,0.5631245891317724,2.014361216059327,0.12703637778759,-0.0826360136270523,-0.200275108218193
0.2789599609375,0.0576727290287613,0.5113810309562832,2.3177649016857145,0.2118077278137207,-0.0963827222585678,-0.1995776295661926
0.288986083984375,-0.088313001159951,0.4426822828592732,2.6062030733704566,0.2702673077583313,-0.0612675547599792,-0.207658365368843
0.299011962890625,-0.2175430825872346,0.31941611480508,2.8713252513974905,0.2921491861343384,0.0081208357587456,-0.2156792730093002
0.309037841796875,-0.2958692715335637,0.269658542815037,2.980305850598216,0.2792107462882995,0.1345845013856887,-0.2123676240444183
0.31906396484375,-0.3202643291322514,0.340672034127824,2.901545033094287,0.2431371808052063,0.2412664741277694,-0.2055693715810775
0.32908984375,-0.1689210539657622,0.5086307824000716,2.6820471266448496,0.1781594604253769,0.2619044780731201,-0.1917471140623092
0.339115966796875,0.0408775885071605,0.7139202038202435,2.2813298987358808,0.0722292959690094,0.2424514293670654,-0.1751329898834228
0.349141845703125,0.1060257679831236,0.967089347594604,1.6023071860998868,-0.0593249984085559,0.2246045172214508,-0.1892253756523132
0.35916796875,0.0976174936652183,1.123721267221123,0.7010393141329289,-0.209401324391365,0.1639065444469452,-0.2425844669342041
0.36919384765625,0.1281092972364276,1.262169660707563,-0.3338338952034712,-0.3756357729434967,0.0320770852267742,-0.3163128495216369
0.3792197265625,0.3532202943272888,1.4710019423663616,-1.4447300215125085,-0.5267052054405212,-0.1769395172595977,-0.3797325789928436
0.38924609375,0.8957239010389894,1.6190417555406689,-2.5646383063167333,-0.6504981517791748,-0.3817450404167175,-0.4098076224327087
0.39927197265625,1.4289718958884476,1.6708908929824828,-3.685926647302508,-0.7309730052947998,-0.4448068141937256,-0.3941205143928528
0.409298095703125,1.414105458407104,1.691838696204126,-4.823697336533665,-0.7557170987129211,-0.299599826335907,-0.3603687286376953
0.419323974609375,1.1089156200163066,1.555186684615165,-5.990135317322611,-0.7404078841209412,-0.0488285720348358,-0.3238708972930908
0.42935009765625,0.8567218971453606,1.5256231748700142,-7.045920966306328,-0.6707044839859009,0.2650002837181091,-0.2742450833320617
0.4393759765625,0.4405929458972066,1.5353803065136074,-8.049377877637744,-0.5739148259162903,0.6939199566841125,-0.2294744402170181
0.449402099609375,-0.0164700732856988,1.263028323363513,-9.17536226748526,-0.49539715051651,1.2224605083465576,-0.2233650386333465
0.459427978515625,0.0366837170138955,0.7790789046902209,-10.169233604347705,-0.4722684025764465,1.6136231422424316,-0.2155704945325851
0.469453857421875,0.588824774512276,0.6514397091835736,-10.75709662115574,-0.5325697660446167,1.7587018013000488,-0.1894771158695221
0.47947998046875,1.466934400666505,0.8243117657974361,-11.299705953264237,-0.6653783917427063,1.6309773921966553,-0.1166183501482009
0.489505859375,2.315701977806538,1.3204039691418408,-11.580348941028117,-0.8139001131057739,1.133560061454773,-0.0204901043325662
0.4995322265625,2.574966223585605,1.8658968938626348,-11.215718341022727,-0.9386987686157228,0.398501306772232,0.0724179968237876
0.50955810546875,1.8200955121524631,1.8039301209017635,-10.646222171032427,-0.9949894547462464,-0.1930749416351318,0.1011966466903686
0.519584228515625,0.2427380583919584,0.8251994353521614,-10.199323622184991,-0.9483007788658142,-0.4742778241634369,0.0770004987716674
0.5296103515625,-1.117017239537835,-0.3285116407347843,-9.652051558962464,-0.8115386962890625,-0.4429706931114197,0.0588816069066524
0.53963623046875,-1.6877182552732526,-0.6906215996887535,-8.820408427363633,-0.6430215835571289,-0.150618702173233,0.1062637642025947
0.54966259765625,-1.7810118943899869,-0.8260559791162609,-7.808622663626075,-0.4698792695999145,0.2343166470527649,0.2134136110544204
0.559687255859375,-1.970710582642257,-1.198412643329054,-6.641159431442618,-0.3064365684986114,0.4861938953399658,0.2629132866859436
0.569713623046875,-1.9776418432101608,-1.5158753955766555,-5.417255350112915,-0.1553204804658889,0.5015197992324829,0.2424933910369873
0.579739501953125,-1.5981541580736636,-1.6588567563176153,-4.02781700771153,-0.0103715490549802,0.2749212682247162,0.181751474738121
0.589765625,-1.1826536409221589,-1.6470374314472078,-2.5369074188262224,0.1464226841926574,-0.0599063225090503,0.1026851087808609
0.59979150390625,-0.6357721844524145,-1.573787924710661,-1.1197282520622014,0.3287490606307983,-0.3554530441761017,0.0385793596506118
0.6098173828125,0.2085899973355233,-1.3249113635636864,0.2687807005345821,0.5239048004150391,-0.5059830546379089,0.0320737697184085
0.619843505859375,0.9219548322953284,-1.1239584369778632,1.779213905057311,0.742988646030426,-0.5080510377883911,0.1087807938456535
0.629869384765625,1.241406858664006,-1.2686075848005711,3.21806831253469,0.9662744402885436,-0.3685561120510101,0.2409368902444839
0.6398955078125,1.3220005906835195,-1.3978075268179178,4.52620082912445,1.1623201370239258,-0.1137911826372146,0.4085509479045868
0.64992138671875,1.2261004223302006,-1.3911467537544666,5.784835447573662,1.2421631813049316,0.1336184740066528,0.5938298106193542
0.659947509765625,0.8671738791853189,-1.3326146314173937,6.902259514346718,1.1522504091262815,0.2820662558078766,0.7489832043647766
0.669973388671875,0.3970625047937035,-1.2767806621231137,7.761527734974027,0.9444031715393066,0.2787849605083465,0.8367602825164795
0.679999267578125,-0.0795094439141452,-1.246519525502622,8.338300617969036,0.6800069808959961,0.0925008431077003,0.8601081967353821
0.690025390625,-0.5699693404600024,-1.1902153083480893,8.711376390236616,0.430070161819458,-0.1785926073789596,0.8234409689903259
0.70005126953125,-0.9922783685825765,-1.0384509216926991,8.821800758504867,0.2098563015460968,-0.4020187556743622,0.7510210871696472
0.710077392578125,-1.2733609168075024,-0.7691743273999542,8.81623727915883,0.0582074001431465,-0.547645092010498,0.6640321612358093
0.720103271484375,-1.3334117731444537,-0.4671492366503924,8.711455300691723,-0.0014439444057643,-0.6055542230606079,0.6001210808753967
0.73012939453125,-1.1976441431745886,-0.2741668140197172,8.502277128204703,0.0360777974128723,-0.5268509984016418,0.5641520023345947
0.7401552734375,-1.1509193630091843,-0.2069282381357625,8.347882100784778,0.158901184797287,-0.3657939732074737,0.5503304600715637
0.75018115234375,-1.2454501427054403,-0.1738601360694505,8.384647943124175,0.3111450970172882,-0.203478142619133,0.5423895120620728
0.760207275390625,-1.3323738083988428,-0.0885503718460909,8.541919987285137,0.4452941119670868,-0.0933953151106834,0.5210949182510376
0.770233154296875,-1.445353414107859,0.0576655321029946,8.703658947727083,0.533448338508606,-0.0439562574028968,0.4690642952919006
0.78025927734375,-1.5120023535355924,0.1638905855178833,8.890638147887588,0.5785607099533081,-0.0087660457938909,0.398576557636261
0.790285400390625,-1.5591723932504653,0.1186268543483689,8.977069646149873,0.5889209508895874,0.038312342017889,0.3237089514732361
0.8003115234375,-1.5068305038556455,-0.0390835446972399,8.924732140669226,0.5655477046966553,0.1018303334712982,0.262600302696228
0.81033740234375,-1.3126103926561772,-0.0824692435678094,8.85557034163773,0.5052576065063477,0.0708906054496765,0.2234463095664978
0.82036328125,-1.0126168077342212,0.2049440420486032,8.878353251332044,0.4222399592399597,-0.103364810347557,0.2095648497343063
0.830389404296875,-0.7652513818025588,0.7215693303339182,8.993426322188974,0.3321064710617065,-0.3432190418243408,0.2039426118135452
0.840415283203125,-0.7802585429288447,1.0979594878464936,8.957917786434292,0.2585709989070892,-0.5360739231109619,0.1778066158294677
0.85044140625,-1.0502161052230743,1.202908712639287,8.790220209848881,0.2123008221387863,-0.6437075138092041,0.1131656244397163
0.86046728515625,-1.327393681898713,1.1955869914490729,8.594370890012383,0.1898921877145767,-0.666501522064209,0.0288717783987522
0.870493408203125,-1.4533511348634958,1.3152873567804693,8.46041016333401,0.1882681995630264,-0.6116133332252502,-0.0566529035568237
0.880519287109375,-1.4741599680058657,1.527035379755497,8.368446165385842,0.1957450211048126,-0.4660558700561523,-0.1527059376239776
0.890545166015625,-1.4557622876584528,1.6392495540499683,8.114955972963571,0.181998997926712,-0.276816576719284,-0.2660499513149261
0.900571533203125,-1.3441346810802817,1.7510763364620503,7.469286079353093,0.1563652753829956,-0.0945716723799705,-0.4080723226070404
0.910597412109375,-0.98416841962412,1.826964959530532,6.444555493846536,0.1098745688796043,0.0866969525814056,-0.569956362247467
0.92062353515625,-0.3872851340796798,1.7955787644028662,5.211155269896984,-0.0038930121809244,0.2018802762031555,-0.6890151500701904
0.9306494140625,0.5149360200241208,1.777031884843111,4.114596881020069,-0.1923340409994125,0.130379244685173,-0.6980016231536865
0.940675537109375,1.501633811995387,1.994735601352155,3.1303444363743065,-0.4262797236442566,-0.0817242190241813,-0.6016125082969666
0.950700439453125,2.308295354811847,2.180822528848052,1.860737757533789,-0.7146891951560974,-0.292618453502655,-0.403727114200592
0.960726318359375,2.7085473032966254,2.225468603043258,0.1556143400818109,-1.0434904098510742,-0.39300736784935,-0.1509915143251419
0.97075244140625,1.8985607077106832,2.0549831493049857,-2.3575813637673853,-1.3259046077728271,-0.1723812967538833,-0.0068123908713459
0.9807783203125,0.4246645052075385,1.0002816422961651,-6.095481943935155,-1.4776755571365356,0.4906403720378876,-0.0531479306519031
0.990804443359375,-0.0809284438665956,0.1982938086454756,-9.992390013754369,-1.5069799423217771,1.325787901878357,-0.1865320056676864
1.000830322265625,1.1876354479227214,1.3768347352854906,-13.168312544476985,-1.4551146030426023,1.8217781782150269,-0.2305378168821334
1.010856201171875,3.324168095602095,3.189296099297702,-15.387476786679027,-1.3200510740280151,1.6969914436340332,-0.1003797203302383
1.02088232421875,4.776171615248918,3.4697327508345244,-17.218748795753715,-1.087990641593933,1.1055396795272827,0.2004520148038864
1.030908447265625,4.8546091921478505,2.732002705425024,-18.81474022283554,-0.8477722406387329,0.5986930727958679,0.588031530380249
1.0409345703125,3.980692268443107,2.1315335972830654,-19.912841749501226,-0.7330831289291382,0.4128776490688324,0.9262665510177612
1.05096044921875,3.06190189152807,2.062690654942393,-19.759542700624465,-0.7696731090545654,0.2892210185527801,1.1559414863586426
1.060986572265625,2.192380718564242,1.9248842126213013,-19.147595043873785,-0.9546570777893066,0.112138383090496,1.320362567901611
1.071012451171875,1.305840752390772,1.6849306703813374,-18.56405047478676,-1.2120405435562134,-0.1939184516668319,1.4134314060211182
1.08103857421875,0.484111696562916,1.836210342259705,-17.95661532702446,-1.384489893913269,-0.58642578125,1.3814330101013184
1.091064453125,-0.2203212055310607,1.881862817018479,-17.17265924475193,-1.3548424243927002,-0.9433327317237854,1.2431951761245728
1.10109033203125,-0.8258975736841558,1.6614562712915242,-15.699570559239389,-1.1115642786026,-1.1317126750946045,1.0503588914871216
1.1111162109375,-1.4411258595407008,1.216034736194089,-13.72252463609576,-0.6891409158706665,-1.102315902709961,0.8422103524208069
1.12114208984375,-1.8985398110531269,0.3532376107882708,-11.292221734988688,-0.1364817470312118,-0.915007710456848,0.6649966835975647
1.131168212890625,-1.947247289468348,-0.3165487061426043,-8.348403494310379,0.4483712017536163,-0.6131774187088013,0.5806737542152405
1.1411943359375,-1.849097296361625,-0.5579392954483628,-5.088309811472892,0.9783493280410768,-0.2636918425559997,0.5940590500831604
1.151220458984375,-1.7460859808288514,-0.6457856289446353,-1.6690040563225743,1.354623317718506,-0.0440211333334445,0.6484622359275818
1.161246337890625,-1.7191640716336667,-0.4602699254654347,1.745414511308074,1.5432220697402954,0.0684351101517677,0.6726130843162537
1.171272216796875,-1.5372754726104438,0.0245584679994732,4.830037645471096,1.5354243516921997,0.1427024006843567,0.654355525970459
1.18129833984375,-1.5203829361289738,0.6065074749907479,7.42322692348957,1.386423945426941,0.147086501121521,0.5776181221008301
1.19132421875,-1.83504422108978,0.7798482816275208,9.315062414598463,1.1711920499801636,0.088039644062519,0.4494643211364746
1.201350341796875,-2.4535771014496683,0.5498141489207744,10.500491511583329,0.9362450838088988,0.0285800453275442,0.3085234463214874
1.211376220703125,-2.8143098172336813,0.19686642445717,11.24886073216796,0.7008556127548218,0.045762725174427,0.1936973929405212
1.22140234375,-2.470820789456367,-0.1395986868995707,11.658035407298804,0.4381076097488403,0.1452818512916565,0.1740541756153106
1.23142822265625,-2.0630945595681665,-0.1443005901133641,11.767546752375363,0.1686572134494781,0.2037608325481414,0.2242709100246429
1.241454345703125,-1.9721572743192315,-0.2058047505311667,11.591529675734042,-0.0644538030028343,0.1449486464262008,0.2637192606925964
1.25148046875,-2.179531173863262,-0.6644475131861866,10.94736083433628,-0.264317125082016,0.0778334215283393,0.2465512007474899
1.26150634765625,-2.495084585358202,-1.249218263067305,10.018174443352224,-0.4453609585762024,0.0636619478464126,0.161834716796875
1.271532470703125,-2.62032366092056,-1.633642820084095,9.103570119950176,-0.6032001972198486,0.0415742322802543,0.053747072815895
1.281558349609375,-2.376255669099092,-1.7000294553138315,8.169736195421219,-0.7172386050224304,0.0186031386256217,-0.0300905685871839
1.291583251953125,-1.910152069044113,-1.6462880743846295,7.218866964939236,-0.7514366507530212,-0.0091516058892011,-0.0761457085609436
1.301609375,-1.413943253582716,-1.6198608168385922,6.333031055381894,-0.7061259150505066,-0.0343123525381088,-0.0701773017644882
1.31163525390625,-0.9273547916427254,-1.527165728136897,5.645918559792637,-0.5975675582885742,-0.0432850122451782,-0.0064951716922223
1.321661376953125,-0.4318965022876858,-1.25197384538576,5.207414329802989,-0.4369440376758575,-0.1044700741767883,0.0887820720672607
1.331687255859375,-0.1294132925070822,-0.8527589117985218,4.964368959027529,-0.2263584733009338,-0.2460190653800964,0.1755421310663223
1.34171337890625,-0.1572396031960845,-0.451558941873908,4.874908468332887,0.0283190980553627,-0.4092189073562622,0.2343790829181671
1.3517392578125,-0.3244816910989582,-0.1831954803707078,4.945966456374526,0.2880181670188904,-0.4778040051460266,0.2493979781866073
1.36176513671875,-0.5342600945014506,-0.0768848858305253,5.207019193005562,0.5230568051338196,-0.4458633959293365,0.2339963763952255
1.37179150390625,-0.8345331539519131,0.0671495824262499,5.615176800048351,0.711940586566925,-0.3860574066638946,0.1686738431453704
1.3818173828125,-1.0724967644836754,0.1890666191601194,6.100860714364051,0.8542660474777222,-0.2637432217597961,0.0664742514491081
1.391843505859375,-1.1322754528157413,0.118975192862004,6.531150073716044,0.9277523159980774,-0.0811865925788879,-0.0284755714237689
1.401869384765625,-0.9985853597722948,-0.040997429194278,6.884834916815161,0.909612238407135,0.0794510245323181,-0.1115899011492729
1.4118955078125,-0.7146927225627004,-0.1430337393821682,7.114875260066985,0.8081396818161011,0.0834428369998931,-0.1858377605676651
1.42192138671875,-0.3618200726293027,-0.0562453996393829,7.088816105180978,0.6672933101654053,-0.0805365145206451,-0.2653238177299499
1.431947509765625,0.0357503816865384,0.1373965828785672,6.779522776994109,0.5418365001678467,-0.3300486207008362,-0.3677877485752105
1.441973388671875,0.4781152326270937,0.2484945943583734,6.334105406615138,0.3982279300689697,-0.5544082522392273,-0.4512189924716949
1.451999267578125,0.9892826208326964,0.4636430551603436,5.651546921068429,0.1956027448177337,-0.6788374185562134,-0.4789734482765198
1.462025390625,1.2505883823767303,0.7586657928671687,4.309308721259236,-0.0237184315919876,-0.6558578014373779,-0.5282257199287415
1.47205126953125,0.9548493861593306,1.0255690090920777,2.2882640819132325,-0.167176067829132,-0.5880360007286072,-0.676297128200531
1.48207763671875,0.2094059898935258,1.0124630054119974,0.2265606844425201,-0.1836157590150833,-0.4545500874519348,-0.946558952331543
1.492103515625,-0.424559656593576,0.5544426124390215,-1.8425299006700515,-0.0976193696260452,-0.1651787757873535,-1.212569236755371
1.502129638671875,-0.4813195085611194,0.0358975898711942,-3.783215639665723,0.0448813177645206,0.2700792253017425,-1.3547426462173462
1.512155517578125,0.0069849635165184,-0.2040171547283418,-5.507296271044016,0.1854646652936935,0.7955484390258789,-1.369243025779724
1.522181396484375,0.6017663083456456,-0.5906911529060452,-7.523132820352911,0.2945900857448578,1.35107421875,-1.2528364658355713
1.532207275390625,1.5169778038606048,-0.4829602615054696,-9.664463881289958,0.3337041437625885,1.6964571475982666,-1.04819655418396
1.542233154296875,3.424192358148098,1.366590843038261,-11.118730961954594,0.2737835347652435,1.4627522230148315,-0.7694900631904602
1.55225927734375,5.045651403963565,3.618365269204974,-11.767118882352111,0.1224869191646575,0.7538085579872131,-0.4460886418819427
1.56228515625,5.0453135503113264,3.9427161735311143,-12.474905917179584,-0.1097708195447921,-0.1477795988321304,-0.0760751739144325
1.572310791015625,3.349373556268215,3.336287864723801,-12.872559665864705,-0.4164879024028778,-0.6491072773933411,0.2191423773765564
1.582337158203125,1.1312549506615848,3.341207785469293,-13.286803314822912,-0.7770777344703674,-0.6152244210243225,0.3758971095085144
1.592363037109375,-0.8696997444011271,3.871146436575055,-13.509742301636932,-1.0189186334609983,-0.3221110999584198,0.2946085929870605
1.60238916015625,-2.3355606706172227,3.8424239076986906,-14.270935932481288,-1.0620304346084597,0.1285982877016067,0.0205464176833629
1.612414306640625,-2.354571660557389,3.3955776735603806,-15.191755477136372,-0.9162172675132751,0.5816934704780579,-0.2225863337516784
1.6224404296875,-0.7844310063078999,3.1612530771180984,-15.534375320863722,-0.63909512758255,0.9666523337364196,-0.2782458662986755
1.63246630859375,0.9861655847907066,2.6106466087758537,-15.052432346642016,-0.2675796747207641,1.1209931373596191,-0.1275037229061126
1.6424921875,2.3972994800411165,1.829472558437288,-13.747315378481147,0.1553795486688614,0.934203803539276,0.138571634888649
1.652518310546875,3.434081299477816,1.2167460262686014,-11.157910295176505,0.488427460193634,0.4439151883125305,0.416494756937027
1.6625439453125,3.60464537141025,0.6556802693627775,-7.441554607340693,0.6100130081176758,-0.1166605353355407,0.6447657346725464
1.672570068359375,2.8919977448090908,-0.0813509070623666,-3.427767294025421,0.5368506908416748,-0.5266008973121643,0.8135690093040466
1.682595947265625,1.9269300392352045,-0.7396994457863271,0.1851625061273574,0.3352137506008148,-0.6011664867401123,0.9135643243789672
1.6926220703125,1.1400665450833738,-1.1276890748735515,3.065167323064804,0.0594941936433315,-0.4347279667854309,0.9645117521286012
1.70264794921875,0.4939838328883051,-1.130505155207589,5.123616687175631,-0.2370107024908065,-0.2250812798738479,0.97804856300354
1.712674072265625,-0.0912649097681045,-1.035326506061852,6.285300751435757,-0.4982854425907135,-0.1027155220508575,0.9307064414024352
1.7227001953125,-0.5224846087727696,-0.984820672987774,6.789395351710915,-0.6894487142562866,-0.0818435326218605,0.8465625643730164
1.73272607421875,-0.6105781219631433,-0.8679494666676968,6.965608243185281,-0.7876892685890198,-0.1099185794591903,0.7839095592498779
1.742752197265625,-0.5899008793111891,-0.7881435240250081,6.926267581921816,-0.7709121704101562,-0.1551563739776611,0.7604572176933289
1.752778076171875,-0.8375813625413924,-0.8056694630391895,6.771363435935974,-0.6325109004974365,-0.161167487502098,0.7383574843406677
1.76280419921875,-1.299301559880376,-1.015744584365934,6.703816086363792,-0.4048215746879577,-0.1547434031963348,0.7003188133239746
1.772830078125,-1.7242586182937023,-1.3716998566150664,6.922026875612139,-0.1471932530403137,-0.146958127617836,0.6844715476036072
1.78285595703125,-1.972315387490392,-1.5981319462418555,7.472509717574715,0.0803048834204673,-0.0828201547265052,0.724388837814331
1.792882080078125,-2.194330537457764,-1.6637807687163353,8.159619875076412,0.2539426386356354,0.0675247237086296,0.7643673419952393
1.802907958984375,-2.571278474983573,-1.606745753069222,8.852777496048807,0.3248903155326843,0.2679145634174347,0.76430743932724
1.81293408203125,-3.081873250932991,-1.526114903909713,9.5055423163563,0.2611334323883056,0.464749813079834,0.705093502998352
1.822960205078125,-3.627667935079336,-1.5984624933704732,9.768149296692012,0.0814872458577156,0.5739718675613403,0.5749053955078125
1.832986328125,-4.048737338404357,-1.7817169739194214,9.54644423558712,-0.1471174657344818,0.5075671076774597,0.3901510536670685
1.84301220703125,-3.999676078115404,-1.9902653240703043,9.06554930911362,-0.3571396768093109,0.3442260921001434,0.2255237698554992
1.8530380859375,-3.447050671166181,-2.0273411091417075,8.296233162090182,-0.5087656378746033,0.1661347597837448,0.1464198678731918
1.863064208984375,-2.85399943806529,-1.8773038385398684,7.340340550488233,-0.5636877417564392,0.0165857523679733,0.1358497738838195
1.873090087890625,-2.5263176357507704,-1.6645106904260814,6.341909942886233,-0.5069976449012756,-0.0793566182255745,0.1300250589847564
1.883115234375,-2.527943191125989,-1.5012053574502466,5.417285745251179,-0.344780832529068,-0.1350864619016647,0.1031473651528358
1.89314111328125,-2.4990768698647616,-1.4088213805243373,4.812651626384258,-0.1098424643278122,-0.1810618191957473,0.0704241767525672
1.9031669921875,-2.3010466988578435,-1.1772650797516109,4.446451000583171,0.1667281538248062,-0.1656998991966247,0.0451965816318988
1.913193115234375,-2.0417916592985392,-1.0167344721861182,4.269191814926266,0.4563668966293335,-0.1090797632932663,0.0265888068825006
1.923218994140625,-1.9377340495832265,-1.011590533426404,4.401385531932116,0.7371188998222351,-0.0192068666219711,-0.0098003586754202
1.9332451171875,-1.8507415564373133,-1.0369654323752968,4.754454873481393,0.9694281220436096,0.0595122054219245,-0.0627941340208053
1.94327099609375,-1.614118327663839,-0.9957225907523184,5.2505386012583966,1.1239732503890991,0.0564663484692573,-0.115127645432949
1.95329736328125,-1.2092116852410135,-0.8052378666888922,5.871753268048167,1.19367778301239,-0.0119986552745103,-0.1584183424711227
1.9633232421875,-0.8732496919676661,-0.6632980508901178,6.501445840325951,1.1547164916992188,-0.0874071270227432,-0.201000690460205
1.973349365234375,-0.5163758435688912,-0.5892999542759731,6.891798910608888,1.0095620155334473,-0.1920448839664459,-0.2363549023866653
1.983375244140625,-0.2048323983676731,-0.4759818738602101,6.972694986575841,0.8027070760726929,-0.3235954344272613,-0.2674017548561096
1.993401123046875,0.0859955910630524,-0.3587255041474476,6.61756345179975,0.5405576229095459,-0.4256531596183777,-0.2895007133483886
2.00342724609375,0.2584287448029965,-0.1324214978797361,5.728621977442503,0.2769214510917663,-0.4839553534984588,-0.3246975839138031
2.013453125,0.3283614551417529,0.3660046283049509,4.50063208810389,0.0327177941799163,-0.5150925517082214,-0.4047001600265503
2.023479248046875,0.5736249403581023,1.2181349964089692,2.969697362822294,-0.2429420202970504,-0.5399225354194641,-0.4833771288394928
2.033505126953125,0.7631903576195239,2.2060049008995293,1.3361451436311005,-0.5269374847412109,-0.6748935580253601,-0.5306726098060608
2.04353125,0.2423491321396082,2.6299749941021204,-0.5645294874936342,-0.7669950723648071,-0.7705846428871155,-0.5491960048675537
2.05355712890625,-1.507042393040657,1.6481322409465908,-3.511570781871676,-0.8631203770637512,-0.3108333647251129,-0.6185631155967712
2.063583251953125,-3.6877132384583353,-0.3427430682482197,-7.885489045685529,-0.7762483358383179,0.7760737538337708,-0.7889884114265442
2.073609375,-3.680512221038341,-1.0535968337025492,-12.464082909870148,-0.5581992268562317,1.876903772354126,-0.9452853798866272
2.08363525390625,-0.4931147949688136,1.3778684622474011,-16.02470969133377,-0.3113646507263183,2.5181572437286377,-1.010899305343628
2.093661376953125,3.16819748942852,3.844465058137476,-18.464270250129697,-0.1051320433616638,2.2743046283721924,-0.9648987054824828
2.10368701171875,6.46702042363286,3.92423446816206,-19.26401543768644,-0.1148328706622123,1.1544405221939087,-0.6662542223930359
2.113713134765625,8.640719384211302,4.066905447779596,-18.251167597675323,-0.5018687844276428,-0.0616406202316284,-0.1590457111597061
2.123739013671875,8.189592404013872,4.394502202159166,-16.74508498957753,-1.1568803787231443,-0.8901897072792053,0.2289201319217682
2.133764892578125,5.085643222612142,3.542532321846485,-15.365011272370817,-1.7499920129776,-1.3051624298095703,0.2961863577365875
2.143791015625,1.3647573440007863,2.2262856185145674,-14.89244636734724,-2.0526106357574463,-1.178685426712036,0.0881268829107284
2.153816162109375,-0.916903101863712,1.814421412038803,-15.038464611566068,-2.0190863609313965,-0.6493234038352966,-0.2221577614545822
2.16384228515625,-1.183147854179889,1.9986551128834484,-15.03218918455839,-1.7356500625610352,-0.0832112804055213,-0.4459706246852875
2.1738681640625,-0.3854008547030389,1.992011729346216,-14.512663790917395,-1.277774453163147,0.3052633106708526,-0.4986759126186371
2.18389404296875,0.2674592426724732,1.4722764923468232,-13.243194474720957,-0.7302056550979614,0.4828284978866577,-0.4498031735420227
2.193920166015625,0.3099026922568678,0.6127485248047858,-11.253286731916663,-0.2235770374536514,0.6011552214622498,-0.4310039579868316
2.203946044921875,0.2728914968542754,-0.2172752619639039,-8.826048479077219,0.1696008741855621,0.7336829304695129,-0.4291980564594269
2.21397216796875,0.4371539844244718,-0.215607255686447,-6.112750474122167,0.4202530682086944,0.8538105487823486,-0.4390647411346435
2.223998046875,0.508213287640363,0.1811583119872957,-3.755012458488345,0.5962717533111572,0.9214918613433838,-0.5072134137153625
2.234024169921875,0.8253384784966706,-0.0362456178575754,-1.772147035411,0.7543075680732727,0.8138246536254883,-0.5618600845336914
2.244050048828125,1.5260012144021688,-0.5548242321677506,0.3260866420775651,0.8463892936706543,0.5021538734436035,-0.4780099391937256
2.254075927734375,2.1171523129701613,-0.7611253879137336,2.570903211930394,0.7955425381660461,0.1564638614654541,-0.318867951631546
2.26410205078125,2.1134597420625387,-0.8074446560181677,4.663918862509727,0.6357457041740417,-0.2122137695550918,-0.15473572909832
2.2741279296875,1.4973970512084662,-0.8892548511553555,6.37690293033421,0.4676003158092499,-0.552915632724762,0.0090215504169464
2.284154052734375,0.4110366696104407,-1.0166834726512433,7.527322088736295,0.3505812883377075,-0.7957706451416016,0.1577053070068359
2.29418017578125,-0.937004955780506,-1.2108571143604814,8.024574275770783,0.3535859286785126,-0.8426496386528015,0.265143871307373
2.304206298828125,-2.25707662422806,-1.547378787343204,8.162104093107581,0.4474160075187683,-0.6230573654174805,0.3207115232944488
2.314232177734375,-3.4090699000790714,-1.778820521825552,8.399926760798692,0.5472337007522583,-0.2679894864559173,0.314344048500061
2.324258056640625,-4.0469951709121466,-1.64639431123808,8.928072098746895,0.5723268389701843,-0.005558923818171,0.2496505230665207
2.3342841796875,-4.391944334369898,-1.3897551532655954,9.507306403419374,0.4926217198371887,0.0580935925245285,0.1339869350194931
2.34431005859375,-4.38016241890043,-1.3100409805595874,9.905261180877686,0.3311265408992767,-0.0214315950870513,-0.0153884338214993
2.354336181640625,-4.213088819432258,-1.376415194699168,9.885247151374816,0.1445122808218002,-0.1034464836120605,-0.1668588817119598
2.364362060546875,-3.8831332269668577,-1.7794491751179098,9.315634077006578,-0.0027581271715462,-0.1176808178424835,-0.2814722955226898
2.37438818359375,-3.2688398838728663,-2.2713398351192478,8.47587485896945,-0.063227005302906,-0.1041927710175514,-0.3382909297943115
2.3844140625,-2.3416331223987044,-2.3828294945314523,7.701545267698168,-0.0485167615115642,-0.1258900612592697,-0.3114499747753143
2.394440185546875,-1.4548058637164532,-2.3109926310718056,7.05211046859622,0.0454971492290496,-0.2080261260271072,-0.2338598668575287
2.40446630859375,-0.7873853260688484,-2.2269597183838483,6.632923518016934,0.2079063057899475,-0.3273786306381225,-0.1188754811882972
2.414490966796875,-0.3060552230484783,-2.079741450725496,6.560964781743287,0.3745163083076477,-0.4790241718292236,0.0319894142448902
2.424518310546875,-0.2122889979839324,-1.8214698692455888,6.845377351173758,0.5044767260551453,-0.6163133382797241,0.1399955153465271
2.434543212890625,-0.6049927230462432,-1.5144620216473936,7.29430009932518,0.585871696472168,-0.7118159532546997,0.1580321043729782
2.4445693359375,-1.2279061565779148,-1.3505476168625057,7.54734371702373,0.6686808466911316,-0.6958308815956116,0.0894929990172386
2.45459521484375,-1.658654950135201,-1.2906278395593165,7.6666896428942675,0.7497588992118835,-0.5952538847923279,-0.0174463558942079
2.46462109375,-1.6575719772040842,-1.109497365427017,7.778996756169199,0.8466044664382935,-0.4947493970394134,-0.1227738484740257
2.474647216796875,-1.2968632268175482,-0.7577788539648056,7.923633775162696,0.960272252559662,-0.4776366353034973,-0.193349540233612
2.484673095703125,-0.9450733306195588,-0.2881802331346087,8.054894010710715,1.0879534482955933,-0.5095801949501038,-0.2484037429094314
2.49469921875,-0.7186577537361531,-0.0208849853848107,8.249755488553642,1.2000967264175415,-0.550906777381897,-0.3120253086090088
2.50472509765625,-0.6181940768595785,0.2577439408766105,8.426626551675795,1.2871733903884888,-0.5320897102355957,-0.3813079595565796
2.514751220703125,-0.5617641144335269,0.4145924258632585,8.519678929382563,1.3549487590789795,-0.4381406009197235,-0.4500705003738403
2.524777099609375,-0.3838122703373432,0.3815057469606399,8.648455531421304,1.3852065801620483,-0.33256995677948,-0.5046530365943909
2.534802978515625,0.0352026846759021,0.6039771893281489,8.8115914991796,1.2910526990890503,-0.3020069301128387,-0.5163148045539856
2.5448291015625,0.5396766396574676,1.4222431721553206,8.878617455226182,1.0575486421585083,-0.3206152319908142,-0.5288255214691162
2.55485498046875,0.9553150309097022,2.710299407660961,8.55442758668065,0.7156943082809448,-0.4033307731151581,-0.592627763748169
2.564881103515625,1.598769513493031,4.473277340449393,8.045977713805437,0.24497951567173,-0.5817697644233704,-0.6495621800422668
2.574906982421875,1.9533245635554195,6.245742063507437,7.483381824722886,-0.4620050489902496,-0.656848132610321,-0.5883611440658569
2.58493310546875,1.311212654687464,7.012466440472006,5.347787261611223,-1.276946187019348,-0.4836265742778778,-0.534705400466919
2.594959228515625,-0.2693500248551368,5.811543421757221,0.9757774617671966,-1.883877277374268,-0.0277677290141582,-0.6596642732620239
2.604985107421875,-1.5170339179620145,3.9437265196174383,-5.051665549686551,-2.2555243968963623,0.5697316527366638,-0.9018039107322692
2.61501123046875,-0.0455900039818137,4.559330068527162,-10.936810214227435,-2.375406503677368,0.9619531631469728,-1.0320332050323486
2.625037109375,3.894695654466748,7.283970428490639,-15.471246956777572,-2.1916849613189697,0.8930334448814392,-0.7868804335594177
2.635063232421875,6.989440369671582,7.967396929043531,-19.47151720139384,-1.7072913646697998,0.6364802122116089,-0.1965999752283096
2.645089111328125,6.709393594235181,5.443963324296474,-22.76717202695608,-1.179219365119934,0.3963099718093872,0.3925530314445495
2.655114990234375,4.197558072823286,2.153799058974534,-23.811399340093136,-0.9818446636199952,0.3153019547462463,0.827685534954071
2.665140869140625,2.296059558095038,0.8949820696957409,-22.78721411350965,-1.250185251235962,0.3248874545097351,1.1975972652435305
2.675166015625,0.8673427329462021,0.5118371772259473,-21.473028872752188,-1.7746325731277466,0.2569054365158081,1.4233087301254272
2.685192138671875,-0.3861646786823868,0.8261463608134537,-21.058997989761828,-2.1785547733306885,-0.0407768338918685,1.361747145652771
2.695218017578125,-1.2820295225620268,2.1058738169781863,-21.51286520857811,-2.18827748298645,-0.3764677047729492,1.050582766532898
2.705244140625,-1.657938764689863,2.301351088631898,-21.98811891429424,-1.7599753141403198,-0.6296810507774353,0.6955368518829346
2.71527001953125,-1.156356658692285,1.6597427453719078,-21.22278803751469,-0.988135814666748,-0.6727519035339355,0.4834091365337372
2.725296142578125,0.1483821968711912,0.7635019077867269,-18.963990873104333,-0.0711351633071899,-0.5753010511398315,0.4857087731361389
2.735322265625,1.1174745548512786,-0.1082188210479915,-15.112427673399448,0.7517158389091492,-0.3426297903060913,0.6132287383079529
2.745347900390625,1.2470378502883015,-0.8243576507657766,-10.443986949551103,1.3595598936080933,-0.1744320094585418,0.7458144426345825
2.7553740234375,1.2961312592811882,-1.415491067546606,-5.533358933061361,1.6680858135223389,-0.1641964167356491,0.8500063419342041
2.76539990234375,1.3966019504204392,-1.2013649172633885,-0.6369558412790298,1.6096041202545166,-0.280932605266571,0.9111091494560242
2.775426025390625,0.7557300316762179,-0.9513435699954628,3.476819786486029,1.2962465286254885,-0.4299718141555786,0.8755549192428589
2.785451904296875,-0.171618695551902,-1.2563779255636036,6.335862479415535,0.8759733438491821,-0.5133886337280273,0.7364428043365479
2.795477783203125,-0.9666896076872944,-1.5205997937500475,8.138000163942575,0.4655458927154541,-0.5594410300254822,0.5153526663780212
2.80550390625,-1.4551812729001044,-1.6869339730277657,9.099470283415911,0.1366678476333618,-0.5514278411865234,0.2696840465068817
2.81552978515625,-1.6942355282127857,-1.8098348149009047,9.336002911296486,-0.0553402751684188,-0.4715971350669861,0.028900146484375
2.825555908203125,-1.6853404202260076,-2.1487439675420523,9.092390554288029,-0.0720548033714294,-0.2871708273887634,-0.170536532998085
2.83558203125,-1.4756765100486575,-2.5934564045220614,8.686348916485905,0.0664726048707962,-0.0576002150774002,-0.2902629971504211
2.845608154296875,-1.108668367256969,-2.84954245865643,8.411262978327274,0.2965193688869476,0.1511745750904083,-0.3222715258598327
2.855634033203125,-0.6091775709828362,-2.799002942508459,8.334269755017758,0.5446794033050537,0.2948809266090393,-0.2854489684104919
2.865659912109375,-0.3786920047141611,-2.409606003906578,8.518100720280408,0.7317688465118408,0.32232266664505,-0.2433161586523056
2.87568603515625,-0.6471203846797347,-2.037035696943104,8.6717551584661,0.8436775803565979,0.3472256064414978,-0.2301819324493408
2.8857119140625,-1.0126491756338625,-1.9734496522173284,8.66386411295533,0.9095127582550048,0.406906247138977,-0.2483263164758682
2.895738037109375,-1.2592416444316503,-1.8864605200722813,8.83141789715588,0.9316868782043456,0.4997155368328094,-0.2615225315093994
2.905763916015625,-1.2183057498659935,-1.582170114739239,9.029191463053223,0.8716946244239807,0.5615836977958679,-0.239135205745697
2.9157900390625,-1.108773727327585,-1.318703741095215,9.211196966454386,0.7324345707893372,0.5237126350402832,-0.2127354145050048
2.92581591796875,-1.2249702492564916,-1.1710839068986474,9.267762318763136,0.5615230202674866,0.4218951761722564,-0.2073720842599868
2.9358408203125,-1.3648121429279445,-1.069011552716419,9.149023711135984,0.3601326644420624,0.2759459018707275,-0.2165539562702179
2.945866943359375,-1.436493377434462,-1.015312695754692,8.830835713353753,0.1889089941978454,0.1371797770261764,-0.2447219491004943
2.955892822265625,-1.499908595637977,-0.902579319891706,8.300365147328376,0.1011029332876205,0.063254527747631,-0.2777225971221924
2.965919189453125,-1.479786283455044,-0.6227274094402789,7.498855872708559,0.1154384613037109,0.0793693214654922,-0.3085848987102508
2.975945068359375,-1.3924223266482352,-0.4386243857705965,6.696823450997472,0.249340534210205,0.118399977684021,-0.3388088047504425
2.98597119140625,-1.2790835322380063,-0.2874656003255397,6.146411336183547,0.4686979353427887,0.1492905169725418,-0.3592243492603302
2.9959970703125,-1.0842785338226706,-0.0378477558245882,5.954954113826156,0.7066049575805664,0.1792236566543579,-0.3595093488693237
3.00602294921875,-0.9429515161599964,0.1830119587636552,6.138865158587694,0.9237039685249328,0.1652503162622451,-0.3540421426296234
3.016049072265625,-0.8288091502819209,0.4007232192583382,6.599945377522706,1.0937520265579224,0.1270153522491455,-0.3647335171699524
3.026074951171875,-0.8142086702603847,0.6467106348350644,7.165326513409614,1.1981654167175293,0.1204773038625717,-0.3956448435783386
3.03610107421875,-0.8434222705893218,0.6716777567006648,7.609493591466546,1.230828046798706,0.1550080478191375,-0.4304428696632385
3.046126953125,-0.8887166526254267,0.6013194413609803,7.734651418486237,1.1833579540252686,0.2314053624868393,-0.4796479642391205
3.056153076171875,-0.798252683976665,0.582690801801905,7.548403455209732,1.074297547340393,0.3094062805175781,-0.5348827838897705
3.066178955078125,-0.3624475568778812,0.5002809602711349,7.191857377460599,0.8906060457229614,0.3011707067489624,-0.5732679963111877
3.076205078125,0.3487735440514981,0.5940824758447706,6.57183338176012,0.5980108380317688,0.1254499107599258,-0.5495014190673828
3.086231201171875,0.8437032794877887,0.9629370502207428,5.562376937752962,0.2580644488334656,-0.1298662722110748,-0.4843916296958923
3.096257080078125,0.9848427386891097,1.001460988273844,4.0188486883580685,-0.117187388241291,-0.3038181066513061,-0.4379777312278747
3.106283203125,0.6810397515468299,0.7665110995400697,1.7998732467263936,-0.533328115940094,-0.3839672803878784,-0.4251444935798645
3.11630908203125,-0.5218676459182053,0.4745549097970127,-0.938049496397376,-0.8384713530540466,-0.2412599474191665,-0.4795669615268707
3.126335205078125,-2.28667389011234,-0.5758914970505983,-4.817586744698882,-0.9406943917274476,0.399562120437622,-0.5693325400352478
3.136361083984375,-3.670812080278993,-2.04738977156654,-9.962270769822595,-0.815804123878479,1.2246675491333008,-0.5861832499504089
3.146386962890625,-3.0703809660598638,-2.1144906925454734,-14.60153917520046,-0.483948677778244,1.621346950531006,-0.4402414858341217
3.1564130859375,-0.2507404553227126,0.6733300539523362,-17.596468009912968,-0.1020435467362403,1.470401406288147,-0.1793148815631866
3.16643798828125,1.6145684095188977,3.479108774206042,-18.64316083638072,0.1936051547527313,0.9285261631011964,0.0680056884884834
3.176464111328125,1.507550488693267,2.701837868785858,-18.226446997916696,0.2447021305561065,0.1721776723861694,0.3798421919345855
3.186489990234375,0.3742654204435646,1.2809079711861908,-16.21177189360261,-0.0711927115917205,-0.1504786759614944,0.6177958846092224
3.196515869140625,-1.068088957978785,1.746268497788906,-13.583307888585328,-0.6941730380058289,-0.0434389114379882,0.5597494840621948
3.206542236328125,-2.0999445730596777,2.4195484289892017,-11.386225714331864,-1.4990090131759644,0.1360919624567031,0.3273572623729706
3.216568115234375,-1.797853285206109,2.130361484763771,-10.4574648552835,-2.2536892890930176,0.1252487003803253,0.1589089483022689
3.22659423828125,-0.375170114198327,1.9615160533174871,-10.63193411796093,-2.683798551559448,-0.1246823072433471,0.0746444091200828
3.2366201171875,1.0651301081731914,2.2386368583045897,-11.339854423779247,-2.7272777557373047,-0.4632651805877685,0.0529108792543411
3.246646240234375,1.5096904233314097,1.9853182230569424,-11.68785888315439,-2.37119460105896,-0.749851405620575,0.0388946644961833
3.256672119140625,1.2815480226553977,0.9705736095137892,-11.374954963254927,-1.7296112775802612,-0.721504807472229,-0.0075740688480436
3.266697998046875,1.5480939498752355,0.1189879792783409,-10.098796378552914,-1.0217905044555664,-0.3942757844924927,-0.0057045300491154
3.27672412109375,2.3057238968886438,0.5406782179154456,-7.978174928167462,-0.3971495330333709,0.0046157352626323,0.0324418880045414
3.28675,2.767703841142356,0.8080302008211612,-5.632568079832196,0.1362009346485138,0.279458224773407,0.0698483809828758
3.29677587890625,2.680850025814772,0.2395733107507228,-3.1898008339494464,0.5098679661750793,0.520319402217865,0.1129534319043159
3.3068017578125,2.4080571670293804,-0.1929856740336865,-0.6139414609163999,0.6782556176185608,0.7209329009056091,0.121518425643444
3.316828125,1.9198510407596825,-0.6131620740417391,1.9293033442378045,0.6533626317977905,0.7202243804931641,0.0896074920892715
3.32685400390625,1.4018079946309328,-0.9557912701193244,4.176023117363453,0.4572115242481231,0.4962450861930847,0.0089374119415879
3.3368798828125,1.0432717659778892,-1.0577348833553493,5.982483341264724,0.1466717422008514,0.191927820444107,-0.0767372772097587
3.346906005859375,0.8276778812296688,-1.1621044816292825,7.147613746586441,-0.1736767143011093,-0.0774139016866684,-0.1127549335360527
3.356931884765625,0.5938036589033902,-1.4265180729955431,7.572480496367811,-0.389793336391449,-0.282095193862915,-0.1179104298353195
3.3669580078125,0.4711356028728187,-1.773680236327648,7.43922996378541,-0.4517658948898315,-0.3739894330501556,-0.0553788729012012
3.37698388671875,0.5091984992854297,-2.062830940195918,7.106434763979912,-0.3998105525970459,-0.3093871176242828,0.1078655198216438
3.387010009765625,0.3841793500840664,-2.0192843516752124,7.004014253947139,-0.3325747847557068,-0.1865834146738052,0.2780212759971618
3.397035888671875,-0.0632734716452658,-1.6985013689637185,7.203968671014905,-0.2838524281978607,-0.1067772358655929,0.3790284693241119
3.407061767578125,-0.8731924088224768,-1.440980751981586,7.329707512792944,-0.2570120394229889,-0.0662662982940673,0.3908062875270843
3.4170869140625,-1.6332687260746954,-1.4676286665409803,7.239336921516061,-0.2591112852096557,-0.1373823434114456,0.3310939371585846
3.42711279296875,-2.161152490477264,-1.4137930314570664,7.029403546747565,-0.2535820305347442,-0.1963892132043838,0.2300610393285751
3.437138916015625,-2.404698942642659,-1.349682086074352,6.751757987233996,-0.2255931347608566,-0.2043399512767791,0.1387344598770141
3.4471650390625,-2.3635732976585624,-1.4643068286418914,6.504672401157021,-0.1732023656368255,-0.1574560552835464,0.0867109447717666
3.45719091796875,-1.981098997926712,-1.56051591681391,6.257199861589074,-0.0749621540307998,-0.0607787743210792,0.1082009971141815
3.467217041015625,-1.5923757208026943,-1.6333841691479083,6.058643036359548,0.0488846898078918,-0.004027344752103,0.1671479344367981
3.477242919921875,-1.3990471516154706,-1.5736173904493451,6.000564941400289,0.1483085602521896,0.0015166997909545,0.2278766632080078
3.48726904296875,-1.4165233332037923,-1.4660345292173325,6.121065298002958,0.2163906693458557,-0.018421322107315,0.2509020864963531
3.497294921875,-1.5585129064284264,-1.32609370521605,6.3270145715713495,0.2491235733032226,-0.094584047794342,0.2425515949726104
3.507321044921875,-1.6567676750838756,-1.2219169261004774,6.438553038561344,0.2774473428726196,-0.1910450756549835,0.2118991464376449
3.517346923828125,-1.567519804226607,-1.2374839861318467,6.407203960573673,0.3335341215133667,-0.2596696615219116,0.1950136870145797
3.527373046875,-1.3589568410284816,-1.237219197715819,6.374666549584269,0.4262358248233795,-0.3526611328125,0.1871059685945511
3.5373994140625,-1.1382019202552736,-1.1513747786264863,6.530734478652477,0.5291608572006226,-0.4332337081432342,0.1790492087602615
3.54742529296875,-1.1320246929250657,-1.0478831322308628,6.777119807505607,0.5986059904098511,-0.478490948677063,0.1441817730665207
3.55745166015625,-1.326628104353696,-1.045682041990012,6.893036927971243,0.6526284217834473,-0.5170555114746094,0.0546078644692897
3.5674775390625,-1.4754286727674304,-1.0831333823755382,6.843792127808928,0.7111942768096924,-0.5035221576690674,-0.0628982558846473
3.577503662109375,-1.3740534340038897,-1.0950554369680583,6.737142017382383,0.7620838284492493,-0.3807420432567596,-0.1775359660387039
3.587529541015625,-1.0432822143066671,-1.0509627588719128,6.517015165379643,0.8322898149490356,-0.1668840795755386,-0.2833015322685241
3.5975556640625,-0.6279462400671094,-1.0344023769542574,6.14627631162703,0.9220492243766784,0.1013987213373184,-0.3983158469200134
3.60758154296875,-0.0995112715225666,-0.9195764127261936,5.63492896374464,0.9637923836708068,0.3355880379676819,-0.536794900894165
3.617607666015625,0.6950145008854568,-0.6474091384932399,5.04116695202589,0.919125199317932,0.4775910973548889,-0.6893791556358337
3.627633544921875,1.6398941355638206,-0.1496903842597734,4.1503947551101446,0.834632933139801,0.557915985584259,-0.8566839694976807
3.637659423828125,2.32008545358777,0.3467342202436179,2.849578114491701,0.7819110155105591,0.5690067410469055,-1.051252007484436
3.647685546875,3.28847163605988,0.2588024369535968,1.183574993550777,0.7235696911811829,0.656769871711731,-1.1455931663513184
3.65771044921875,4.283771544420719,-0.0093093148108571,-0.6674497637420892,0.6320987343788147,0.7935434579849243,-1.101126790046692
3.667736328125,4.320723264721035,-0.5247957352593541,-2.469988430285454,0.5661433935165405,0.9695885181427002,-1.0649384260177612
3.677762451171875,4.107812627707421,-1.47009549504593,-4.769104745602608,0.448362648487091,1.3594766855239868,-0.9936730265617372
3.68778857421875,4.849067924633622,-1.29211851650849,-7.434821499693394,0.2043300122022628,1.748590350151062,-0.7227810621261597
3.697814697265625,7.221672670009732,1.1285070401929318,-9.44828489013016,-0.2187745869159698,1.7411409616470337,-0.1181203201413154
3.707840576171875,8.48493494825959,3.931039764262736,-11.255034452366829,-0.8280845284461975,1.375906229019165,0.5391589999198914
3.71786669921875,6.239938345664739,4.454918969199061,-14.052687149310112,-1.412989616394043,0.6928890347480774,0.8286008238792419
3.727892578125,1.6520917922273275,3.571074525719881,-17.062183438557387,-1.81506621837616,0.0272388495504856,0.5965191125869751
3.737918701171875,-1.8251601020656525,3.830660696929693,-19.59308723305464,-1.977144956588745,-0.3094242215156555,0.1445111632347107
3.747944580078125,-3.285284822717309,4.525899800351262,-21.223461406731605,-1.7926784753799438,-0.2214972823858261,-0.2703605890274048
3.757970458984375,-3.588530687433481,4.13689083815366,-22.4051425493598,-1.2669411897659302,0.2327871173620224,-0.5622944235801697
3.76799658203125,-2.667841198898852,3.452140395520628,-22.74006657788753,-0.5588849186897278,0.768641471862793,-0.6646519899368286
3.7780224609375,-0.7870218995839356,2.674715468582511,-21.92043595564365,0.1567637622356414,1.0749768018722534,-0.5655576586723328
3.78804833984375,0.6343339683428406,1.7272497629337011,-19.832318013978004,0.7277926206588745,1.1911966800689695,-0.3930487036705017
3.798074462890625,1.1361775748208165,0.6923997883424162,-16.797711833393574,1.1118214130401611,0.9792319536209106,-0.2449935972690582
3.8081005859375,1.478084301842749,-0.2078338086733594,-12.871807970714569,1.287649393081665,0.409319519996643,-0.1162670478224754
3.81812646484375,1.917750269088149,-0.7697316690217703,-8.319871227309108,1.228701114654541,-0.1595630198717117,0.0232599284499883
3.82815234375,2.1150851513072846,-1.1508785926073788,-3.950561918595433,0.9777682423591614,-0.4926376342773437,0.2004120647907257
3.838178466796875,2.0871084723621607,-1.3998195972926917,-0.3686322368621826,0.6209219098091125,-0.6709023714065552,0.4083167612552643
3.848204345703125,1.812362433682382,-1.2249788709543643,2.3999650459885595,0.211408644914627,-0.6959922313690186,0.6078985929489136
3.85823046875,1.2344051632083952,-0.807344629709795,4.065210626560449,-0.2336231470108032,-0.7013484239578247,0.7589017152786255
3.86825634765625,0.359969476326555,-0.4375678259223699,4.682213813135028,-0.6156325340270996,-0.7518249750137329,0.8045448064804077
3.878282470703125,-0.4297421007327735,-0.0102631632032804,4.431071060621738,-0.8270108103752136,-0.857304573059082,0.7985586524009705
3.888307373046875,-0.9839087457746268,0.4677430378250777,3.772773156106472,-0.8280233144760132,-0.9687139391899108,0.7471863031387329
3.898333251953125,-1.38978861714378,0.8804501979310065,3.310821999555826,-0.6394498944282532,-1.0614222288131714,0.6678782105445862
3.908359375,-1.7276074903301897,1.2405490727908908,3.2317870412856338,-0.2877105176448822,-1.0750651359558103,0.5683034062385559
3.91838525390625,-2.063762521957606,1.3305731887176633,3.704637192991376,0.1456631571054458,-1.0268268585205078,0.4529370963573456
3.92841162109375,-2.274298538794368,1.2290180633425711,4.781426467037201,0.5601767301559448,-0.8611897230148315,0.345312625169754
3.9384375,-2.379201074901223,1.0044614852640776,6.308887963250279,0.8776472210884094,-0.6448901295661926,0.2527680695056915
3.94846337890625,-2.5676363190889355,0.7541037456486374,7.955721104297042,1.0645257234573364,-0.4931893348693847,0.1424612998962402
3.958489501953125,-2.618246562385559,0.4306210024591535,9.475152438789603,1.1184014081954956,-0.4390964806079864,0.0394753441214561
3.968515380859375,-2.4110239078804847,0.1384546131646726,10.883526367807388,1.0397162437438965,-0.4225715696811676,-0.0090996483340859
3.97854150390625,-2.253361987619102,-0.0051116621916182,11.868625784671304,0.8523329496383667,-0.3630818426609039,-0.0199057422578334
3.9885673828125,-2.20827021548301,-0.2334052165750414,12.382850733816625,0.619193971157074,-0.2851998209953308,-0.0183448642492294
3.998593505859375,-2.189188498394191,-0.3100397626399994,12.535443680250644,0.3605528473854065,-0.2206659168004989,-0.0388938561081886
4.008619384765625,-2.136451033810526,-0.2648583029264584,12.29262627301216,0.1028041392564773,-0.2051311582326889,-0.0829553306102752
4.018645263671875,-1.954121559152007,-0.3097098365658894,11.641001270389555,-0.0887496769428253,-0.2400622367858886,-0.1276171803474426
4.02867138671875,-1.5288089652992785,-0.440017776357755,10.732366669046876,-0.1960204690694809,-0.3013080060482025,-0.129255011677742
4.038697509765625,-0.9573789046369492,-0.5998868878072128,9.972101258963344,-0.2409918904304504,-0.4048500657081604,-0.0662825629115104
4.0487236328125,-0.5906058857753873,-0.5501445133863017,9.428922018012404,-0.2439016550779342,-0.5314897894859314,0.0250819716602563
4.05874951171875,-0.5585615189999341,-0.4288544311780482,9.065507808059454,-0.2168923914432525,-0.6438817381858826,0.0991383343935012
4.068775634765625,-0.7769659311242401,-0.4947797325063496,8.740708867704868,-0.1544937193393707,-0.68031245470047,0.1258940398693084
4.078801513671875,-0.9815211199857294,-0.5306897982666269,8.452492229816317,-0.0600483231246471,-0.621924877166748,0.1266780346632003
4.08882763671875,-0.9635685530573128,-0.5538920658841728,8.256781441667675,0.0549035668373107,-0.5424598455429077,0.1518004387617111
4.098853515625,-0.7466943461749702,-0.4412244487337768,8.147475848296285,0.1629956513643264,-0.4958539605140686,0.1867843568325042
4.10887939453125,-0.6526894900489598,-0.187227567164693,8.171596728596091,0.2500948905944824,-0.4953029155731201,0.1986016035079956
4.118905517578125,-0.8382545856278389,-0.0619251988414674,8.099393077650666,0.3078788220882416,-0.5390666127204895,0.1618359535932541
4.128931396484375,-1.0500921865824608,-0.0527953322507441,7.88302411687672,0.3396609723567962,-0.5972577333450317,0.0755988135933876
4.138956298828125,-1.1497778648238628,-0.0190249088676646,7.770497807893157,0.3384024202823639,-0.650808572769165,-0.0303645897656679
4.148982421875,-1.1428490154087545,0.1873400693621486,7.521674438238143,0.3160257339477539,-0.677706778049469,-0.1451404392719268
4.15900830078125,-1.2556620323792098,0.2384563990173861,6.8729293749660245,0.3325853049755096,-0.6906937956809998,-0.3114359080791473
4.16903466796875,-1.252091334285587,0.2389872544910758,6.12080109410882,0.4078012108802795,-0.6188470125198364,-0.4810366630554199
4.179060546875,-0.9010872547030448,0.4168538314566016,5.568450120186806,0.4860799908638,-0.3370935916900635,-0.6499014496803284
4.189086669921875,-0.2068145851608365,0.3592642871992662,4.998846398168802,0.5089331269264221,0.0555652789771556,-0.7602388858795166
4.199112548828125,0.8041559166710823,0.1884675390221178,4.093011656677723,0.4260944128036499,0.3488313555717468,-0.7900913953781128
4.209138671875,1.4051207724407315,0.4941919226810335,2.711459683611989,0.2509263455867767,0.4617328643798828,-0.8150627613067627
4.21916455078125,1.488287715949118,0.91640815795362,0.44049569606781,-0.0032798256725072,0.5944942831993103,-0.8292025327682495
4.2291904296875,0.9889739202097058,0.9167537565208972,-2.997187427294254,-0.2750612795352936,0.7883478999137878,-0.9098225235939026
4.239216552734375,0.0723679746616631,0.5771246555747463,-7.296177583634853,-0.4289022088050842,0.9772194623947144,-1.1603811979293823
4.249242431640625,-0.0457777816388756,0.6895780089199542,-11.75753856858015,-0.4353925585746765,1.087429761886597,-1.4639389514923096
4.2592685546875,1.4483077338688075,1.4313105679690836,-15.182093330299852,-0.3342663645744324,1.0032702684402466,-1.497799277305603
4.26929443359375,3.70635422604233,1.7854897704564034,-17.086054143488408,-0.168808713555336,0.9980086088180542,-1.0915361642837524
4.27932080078125,4.426676625055075,0.8278854595657438,-18.25927842341661,-0.0154518717899918,1.075989842414856,-0.5005741119384766
4.2893466796875,3.230858528263867,-0.7674781179413199,-18.83165862441063,-0.0192649848759174,1.1924985647201538,-0.0568073168396949
4.29937255859375,1.7161977691739796,-1.3993592863045632,-18.50521951563358,-0.3008939921855926,1.2257025241851809,0.1767085641622543
4.3093984375,1.0655404425397514,-1.1959390928223728,-17.735694109773636,-0.8276238441467285,1.1235032081604004,0.3054924011230469
4.31942431640625,0.9287984145797789,-0.6922718511138111,-17.655892843306063,-1.39433753490448,0.8256652355194092,0.3208915889263153
4.329450439453125,0.7087310376793146,0.2940746066691354,-18.679739047193525,-1.6471774578094482,0.3018371760845184,0.1662705987691879
4.339476318359375,0.6047708969891071,1.0449734553292394,-20.04849057539701,-1.4491286277770996,-0.2249353677034378,-0.0456786602735519
4.34950244140625,0.6222992471560835,1.0412482242610306,-20.1991358948946,-0.898370623588562,-0.4614259302616119,-0.1726291477680206
4.3595283203125,0.7694023640021681,0.5860485877972096,-18.78806381283402,-0.1409907937049865,-0.3114741444587707,-0.2138909101486206
4.369553466796875,0.6780430539488792,-0.1733614475660026,-15.954880368304252,0.7169973850250244,0.1828785836696624,-0.194300428032875
4.37957958984375,0.6033693596281111,-0.976351535328105,-12.050739424622058,1.4879133701324463,0.7977697849273682,-0.1022040769457817
4.38960546875,1.0573168040737508,-1.0916768273804336,-7.359561968308687,1.917161583900452,1.168893814086914,0.092668741941452
4.399631591796875,1.762278698477894,-0.6455398374900222,-2.4403876572698358,1.8244630098342896,1.0832499265670776,0.3750780820846557
4.409657470703125,2.112034385434538,-0.4185589183414355,1.6108827067434788,1.136357665061951,0.5542816519737244,0.679533839225769
4.419683349609375,1.525576705379784,-0.3681560341851785,4.434626122754812,0.0308610592037439,-0.3488330841064453,0.891058087348938
4.42970947265625,0.0345925899535417,-0.3187230910396203,6.024764732155203,-1.1162647008895874,-1.3510948419570925,0.8922157883644104
4.4397353515625,-2.010147251626104,-0.2750279974263161,5.888814877486229,-1.89792799949646,-2.073736429214477,0.6967549324035645
4.449761474609375,-3.766943719300627,-0.0651201772241853,4.324490508300066,-2.106393575668335,-2.243258237838745,0.3969642221927643
4.459787353515625,-4.424941764086484,0.5045909689573571,2.656255098262429,-1.7992098331451416,-1.863006591796875,0.0620001405477523
4.4698134765625,-4.469041018053889,1.0189422113634643,1.7584084329158067,-1.075337290763855,-1.1939960718154907,-0.2466205358505249
4.47983935546875,-4.233160716602206,0.958505862840265,1.4903350038677454,-0.1388839483261108,-0.3487519323825836,-0.5393186807632446
4.489865234375,-3.625898587319255,0.3655594052881002,2.0764374407440425,0.7311718463897705,0.3247311413288116,-0.7785760164260864
4.499891357421875,-2.501249829989672,0.0540610413376241,4.029743591859937,1.3590271472930908,0.5566335320472717,-0.881457507610321
4.509917236328125,-0.8546052703175693,0.4223317514110356,6.390142935657501,1.7272794246673584,0.4720869660377502,-0.8256062269210815
4.519943603515625,0.4757642855867743,0.7256501699067652,8.41640092573762,1.847442626953125,0.2708536684513092,-0.6713328957557678
4.529969482421875,0.9493288691721856,0.4496450345439836,9.992773460114002,1.7590537071228027,0.0946182012557983,-0.5032767653465271
4.539995361328125,0.858166542995721,-0.0703607264924794,11.03294419133663,1.484253168106079,-0.0054382346570491,-0.3524144291877746
4.550021240234375,0.5365121842771768,-0.5695409589800984,11.703961292171478,1.056739091873169,-0.0536726117134094,-0.1942732781171798
4.560047119140625,0.2762095353610813,-0.8244225326955318,12.069991237580776,0.5489515662193298,-0.1257819086313247,-0.0539354644715786
4.5700732421875,-0.0594784632764756,-0.7570029742214829,11.999974867546555,0.0328343734145164,-0.2837531864643097,0.0170263275504112
4.58009912109375,-0.4775340717382729,-0.5300730911403894,11.29462295091152,-0.356351763010025,-0.4441348016262054,0.0075753950513899
4.590125244140625,-0.9074106125056745,-0.3979555811759084,10.103853661942482,-0.5541353821754456,-0.5630550384521484,-0.0599746219813823
4.600151123046875,-1.1568588360607623,-0.3798258310496807,8.712377676233649,-0.5728075504302979,-0.5618382096290588,-0.1635762304067611
4.610176025390625,-1.1691918826069685,-0.3294510770093649,7.45015876955688,-0.4097387194633484,-0.4510086476802826,-0.2711341083049774
4.6202021484375,-0.8505534376434981,-0.3373204952102154,6.493476468881965,-0.0886090621352195,-0.3109622299671173,-0.3195562362670898
4.63022802734375,-0.1649734853837639,-0.185125973509252,5.975727437263727,0.3286798000335693,-0.1530642211437225,-0.2725565135478973
4.640254150390625,0.5512662474252283,0.0117483419934287,5.963389933738112,0.765664279460907,-0.0424053370952606,-0.158428356051445
4.6502802734375,1.0965971134521066,0.1442457546535879,6.60628042576313,1.1114726066589355,-0.0130077693611383,0.0031251220498234
4.660306396484375,1.1098582346286625,0.2923282379258424,7.807550650480389,1.288220763206482,-0.0327298864722251,0.1568565964698791
4.670332275390625,0.7308136170845478,0.411633247264102,9.1689272660017,1.2899593114852903,-0.1024096310138702,0.2675356864929199
4.680358154296875,0.2128182094898074,0.497713594001159,10.38672250906229,1.1456416845321655,-0.202051505446434,0.3207884132862091
4.69038427734375,-0.385717665567249,0.6510326627526432,11.33625026180744,0.8664271235466003,-0.2564391195774078,0.3228132128715515
4.70041015625,-1.0377505183383822,0.7378080790817737,11.703552126848695,0.5240558981895447,-0.1994145512580871,0.2571174502372741
4.710436279296875,-1.6257099812582134,0.5893338200129569,11.393576661616564,0.2017431259155273,-0.1204262748360633,0.0931940078735351
4.720462158203125,-2.0179476962439717,0.3945806248500943,10.395215612119436,-0.0342814847826957,-0.0647447183728218,-0.1168181151151657
4.73048828125,-1.6933531924203038,0.3158130122791975,8.884517034658789,-0.1774527579545974,-0.0467899516224861,-0.2827959060668945
4.74051416015625,-0.8805019281182438,0.536594017341733,7.382699098268151,-0.218240812420845,-0.0498047806322574,-0.358037531375885
4.7505400390625,-0.0550992983441799,0.7026564670059829,6.012973172074556,-0.1913953572511673,0.031657587736845,-0.3769140243530273
4.76056640625,0.4279205843940377,0.5757629753001033,4.447204449298978,-0.1942134797573089,0.3104695677757263,-0.386068731546402
4.77059228515625,0.2899493799652904,0.0382883026663214,2.235030504375696,-0.2852688133716583,0.8013367652893066,-0.474495530128479
4.780618408203125,0.205455133375898,-0.9817891963373868,-0.6452344248026609,-0.4550014436244964,1.231909990310669,-0.6268625259399414
4.790644287109375,1.2305965647056698,-1.9592532229520376,-3.652636372119188,-0.6831502318382263,1.435511350631714,-0.6347202062606812
4.80067041015625,3.4520188149675723,-2.200230555281788,-7.259485391053557,-1.0148591995239258,1.555324912071228,-0.3684049248695373
4.8106962890625,6.239379542738199,-1.1988848639506846,-11.590680949950215,-1.3063137531280518,1.0900739431381226,0.1145207211375236
4.820722412109375,7.849383128559589,1.247653497968614,-15.167760853564738,-1.4053308963775637,0.1811917722225189,0.5586097836494446
4.830748291015625,6.540097350281477,2.7478783199489114,-19.00534579679966,-1.326655030250549,-0.4868528842926025,0.7575851678848267
4.840774169921875,2.9565935510993,2.1553417583718897,-22.37133146517277,-1.0930317640304563,-0.6770190596580505,0.6957692503929138
4.85079931640625,0.1544850437909364,1.64099113702029,-24.037270288705823,-0.8170581459999084,-0.4883950352668762,0.534208357334137
4.8608251953125,-1.0081516450189054,2.190890333876013,-23.949683190667628,-0.5268243551254272,-0.0762017518281936,0.4011217951774597
4.870851318359375,-1.609089685846865,2.2327210583895445,-23.16161908855438,-0.2554799020290375,0.3708324730396271,0.2706793546676636
4.880877197265625,-1.404745655518025,2.042407891500741,-21.692243286085127,-0.1040088012814521,0.6333189010620117,0.1711670905351638
4.8909033203125,-0.9770612179674208,1.9357954827360808,-19.85079358186721,-0.0845773145556449,0.7790973782539368,0.1031390503048896
4.900929443359375,-1.0670169448330995,1.5038926968380808,-18.245342252522708,-0.0806069672107696,0.8423706293106079,-0.0590162426233291
4.910955322265625,-1.2506383589982986,0.963598728999868,-16.713673952269552,0.0389740243554115,0.8698450922966003,-0.2715599536895752
4.9209814453125,-0.6961953812330961,0.3447138203319161,-14.68185014475584,0.2533088624477386,0.8650309443473816,-0.4440324306488037
4.93100732421875,0.6424960858799517,-0.1953921689198352,-11.899268760216236,0.4828563034534454,0.7853015065193176,-0.4496104121208191
4.941033447265625,1.8917295465163888,-0.6230651169620454,-8.393858839061856,0.5833501815795898,0.6307005882263184,-0.2999982237815857
4.951059326171875,2.162667717345804,-1.1470349227912724,-4.58451974710226,0.5095710158348083,0.3547475934028625,-0.1190044581890106
4.961085205078125,1.5478779690369964,-1.6901779233850538,-1.1366121668457985,0.3275617659091949,0.2657004594802856,0.048957135528326
4.971111328125,0.4041191453069448,-2.006271871497482,1.4209370579928158,0.0749868005514144,0.3019239604473114,0.1669836491346359
4.981136962890625,-0.6662447718665003,-2.02292533852607,3.4370407338052984,-0.166148155927658,0.0852712467312812,0.2339745014905929
4.9911630859375,-0.6234232827499508,-1.7129598101660608,4.549043944573402,-0.3274201154708862,-0.2766100168228149,0.3435523808002472
5.001189208984375,-0.4063783224105834,-1.2454552572719753,4.985382520961761,-0.3806624412536621,-0.6663190722465515,0.5148023366928101
5.01121533203125,-0.9183997701622544,-0.9635435647465288,5.429178427618742,-0.3687775433063507,-0.8551174402236938,0.6521399617195129
5.0212412109375,-1.8574886926099656,-0.6144516023956239,5.609280727747082,-0.283403068780899,-0.8295028209686279,0.6570734977722168
5.03126708984375,-3.0651071173101663,-0.1640294459993019,5.679827843657136,-0.0502912513911724,-0.7761130928993225,0.4959375858306885
5.041293212890625,-3.9105402893304815,0.1684002449620515,5.824989178785682,0.2954570353031158,-0.695594310760498,0.2368341088294983
5.051319091796875,-4.14822033368051,0.3242851456135511,6.3337891802728175,0.6504929065704346,-0.5781003832817078,-0.0182165578007698
5.06134521484375,-3.7804219172939657,0.2807774277985095,7.423184253391623,0.9332517385482788,-0.3816222846508026,-0.1629993468523025
5.07137109375,-3.078987174102664,0.3086952526958659,8.699609964597224,1.1139740943908691,-0.1068746224045753,-0.1843352615833282
5.081397216796875,-2.473692545500397,0.2909144256051629,9.953843133217095,1.155140995979309,0.113714151084423,-0.1366154998540878
5.091422119140625,-2.087903860523552,0.5147212812948971,11.027602830308677,1.054865479469299,0.1863279044628143,-0.087112933397293
5.101447998046875,-1.979040750222653,0.7636420469097792,11.837198380750417,0.8122006058692932,0.1050727888941764,-0.0869184806942939
5.11147412109375,-2.0319166003637013,0.9250085207775236,12.289800694197416,0.4409594535827636,-0.0869467183947563,-0.1399343013763427
5.1215,-2.132874052106589,1.0353863464903086,12.343063497829435,0.0434703268110752,-0.2757732570171356,-0.2313689440488815
5.1315263671875,-2.2777328971572217,1.0095439030949025,11.752485961365698,-0.2766549289226532,-0.3565386533737182,-0.3506900370121002
5.14155224609375,-2.178823610115796,0.8159477690126746,10.523135889589788,-0.4200708866119385,-0.3372583985328674,-0.4650305807590484
5.151578125,-1.6422091345079242,0.6264742678184062,9.233107184967398,-0.3847038447856903,-0.3149213790893554,-0.501948893070221
5.161604248046875,-0.7367690914228558,0.7671225094366818,8.292549505141377,-0.191165491938591,-0.2521812915802002,-0.4588066041469574
5.171630126953125,0.19022125082165,0.8428664633374661,7.67144180585742,0.1108606904745101,-0.2575797736644745,-0.3243489265441894
5.18165625,0.7269179978854954,0.9753189774099736,7.462508548042178,0.4188777506351471,-0.2580820620059967,-0.1546623706817627
5.19168212890625,0.6474043161876499,1.1068337722409516,7.788463672694563,0.6124144792556763,-0.2413848340511322,-0.0409557707607746
5.201708251953125,0.2737526437282562,0.971554291114211,8.494387836259603,0.667977511882782,-0.2598027884960174,0.0365655049681663
5.211734130859375,-0.0185189686395227,1.0179408523011952,9.039536915978788,0.6280298233032227,-0.3418704867362976,0.0994874835014343
5.221760009765625,-0.3737028181247413,1.0789056816779077,9.460206798592209,0.515574038028717,-0.4825547039508819,0.0725048780441284
5.2317861328125,-0.7718043105773628,1.016447033546865,9.744519414779544,0.3656290173530578,-0.5943595170974731,0.0124892117455601
5.241812255859375,-0.8034667653631419,1.0394457779489457,9.705750415924191,0.2316983342170715,-0.6052842140197754,0.0167240928858518
5.25183837890625,-0.5941618977565318,1.0738736788600682,9.242917800363898,0.1952431201934814,-0.5109497308731079,0.0672927349805831
5.2618642578125,-0.5444366936661302,1.095795222484693,8.421673897704482,0.1675116270780563,-0.3555861413478851,0.0570932850241661
5.271890380859375,-1.0755600975770503,1.2558730447813868,7.869042353275418,0.1928159147500991,-0.3263483643531799,-0.0830859243869781
5.281916259765625,-1.5312398457080123,1.427371474954486,7.313840081575512,0.2713838517665863,-0.1572440266609192,-0.2521932721138
5.2919423828125,-1.470871447854489,1.2412103131785988,6.395028369611501,0.3275334239006042,0.1050136983394622,-0.3779242932796478
5.30196826171875,-1.2452761013127862,1.13293493963778,5.552725896832347,0.3152454197406769,0.3609992861747741,-0.4920810759067535
5.311994140625,-1.0178278934460132,0.8276267355643212,4.5890936308890575,0.1586789935827255,0.606465220451355,-0.6039589047431946
5.322020263671875,-0.5882575690835714,0.1365349610805511,3.198881966027617,-0.0630974620580673,0.8449147939682007,-0.6970781087875366
5.332046142578125,0.2496361473426222,-0.5181992596037686,1.320686877736449,-0.2894909083843231,0.9921085238456726,-0.7287217974662781
5.3420712890625,1.5638820322461426,-1.0256490885909646,-1.074042021164298,-0.4374184012413025,0.9935895800590516,-0.5921661257743835
5.35209716796875,3.374993150693178,-1.454243992049992,-4.456662013474107,-0.4084783494472503,1.0081465244293213,-0.2677127122879028
5.362123046875,4.691448089948296,-1.7303174799412488,-8.273613334003091,-0.3941755890846252,1.0395331382751465,0.0830269381403923
5.3721494140625,5.576097420069575,-1.3395381470702588,-11.231492248737812,-0.5760955214500427,0.8547868728637695,0.403652161359787
5.38217529296875,6.188021111422777,-0.0600566284906119,-13.196142800688742,-0.8351271152496338,0.3377325236797333,0.6624464392662048
5.392201416015625,5.888901386725903,0.8238111958641559,-14.489897832357885,-1.1001269817352295,-0.3263407051563263,0.8248528838157654
5.402227294921875,4.5919384989261625,0.6552217119403183,-15.426909802401063,-1.3452004194259644,-0.7424157857894897,0.9740816950798036
5.41225341796875,3.312304931589961,0.84040438407287,-16.023974362796544,-1.6184948682785034,-0.7934613823890686,1.0943799018859863
5.422279296875,1.7399517158575355,1.9798878685712813,-16.486701764416694,-1.818764328956604,-0.611120879650116,1.050409913063049
5.43230517578125,-0.620887480662018,2.770544325265288,-17.57861086618304,-1.8454406261444087,-0.1987008154392242,0.8028504252433777
5.442331298828125,-2.489692955447733,3.43428792796582,-19.206217913234237,-1.6414719820022583,0.2924061119556427,0.4188129007816314
