seconds_elapsed,ax,ay,az,gx,gy,gz
0.073517333984375,0.8422306496519595,-0.1420368098998442,0.2422995208442211,-0.0724368542432785,0.0021573181729763,0.0637581348419189
0.083543212890625,0.8764542601626366,-0.1896682931140065,0.1777156972527503,0.0489963591098785,-0.0816282778978347,0.0862271562218666
0.0935693359375,0.9696726420860736,-0.2048014552401378,0.297556128641963,0.1767194271087646,-0.1356361210346222,0.1316377818584442
0.10359521484375,0.9756119690071792,-0.1242601840602233,0.5973918926537036,0.2584546208381653,-0.1657785326242447,0.1860574930906295
0.11362109375,0.8781154713731258,0.0189914084568619,1.0564034886211155,0.2716723978519439,-0.1510728299617767,0.2355107963085174
0.123647216796875,0.7446952082470059,0.0671077891111373,1.5259920081824063,0.2537690997123718,-0.119928665459156,0.2646822333335876
0.13367333984375,0.6109107879836112,-0.0167270802540704,1.8165087397068735,0.2420019209384918,-0.0802204012870788,0.2883585393428802
0.143699462890625,0.5706514409726485,-0.0922599121548235,1.934805448785424,0.2421102076768875,-0.0349525026977062,0.3189278542995453
0.153725341796875,0.6179255621165036,-0.0443301401138305,2.0361714813292027,0.2489630579948425,0.0359269976615905,0.355331689119339
0.16375146484375,0.6565590980239212,0.0765502287823706,2.098764423364401,0.2526139616966247,0.1304190456867218,0.3816242814064026
0.17377734375,0.6432748151674866,0.225552822574228,2.16187758988142,0.2323187887668609,0.2046930193901062,0.3928266167640686
0.18380224609375,0.6255529151897877,0.3444619644626975,2.3377286623060702,0.1859016269445419,0.2575652599334717,0.384298712015152
0.193828369140625,0.5549178652679547,0.3570071193896234,2.427831542557478,0.1396158933639526,0.3170456290245056,0.3653684556484222
0.203854248046875,0.3755794256515801,0.3591851210158318,2.324248418486118,0.0970262438058853,0.3660069108009338,0.3600808978080749
0.21388037109375,0.330448892407678,0.4286371351655572,2.2660224394887685,0.0630901157855987,0.3867790102958679,0.3999694585800171
0.22390625,0.4838234542060643,0.5249206037480384,2.3100626567453144,0.0488920733332634,0.351698100566864,0.4867594540119171
0.23393212890625,0.7698413399413228,0.6155040340580046,2.3823002099603414,0.0635905936360359,0.2751721441745758,0.5885856747627258
0.243958251953125,0.8569464996814727,0.7140927108429372,2.36327986766994,0.081691212952137,0.1550840735435485,0.6791508197784424
0.253984130859375,0.8686153832305222,0.7284578477386385,2.499583358082175,0.0906295776367187,-0.0004048538394272,0.7203344702720642
0.264010498046875,0.5999816899511963,0.6062470339562743,2.6700129899799823,0.0783962905406951,-0.1852436065673828,0.6937189698219299
0.274036376953125,0.2774520827680826,0.3968625983074307,2.777340561276674,0.0347686521708965,-0.3941480815410614,0.6155245304107666
0.2840625,0.078144740565354,0.1525369053978472,2.8505846611857413,-0.021555433049798,-0.5665323138237,0.5004703998565674
0.29408740234375,-0.1935609714373014,0.0028438451237976,2.7427725212425,-0.0457851402461528,-0.7381877303123474,0.3767770230770111
0.30411328125,-0.3712153121579438,-0.166473149356991,2.442729836481809,-0.009701857343316,-0.8632213473320007,0.2847955226898193
0.314139404296875,-0.3284709799308329,-0.3134467215392738,1.7771330071300266,0.0639206990599632,-0.9195032715797424,0.2349688559770584
0.324165283203125,-0.3605792057227343,-0.421065165541321,0.8796066597789526,0.1491479128599167,-0.8811360597610474,0.2023756355047226
0.33419140625,-0.7321557524085044,-0.4585826299656182,-0.3303460530877113,0.2346119433641433,-0.752125084400177,0.1723807156085968
0.34421728515625,-1.3128908170327545,-0.4631104095883667,-1.8924901556253435,0.3204878568649292,-0.585188090801239,0.1766678988933563
0.3542431640625,-1.563398048121482,-0.3747681823339313,-3.5973610596209764,0.3770086467266083,-0.404217004776001,0.2363424152135849
0.36427001953125,-1.367096162211895,-0.3290290522050112,-5.177377503457665,0.3542706072330475,-0.0943520814180374,0.317721426486969
0.3742958984375,-1.0236842913240194,-0.5239510280635208,-6.642006988182663,0.2507551610469818,0.3362842500209808,0.3727362155914306
0.384322021484375,-0.8775664591882377,-1.0764209521900865,-8.291522500181198,0.0672972276806831,0.7335873246192932,0.3911413848400116
0.394347900390625,-0.7158430616416037,-1.7714830185443162,-9.79021733611524,-0.1894046068191528,0.9091817736625672,0.4035248160362243
0.4043740234375,-0.1718724145846441,-2.694621946057677,-10.898429337906837,-0.4421637058258056,0.7703958749771118,0.4219864904880523
0.41439990234375,0.1940322056782431,-3.546128008250892,-11.9087356767416,-0.5452410578727722,0.4596899151802063,0.4176588654518127
0.4244248046875,-0.0953184594752267,-3.8398093412861223,-12.998109122550488,-0.4674175083637237,0.1826628148555755,0.3428672850131988
0.434450927734375,-0.8260790677309036,-3.578127951362729,-13.781319354891776,-0.2731569409370422,0.0544662326574325,0.1588484644889831
0.444476806640625,-1.6978076876111328,-3.0278216350108385,-13.784139088487624,-0.0626076385378837,0.0220248214900493,-0.1026895940303802
0.4545029296875,-2.355060028596222,-2.541706343540549,-13.032955979526042,0.091824010014534,0.1231663525104522,-0.3586449325084686
0.46452880859375,-2.502905195981264,-1.964403299191594,-11.79548806774616,0.1516661345958709,0.3498903810977936,-0.5549529194831848
0.47455517578125,-2.4726301769658923,-1.2333458634138106,-10.467778159505128,0.1123600006103515,0.6552364826202393,-0.6979371905326843
0.4845810546875,-2.5213380937725303,-0.7633380224619061,-9.23869579875469,0.0072123371064662,0.9055733680725098,-0.833828330039978
0.49460693359375,-2.5841902712658045,-0.6295561594817787,-8.127095323568582,-0.0820488333702087,1.035572171211243,-0.9691669940948486
0.504633056640625,-2.4595766341254115,-0.608769611236453,-7.043274251189827,-0.1351631432771682,1.0150303840637207,-1.044477939605713
0.514658935546875,-2.0344129472240806,-0.3102473409760743,-5.551771957108378,-0.1641124933958053,0.938945472240448,-1.068457007408142
0.52468505859375,-1.6807969315774738,0.1616795584049075,-3.714425596556067,-0.1960165947675705,0.9483827948570251,-1.0955482721328735
0.5347109375,-1.4660812909685077,0.034116862200573,-2.015118171906471,-0.2189815640449524,0.8707036972045898,-1.0969862937927246
0.54473583984375,-0.8267771329976618,-0.9244577550269664,-0.2445166123718023,-0.230686068534851,0.5967069864273071,-0.9658107161521912
0.554761962890625,0.2493910865403711,-1.7102280471146103,1.9256565121680496,-0.2640115022659302,0.1342426985502243,-0.7303555607795715
0.564787841796875,0.446435570978187,-1.48960815089792,4.123701978495717,-0.2643617391586303,-0.283113420009613,-0.4845781326293945
0.57481396484375,-0.0562989929901435,-0.9705636726416648,5.563339645305276,-0.165519580245018,-0.5661277770996094,-0.3232022821903229
0.58483984375,-0.1057669343838468,-0.3926355186643078,6.47397564959824,-0.0139442160725593,-0.7506313920021057,-0.2858792841434479
0.594865966796875,-0.3391259737296029,-0.0976957465332001,7.408689279571175,0.1749383509159088,-0.7918627262115479,-0.3642076551914215
0.60489208984375,-0.6451127711843699,0.2508207540173083,8.072668152332305,0.3236367106437683,-0.7502683997154236,-0.4669156670570373
0.61491796875,-0.5911456186752766,0.8242576244574039,9.013222909548878,0.4064266681671142,-0.6206926107406616,-0.5113744139671326
0.624944091796875,-0.2689059708820656,0.944732115966454,9.784112589499356,0.4000556766986847,-0.4234223365783691,-0.4291073977947235
0.634969970703125,0.3589551116522401,0.9065950583390892,10.498107831317183,0.2827522158622741,-0.1178296580910682,-0.2410916984081268
0.64499609375,0.8889978076543659,0.9809086871758104,11.278500668150183,0.1032075136899948,0.2735961079597473,-0.0223309528082609
0.65502099609375,0.9757149909902364,1.2035149349041283,11.66346912278533,-0.0953726917505264,0.6246124505996704,0.1683300733566284
0.665046875,1.0050721645083278,1.5255425108492373,11.699883667469024,-0.2856249511241913,0.8944112658500671,0.2730382978916168
0.675072998046875,0.9834488001126797,1.7332536795236169,11.655700826871394,-0.4468601644039154,1.1251041889190674,0.2461614161729812
0.685098876953125,0.9340150532495228,1.826060704167187,11.437683514368532,-0.5615503787994385,1.321366548538208,0.1045619547367096
0.695125,0.5293135780099779,2.0839795266866683,11.002392401206492,-0.6422681212425232,1.4836961030960083,-0.074796088039875
0.70515087890625,0.0905654562618583,2.508947983276844,10.579242976737024,-0.6467757225036621,1.6702284812927246,-0.3133690357208252
0.715177001953125,-0.5457507719393819,2.6504259537175296,9.914777197241785,-0.5253022909164429,1.8232814073562624,-0.6279677152633667
0.725202880859375,-1.6599134257636965,2.369679359448701,9.154429954093692,-0.2698248028755188,1.819941520690918,-0.8690314888954163
0.73522900390625,-1.6519707961961625,2.0411729428783056,8.424840252780914,0.041112296283245,1.564379096031189,-0.9345707893371582
0.745255126953125,-0.6514234887011349,1.9388802970089016,8.065102685514091,0.355069100856781,1.055313229560852,-0.8571662902832031
0.75528076171875,0.1770084257662296,1.3637243476912375,7.675887679350375,0.6136165261268616,0.4187176525592804,-0.7105845808982849
0.765306884765625,0.257478969797492,0.5508813762934878,7.312323831793665,0.7255393862724304,-0.2770387530326843,-0.5107404589653015
0.775332763671875,0.1811268208704888,0.158489858985506,7.413220493260026,0.6827338337898254,-0.7329117655754089,-0.3001235425472259
0.78535791015625,0.0214038764260709,0.3004141484215855,7.431615981650352,0.5530173182487488,-0.9405243396759032,-0.0939389467239379
0.795384033203125,-0.1978425394803285,0.3897152838360518,7.626323730236291,0.4153111279010772,-1.0296739339828491,0.0830901563167572
0.805409912109375,-0.191765922980383,0.1561654711585491,7.856511957526206,0.3198502361774444,-0.9365938901901244,0.2072961330413818
0.81543603515625,-0.2295970564637333,-0.0865072669122368,7.654960626655817,0.2431163042783737,-0.6479647755622864,0.2579710185527801
0.8254619140625,-0.5630873989265411,0.1218506752330809,7.502188816523551,0.1691761165857315,-0.246380016207695,0.2247162759304046
0.835488037109375,-0.5881869150001555,0.4034360584136098,7.164024198639392,0.0738980770111084,-0.0817511305212974,0.1507152915000915
0.845513916015625,-0.4102325136207044,0.1602739293906837,6.455334077492356,-0.0804881453514099,-0.1967305690050125,0.0751690044999122
0.855539794921875,-0.1396248899199068,-0.2981025835435837,5.689542597463727,-0.2623703479766845,-0.402068555355072,-0.0527071990072727
0.86556591796875,-0.0890408770430833,-0.6596053338520228,4.718288166078925,-0.3419760465621948,-0.5112382769584656,-0.2510289251804352
0.875591796875,-0.3418205100432038,-0.9833481892824172,3.310413418754935,-0.2415626347064972,-0.597048819065094,-0.4504232704639435
0.885617919921875,-0.5157025474172086,-1.0891772656496614,1.4104507352918385,0.0337652787566185,-0.7241710424423218,-0.6052129864692688
0.89564306640625,-0.5869063736703246,-0.6955287340179085,-0.9435796579957008,0.4145182073116302,-0.5612385869026184,-0.6148555278778076
0.9056689453125,-0.1791997252654284,-0.0347044528301805,-4.005031759929657,0.7707993984222412,0.136021688580513,-0.4758005738258362
0.915695068359375,0.3629314679373056,0.5555617526620626,-7.543278951802849,0.8337154984474182,0.9484962224960328,-0.2557177245616913
0.925720947265625,0.5126758200071752,0.7207741613682359,-10.535817676508426,0.4542909860610962,1.6078550815582275,-0.1687281429767608
0.9357470703125,0.1761683947455138,-0.0648084261275827,-13.16438923355341,-0.1238298714160919,1.8226944208145144,-0.2663710713386535
0.94577294921875,0.2602105867184698,-1.740692158961296,-15.623330200123783,-0.5865013003349304,1.4682278633117676,-0.4264045059680938
0.955799072265625,0.7797144991800189,-2.4731033474355937,-17.881476207149028,-0.7709651589393616,0.9130650758743286,-0.5827445983886719
0.96582470703125,0.6759034115716814,-1.6951714938886462,-20.067323870682717,-0.6554346680641174,0.3910017013549804,-0.695536732673645
0.9758505859375,0.633602146936953,-1.3747580751419066,-21.66514017510414,-0.3543571233749389,-0.1167547106742858,-0.8018272519111633
0.985876708984375,0.4321547148324549,-1.9919108993202448,-22.59275770933628,-0.0109008159488439,-0.7141132950782776,-0.9003998637199402
0.99590283203125,-0.8396100188247859,-2.0015287686236203,-22.29508409179449,0.2897511422634125,-1.1087154150009155,-0.8830714821815491
1.005928955078125,-1.0903455057114362,-1.575960592574626,-21.045710638165477,0.4872940480709076,-1.30149507522583,-0.7084394693374634
1.0159541015625,-0.3920985987760126,-1.5121902773231266,-18.87359806999564,0.5661017894744873,-1.4234148263931274,-0.4637807607650757
1.02597998046875,0.3840362883515655,-1.8157570445567368,-15.982172864377498,0.5158113837242126,-1.3489136695861816,-0.228302776813507
1.036006103515625,0.9783714968483894,-1.9920865481480956,-12.732249862420558,0.3281631767749786,-1.2503372430801392,0.0365925356745719
1.046031982421875,1.5354253146991133,-2.0952876871645447,-9.26919030573964,0.0450045429170131,-1.1589511632919312,0.3357114791870117
1.056057861328125,1.9588690459400413,-2.00990262921527,-6.02126578412354,-0.2576615810394287,-0.9482082724571228,0.5873626470565796
1.066083740234375,1.6358838770091533,-1.63231376343742,-3.174869222277403,-0.4705840945243835,-0.6494567394256592,0.750413179397583
1.07610986328125,1.2381301750808953,-1.172977757821232,-0.9485860879808664,-0.5540931224822998,-0.2670068740844726,0.8155537843704224
1.0861357421875,1.076434396193549,-0.6102022013228386,0.7683540239930152,-0.5265347361564636,0.1697141230106353,0.7701694965362549
1.09616162109375,0.819505096168071,0.1759128125492483,2.3500363552153107,-0.4383657276630401,0.5095377564430237,0.601822555065155
1.106187744140625,0.6099623281523585,0.8929030714645981,3.842211433991789,-0.3158480823040008,0.6903476119041443,0.3379495441913605
1.116213623046875,0.7666125140879303,1.0848385788582264,4.994993814393878,-0.1768465340137481,0.6175122857093811,0.0385018661618232
1.126239990234375,0.6965081004440784,1.326075292776525,5.880992221036553,-0.0465800687670707,0.3434226512908935,-0.2113787531852722
1.136264892578125,0.649506987555325,1.6562709776081144,6.702167734634876,0.0870778560638427,0.0761943906545639,-0.4190238416194916
1.146290771484375,0.4437446879263967,1.9487879430390893,7.219805707094073,0.2244112640619278,-0.1991685926914215,-0.5898244976997375
1.15631689453125,0.2148996188737452,1.8819024183765047,7.655391419288516,0.3621315658092499,-0.4452531933784485,-0.7607320547103882
1.1663427734375,-0.2985351297419518,1.766073268455267,8.036004601323604,0.5007820129394531,-0.600884199142456,-0.928350269794464
1.176368896484375,-0.9744897600442172,1.6444155585110187,8.320422431451082,0.6174007654190063,-0.6246867179870605,-1.0352606773376465
1.186394775390625,-1.271748513174802,1.452901053008437,8.449888769319653,0.6571431159973145,-0.5257291197776794,-1.0519840717315674
1.1964208984375,-1.4072820421278476,1.3070777468398214,8.737633698043227,0.5826252102851868,-0.3061259388923645,-1.008747935295105
1.20644677734375,-1.6354904937773942,1.2846141322277485,9.10665698004961,0.3820416927337646,-0.0638896450400352,-0.9416958093643188
1.21647265625,-1.8939535061761736,1.0904689128953964,9.412809672123194,0.1352505534887313,0.0729166716337204,-0.7885600924491882
1.226498779296875,-1.7651799728773534,0.4886932521995156,9.238489462527632,-0.1262282431125641,0.1145166903734207,-0.5721812844276428
1.236524658203125,-1.5168091692954302,0.5807955626398325,8.97890153775215,-0.3302093148231506,0.0868344604969024,-0.310780793428421
1.246550048828125,-1.291856942962855,0.5652442116342484,8.539170980837941,-0.4116107523441314,0.0710328668355941,-0.0705306529998779
1.25657568359375,-1.4382453356683254,0.4560832874305546,7.949666042041778,-0.3812776207923889,0.0904901772737503,0.1012200638651847
1.2666015625,-1.693584809219092,0.6136574563432484,7.548865227502584,-0.2913221418857574,0.1054693087935447,0.2080650478601455
1.2766279296875,-1.8395529306858776,0.8760760745000093,7.362181210896372,-0.2048610150814056,0.0932259559631347,0.2428880184888839
1.28665380859375,-1.774163635930419,1.2061708562403917,7.430880653113126,-0.1637228429317474,0.0607462339103221,0.2069115936756134
1.296679931640625,-1.6645127362526952,1.4605742179848251,7.602911290466785,-0.1611981689929962,0.0108567038550972,0.1213532760739326
1.306705810546875,-1.6002578523546456,1.5498773261606693,7.70616591323614,-0.16282519698143,-0.1205077469348907,0.0068885991349816
1.31673193359375,-1.6138455020718276,1.4877001253195106,7.685383237448335,-0.1346334964036941,-0.3694395124912262,-0.0776169672608375
1.3267578125,-1.2328633405938745,1.1528889825817197,7.458599850165844,-0.0755358189344406,-0.6382281184196472,-0.08099065721035
1.33678369140625,-0.6047557724852115,0.7408928933545946,7.00899087331593,-0.0216648690402507,-0.8692739009857178,-0.0022106238175183
1.346809814453125,-0.0272436154302209,0.5471513594523072,6.727796096888184,0.0059980223886668,-1.0157734155654907,0.1517999768257141
1.356835693359375,0.706826080840826,0.3731976816141977,6.718518565455079,-0.0075582666322588,-1.0306110382080078,0.3346810936927795
1.36686083984375,1.243754590833932,0.2345061635542661,6.636375119775534,-0.078000009059906,-0.9400809407234192,0.5035004615783691
1.37688671875,1.4904749968603253,0.2052030217783525,6.404287196344137,-0.2088634818792343,-0.8232467174530029,0.6142203211784363
1.38691259765625,1.622704515831917,0.1371561982514336,5.864834866961837,-0.3483833968639374,-0.7298392057418823,0.6363633871078491
1.396938720703125,1.620166083395481,-0.0054074850667268,4.898623105919361,-0.4364812970161438,-0.6167057752609253,0.5625166296958923
1.40696484375,1.4202088898487388,-0.2543721994211897,3.128700760820508,-0.4191084802150726,-0.5504770278930664,0.4243395924568176
1.416990966796875,1.4020859347894787,-0.5631687570670619,0.75534607385993,-0.2442541420459747,-0.4819903969764709,0.3040747046470642
1.427016845703125,1.412435333237797,-0.6173749424964189,-2.138645767375827,0.0248535834252834,-0.2746086716651916,0.2866916060447693
1.43704296875,1.03587763713859,0.2856915763903409,-5.404571225106716,0.1924556344747543,0.1997277438640594,0.4488229751586914
1.44706884765625,0.5635245482347905,1.8741447899870571,-8.662455999723075,0.0859792828559875,1.019849419593811,0.6324273943901062
1.4570947265625,-0.3627102994672954,2.7545217034861444,-11.982789923989772,-0.3020043969154358,1.6805500984191897,0.6900147795677185
1.467120849609375,-0.921176322203502,1.5575241876520216,-14.786217697203158,-0.8266630172729492,1.6903159618377686,0.6322513818740845
1.477146728515625,-0.0825206814941018,-0.9266428439810872,-17.339081979095933,-1.243833065032959,0.887377917766571,0.5469558835029602
1.487171875,1.173782498332858,-2.78218829356879,-19.495621715080738,-1.2514402866363523,-0.1940807253122329,0.4339364767074585
1.49719775390625,0.5017599467825145,-2.298681723292172,-20.98982566933632,-0.8110315799713135,-0.8730459213256836,0.2981980741024017
1.5072236328125,-1.0285467097286134,-0.3484271782992407,-22.17193468198776,-0.2153321504592895,-1.1610163450241089,0.0846751481294632
1.517249755859375,-2.273166466024518,0.9173000652920454,-21.22284648970365,0.2586231827735901,-1.1597952842712402,-0.2071433812379837
1.527275634765625,-3.2190994091480967,0.9291311536654828,-18.67938131979704,0.4598176181316376,-0.7725858092308044,-0.5675196051597595
1.537302001953125,-4.018031819017232,0.9534338933382184,-16.052355238628387,0.4488147497177124,-0.1668924391269683,-0.9030190706253052
1.547327880859375,-4.062228103618324,0.7142905715025961,-14.229461766320464,0.3382873833179474,0.2452890574932098,-0.992803156375885
1.55735400390625,-2.3535922941312197,-0.2501794056401588,-12.9992758282423,0.1896390467882156,0.2686707973480224,-0.7578372359275818
1.5673798828125,0.0641223526927176,-1.180857405155152,-11.253057599335907,0.0077251745387911,0.0315355956554412,-0.2792894244194031
1.577406005859375,1.9662660243235528,-1.744102113535255,-8.96707665992379,-0.247559055685997,-0.2548474371433258,0.2715060710906982
1.587431884765625,2.8756387306824327,-2.107629720734805,-5.927704872372746,-0.4722294509410858,-0.384796530008316,0.6850779056549072
1.597456787109375,3.121324386833608,-2.246447678185999,-2.639811328461766,-0.6009187698364258,-0.3923676311969757,0.8661161661148071
1.60748291015625,2.823641709202528,-1.9877485189437865,0.5355272648930549,-0.6074014902114868,-0.2635558843612671,0.8023135662078857
1.6175087890625,2.430500761766732,-1.4499226217195391,3.2809272120296957,-0.5350409746170044,-0.0004675341770052,0.4983398020267486
1.62753466796875,2.0328411678627134,-0.7496683204844593,5.5175236505478615,-0.3948894441127777,0.2205804586410522,0.0405484288930892
1.637560791015625,1.7537775582447648,-0.4659726671516895,7.264554364880919,-0.1583064496517181,0.410456120967865,-0.4158965945243835
1.647586669921875,1.5119791187904774,-0.3754747231680899,8.316896595412492,0.1622219234704971,0.540208101272583,-0.722511351108551
1.65761279296875,1.307614776325971,-0.0756478183162398,8.9140219460845,0.4922019839286804,0.5861436128616333,-0.835096001625061
1.667638916015625,1.271369742990285,0.0487808633118402,9.104389619639516,0.7148160338401794,0.5769880414009094,-0.800859272480011
1.6776650390625,0.9856546395938844,-0.2147864773554727,9.387370694962144,0.7517178654670715,0.5057681798934937,-0.6579292416572571
1.68769091796875,0.5513314216159284,-0.3869159354411065,9.967732542359828,0.6149720549583435,0.4383938312530517,-0.4614629745483398
1.697717041015625,0.0728289432369172,-0.376457596725598,10.387252085894346,0.4142142534255981,0.3879788517951965,-0.2971312999725342
1.707742919921875,-0.5090889744963497,-0.3174862061884254,10.574459249591827,0.2518656551837921,0.3278131186962127,-0.2108516693115234
1.717767822265625,-1.319674485823512,0.0116158016549423,10.504000981009003,0.1834700852632522,0.2761224806308746,-0.1654202789068222
1.7277939453125,-1.823497429550439,0.5008383018929511,10.0737180513978,0.2072342634201049,0.2074725925922393,-0.1101972311735153
1.73781982421875,-2.0483638772957025,0.9939374609012156,9.64963689903617,0.2829631268978119,0.1565359085798263,-0.0496750362217426
1.747845703125,-2.335217848528921,1.4657187412664294,9.355215561288595,0.3574854731559753,0.1266067922115326,-0.0134515706449747
1.757871826171875,-2.6310417465507983,1.86410138874799,9.231580413791535,0.3957806825637817,0.1093111634254455,0.0058022853918373
1.767897705078125,-2.631694657501578,2.0222155828215183,9.274583104693887,0.3937948048114776,0.1114340648055076,0.0244340021163225
1.777923828125,-2.438914662107825,2.127565278173983,9.26827552898228,0.3489889800548553,0.118804357945919,0.0306692607700824
1.78794970703125,-2.169244173126668,2.2753625147640704,9.260552241253851,0.2838281989097595,0.1264051496982574,0.0328081846237182
1.79797607421875,-1.8043023152150213,2.1969304908230898,9.06795461668968,0.2185333669185638,0.0962706878781318,0.0542921684682369
1.808001953125,-1.2936756828226148,2.043054811102152,8.759176252287626,0.1336010694503784,0.0730387791991233,0.0984852090477943
1.818028076171875,-0.8511177935279906,2.076001971936226,8.587053844997286,0.0257422402501106,0.0767395049333572,0.1367652267217636
1.828052978515625,-0.657180444792658,2.1102964557260275,8.395535832363366,-0.085293710231781,0.0904106274247169,0.1587505042552948
1.838078857421875,-0.4184066503891721,2.172404244592786,8.197198787364362,-0.1982730031013488,0.0936018973588943,0.1750093698501587
1.84810498046875,-0.2283795704327523,2.228057158231735,7.831204497790337,-0.284323126077652,0.0299286842346191,0.2014094442129135
1.858130859375,0.0799890075920149,2.083878696660697,7.311557523596286,-0.3371181488037109,-0.1244041621685028,0.2551994323730469
1.868156982421875,0.3840515589859336,1.687330571129918,6.857614316934347,-0.3670760691165924,-0.2817057073116302,0.3471560478210449
1.878182861328125,0.8673295812036842,1.221468670876324,6.4320607539325945,-0.3945391178131103,-0.3314410448074341,0.4755715429782867
1.888208740234375,1.4176618357144295,0.8762227894943208,5.900775364392995,-0.422264963388443,-0.2111422717571258,0.6520730257034302
1.89823486328125,2.185251743467152,0.4775692891821265,5.193931747895479,-0.4941972196102142,0.0948536023497581,0.8937868475914001
1.9082607421875,3.239830062487721,0.0408945396419614,4.498960355499387,-0.6506269574165344,0.4719250500202179,1.1632171869277954
1.918286865234375,4.1570708718732,-0.3061576422433368,3.678470486077666,-0.8394083380699158,0.8695661425590515,1.3475550413131714
1.92831298828125,4.345638510268927,-0.9019931905668228,2.4213994636833664,-0.9116723537445068,1.2380632162094116,1.421764254570007
1.938339111328125,4.338546213920414,-1.5955797775410114,0.3350064461141824,-0.7963758707046509,1.6451672315597534,1.4626206159591677
1.948364013671875,4.310996528215706,-1.5677879536435009,-2.51578104416728,-0.5842019319534302,2.2507941722869877,1.5285731554031372
1.958389892578125,4.087838637953997,-0.4554932491155341,-6.073304598918557,-0.4798470437526703,2.9452335834503174,1.5722793340682983
1.968416015625,3.433813003930449,0.9013595688384026,-9.505546992531418,-0.6018481254577637,3.480417966842652,1.4291783571243286
1.97844189453125,2.4318936774298545,1.108264608761668,-12.838933290594817,-0.8177745938301086,3.588228225708008,1.0374393463134766
1.988468017578125,1.7550177675642071,-0.2335140107117593,-16.248074210083484,-0.8863900899887085,3.076961040496826,0.5430268049240112
1.998493896484375,2.0412023151032623,-2.2664969251327216,-19.65104842363596,-0.7042295932769775,1.8899962902069087,0.1483473926782608
2.008519775390625,2.938283402904868,-3.4604043659970163,-22.15672542241812,-0.2252209484577179,0.4051319658756256,-0.0972281917929649
2.0185458984375,2.6923779665231704,-3.338773544059693,-23.262460804963112,0.4184275269508362,-0.8923648595809937,-0.1725849956274032
2.02857177734375,2.0041968187890946,-2.7833003464639186,-22.53597959105968,0.9656676650047302,-1.7878687381744385,-0.151798278093338
2.038597900390625,1.37973600968495,-2.310051989220828,-20.172374144697187,1.289070725440979,-1.9888707399368288,-0.1821404695510864
2.048623779296875,0.3574076630145311,-2.170883172505349,-17.224066775906085,1.2882977724075315,-1.6701918840408323,-0.306359052658081
2.058648681640625,-0.9840827871672808,-1.9489558469519015,-13.606163863515851,0.9899438619613647,-1.1873266696929932,-0.3965880274772644
2.0686748046875,-1.1033593010634184,-1.772920796262473,-10.165184036695956,0.6138378381729126,-0.8288273811340332,-0.4087043404579162
2.078700927734375,-0.264358061786741,-2.053977041002363,-7.699305379816889,0.3835515975952148,-0.6735962629318237,-0.4024874567985534
2.08872705078125,0.3836733002580702,-2.7106714558437464,-6.313151465913653,0.3591652512550354,-0.7177212834358215,-0.3889370858669281
2.0987529296875,0.715749245878309,-3.0200518777921794,-5.133123935711383,0.4761778712272644,-0.8888986706733704,-0.3443184792995453
2.108779052734375,1.0787389468088746,-2.7226804580673574,-3.4291648858636616,0.6282423734664917,-1.035753846168518,-0.341312974691391
2.118804931640625,0.8887471208289265,-1.996847625070065,-1.2871148630023002,0.7298587560653687,-1.100314974784851,-0.4654242694377899
2.128830810546875,-0.0607675532389432,-1.3186406127311288,0.9663707509964704,0.7691946625709534,-1.1087803840637207,-0.6755726933479309
2.13885693359375,-0.9376721144523472,-0.7149493276722729,2.9532395644962786,0.8160889148712158,-1.097170352935791,-0.8714843988418579
2.1488828125,-1.2971576797194777,0.0077193422056734,4.2696752145290375,0.9011492729187012,-1.0748554468154907,-0.9633861184120178
2.158908935546875,-1.0396955879915506,0.8261967758264392,5.191600090077519,0.9663000702857972,-0.963907778263092,-1.0280791521072388
2.168933837890625,-1.1557255942471325,1.5943082963004709,6.128937638813257,1.008092164993286,-0.7906946539878845,-1.12001633644104
2.178959716796875,-1.31923083370924,1.7284692217260598,6.791498461470008,1.0424432754516602,-0.6208177208900452,-1.170376181602478
2.18898583984375,-0.6182470491558313,1.2050655253469944,6.959038801667094,1.0302913188934326,-0.4858354926109314,-1.0575085878372192
2.19901171875,0.3147023476235568,1.2488979450717568,7.26309656728804,0.9148882627487184,-0.3345876634120941,-0.7632282972335815
2.2090380859375,1.176439296451956,1.864962243361026,7.670617629992962,0.6602227091789246,-0.1700811237096786,-0.432072639465332
2.21906396484375,1.407434017819166,2.279508382397145,8.11370918777287,0.3221128284931183,-0.0365201346576213,-0.205288752913475
2.229090087890625,1.0175474690694362,2.5335931797116995,8.551870887935161,-0.0035699871368706,0.0371171459555625,-0.1154791936278343
2.239115966796875,0.4862194094318896,2.8538977312564846,8.643107156130672,-0.248425543308258,0.0197607912123203,-0.1217336282134056
2.249141845703125,0.2139850247794762,3.1100647416725757,8.45022779201567,-0.3497170805931091,-0.0515686087310314,-0.1787715852260589
2.25916796875,0.0607238967603072,3.114263654667139,8.149654945901036,-0.2943717837333679,-0.1545096337795257,-0.2207999974489212
2.26919384765625,0.0727799164634197,3.0133468271955848,7.867818364438414,-0.1133843213319778,-0.2313494235277176,-0.2181500196456909
2.279219970703125,0.2214666857717558,2.9648388168752198,7.528660059341788,0.0930825620889663,-0.2657252252101898,-0.1626140624284744
2.289244873046875,0.2447514440409839,2.962690406669676,7.368945298203825,0.2319189608097076,-0.2794291079044342,-0.0924798622727394
2.299270751953125,0.0474382987296208,2.9258684502288697,7.42887808111906,0.2429425865411758,-0.3422648012638092,-0.0178519636392593
2.309296875,-0.0710151352806016,2.7050977473646403,7.5520596396297215,0.1174695342779159,-0.4403502345085144,0.051705989986658
2.31932275390625,-0.1632717229671776,2.4502365588501096,7.688098341625928,-0.1045361012220382,-0.5097135901451111,0.1080459654331207
2.329348876953125,-0.2181165716262534,2.246829809371382,7.767783288237452,-0.3438353836536407,-0.5383392572402954,0.1608935892581939
2.339375,-0.2078295526233501,1.897833854740858,7.56938779104948,-0.5291661024093628,-0.5241893529891968,0.2094779014587402
2.349401123046875,-0.1985950018154457,1.5997905271038413,7.314678870487213,-0.6393766403198242,-0.4557093679904938,0.2441509962081909
2.359427001953125,-0.2551755151607096,1.4907152353569864,6.9846507973074905,-0.6861606240272522,-0.3453503847122192,0.2558936476707458
2.369452880859375,-0.4176658419592305,1.480074306616187,6.666058894899487,-0.7044687271118164,-0.1915669441223144,0.2374137938022613
2.37947900390625,-0.6013102351412176,1.47674472380206,6.432959164077043,-0.7035200595855713,-0.0440621897578239,0.1773818880319595
2.3895048828125,-0.8081552885055542,1.3196268472895023,6.084890407294035,-0.6994025707244873,0.00955331325531,0.1313871294260025
2.399530029296875,-0.729919517789036,0.8561806298755109,5.645890502741932,-0.6900297999382019,-0.0177736487239599,0.1558458656072616
2.409555908203125,-0.293486687245965,-0.0161353979712352,4.833575756469369,-0.6929551959037781,-0.0983727574348449,0.2562287747859955
2.419581787109375,0.1084328656574711,-0.8985855010151863,3.874311038085818,-0.7060808539390564,-0.2432724088430404,0.389667809009552
2.42960791015625,0.2542528108252212,-1.7025556127905843,2.78109786798358,-0.7104624509811401,-0.4341920018196106,0.4857082068920135
2.4396337890625,0.0789153139458969,-2.446204672985524,1.438283329591155,-0.6706902980804443,-0.6032161712646484,0.4926132559776306
2.44966015625,-0.4681592904757708,-3.113769441409409,0.0453559760302305,-0.5324690937995911,-0.6208371520042419,0.4218339920043945
2.45968603515625,-1.0405187409427017,-3.4897347976386546,-1.3802286155074834,-0.2995626032352447,-0.3481449484825134,0.4489921033382416
2.469712158203125,-0.8257876105036586,-3.068413757640123,-3.039042117205262,-0.0797185450792312,0.2700152695178985,0.7024825215339661
2.479738037109375,-0.0628786453750915,-1.5987980089351534,-4.927931033468246,-0.062851145863533,1.168749213218689,1.071125864982605
2.489763916015625,0.033115612736158,0.1100034211761318,-6.624152767062187,-0.3606186807155609,2.1066830158233643,1.3110822439193726
2.4997900390625,-0.3418267936535179,0.7579452235076576,-8.319553247401117,-0.8669716119766235,2.587256908416748,1.3244826793670654
2.50981591796875,0.2320700589811429,-0.4966039887914433,-10.514207902246714,-1.3288147449493408,2.161728382110596,1.1778271198272705
2.519841064453125,1.835028731259704,-2.7456904545158145,-13.05194826476574,-1.4876214265823364,0.9493135213851928,0.9327486753463744
2.529866943359375,2.273072650261223,-3.544447800078988,-15.13582725368738,-1.205890655517578,-0.1723747700452804,0.5589579343795776
2.539892822265625,-0.0857794640943408,-1.636882240396738,-16.75355471175909,-0.5681144595146179,-0.885826826095581,0.15071901679039
2.5499189453125,-1.9645999908074736,0.0868406635850667,-17.311183918344973,0.310896635055542,-1.2079025506973269,-0.2866040766239166
2.55994482421875,-2.240526763704419,-0.4849132952693849,-17.39489563625455,1.120738863945007,-0.9703019857406616,-0.7758246660232544
2.569970947265625,-3.2187513263627885,-0.9054056293588132,-17.183115172314643,1.546010136604309,-0.3767640590667724,-1.152672529220581
2.5799970703125,-3.948280237399041,-0.5015982168821618,-16.16369029200077,1.5396898984909058,0.0461302138864994,-1.246898889541626
2.590023193359375,-2.773769132530689,-1.0319669665008784,-14.810986227756738,1.2258175611495972,0.0938389971852302,-1.0946998596191406
2.600049072265625,-1.044740084964782,-2.5839462333768606,-13.396685246777531,0.7989754676818848,-0.1400640308856964,-0.7935100793838501
2.610074951171875,0.1382060360979288,-3.670129066450894,-11.903310144561528,0.4234391748905182,-0.5057716369628906,-0.3883164525032043
2.62010107421875,1.0371554750546812,-3.743516958744824,-10.09408279403448,0.1347109824419021,-0.8487436771392822,-0.007195976562798
2.6301259765625,1.199839753522724,-3.005596943721175,-7.636370492476225,-0.0663458779454231,-0.99696683883667,0.1842038482427597
2.640152099609375,0.4923674837328493,-1.9572426137819885,-4.931427643412351,-0.1804460883140564,-0.9538894295692444,0.1607227623462677
2.650177978515625,-0.129408031810075,-1.2391696011312303,-2.4158067582428453,-0.2393231689929962,-0.8291353583335876,0.0397191792726516
2.660203857421875,-0.2408285167098976,-0.6684450583897531,-0.0531809705674648,-0.2913019359111786,-0.6728360652923584,-0.0899834185838699
2.67022998046875,-0.1666398111607879,-0.0826831055141985,2.0579116039723155,-0.2896770536899566,-0.5057057738304138,-0.1978289633989334
2.680255859375,-0.1588139398407191,0.3045527095310389,3.564397532173991,-0.1936301440000534,-0.3906510472297668,-0.2383537590503692
2.690281982421875,0.3344584933752194,0.5815646473161876,4.684667636027932,-0.0194335617125034,-0.3720641136169433,-0.204049676656723
2.700307861328125,0.7847295508630573,0.5798593412356451,5.532955612957477,0.1502441465854644,-0.4010664522647857,-0.134594976902008
2.710334228515625,0.7660488888558,0.7379961489997804,6.548559473678469,0.2494818866252899,-0.4632039368152618,-0.0577436760067939
2.720360107421875,0.5542375183209777,1.1414615065731109,7.668443793085217,0.2617659866809845,-0.4624393284320831,-0.008767613209784
2.73038623046875,0.3241502671875059,1.5165654236674309,8.654176247155666,0.2164886742830276,-0.3668226897716522,-0.0108814556151628
2.740412109375,0.1145225243020802,1.6781364801965653,9.330691945406794,0.1502127051353454,-0.2129154056310653,-0.0244529228657484
2.75043701171875,0.1398459122594446,1.815149434052408,9.771031574130058,0.07529978454113,-0.0414750389754772,-0.0092031145468354
2.760463134765625,0.4143585075095295,2.026110398302972,9.975890129852294,-0.0181673169136047,0.0945008993148803,0.0086326077580451
2.770489013671875,0.5418524127939716,2.222707906158268,10.088829111289977,-0.1094493865966796,0.1990894526243209,-0.0203127134591341
2.780514892578125,0.3363224971488118,2.3010436301179227,10.080963784742355,-0.1518322676420211,0.2129767686128616,-0.0888009592890739
2.790541015625,0.227202854803577,2.2045262066490947,9.894631065791843,-0.1287813037633896,0.0639641135931015,-0.1470110118389129
2.80056689453125,0.4232526656482368,2.0562620831996203,9.677115273070337,-0.0440850630402565,-0.0917788743972778,-0.1798046380281448
2.810593017578125,0.5622782014355063,1.88664932064265,9.2252178930223,0.0633647367358207,-0.173602744936943,-0.1764143705368042
2.820618896484375,0.6168787564773112,1.7587110691241918,8.909614066514372,0.1425588876008987,-0.2055431008338928,-0.1333582401275634
2.83064501953125,0.7041703787002712,1.628501511672884,8.909647968783974,0.1579144299030304,-0.2019453793764114,-0.0789905041456222
2.840671142578125,0.8297833290763199,1.3824176499843597,8.972433218520878,0.1197129786014556,-0.1678923368453979,-0.0532276183366775
2.850697265625,0.7974701552968472,1.0705695227481424,8.977737754669786,0.0427630506455898,-0.1311503946781158,-0.0361908189952373
2.860721923828125,0.6722906279020011,0.8771972605496644,8.983178484418987,-0.0517053976655006,-0.0796105191111564,-0.0277688354253768
2.870748046875,0.5470973642427474,0.7704850446723401,8.807784508112073,-0.1331556737422943,-0.013746416196227,-0.0155370747670531
2.880774169921875,0.4559240782808512,0.6414390511076897,8.294415883535146,-0.1822912544012069,-0.0082078408449888,0.0281440950930118
2.890800048828125,0.6937277490105479,0.4247342825081199,7.799226474249362,-0.194165900349617,-0.0727731734514236,0.1058551743626594
2.900825927734375,0.964808323985338,0.1145106329348869,7.305112585240602,-0.1903282850980758,-0.1216280683875083,0.1919700801372528
2.91085205078125,0.9054952804036438,-0.10532375719361,6.723560651275515,-0.1911896914243698,-0.1412428021430969,0.2781854569911957
2.9208779296875,0.784801885446906,-0.2190542178025469,6.201492002892494,-0.201628491282463,-0.135427251458168,0.3673302233219147
2.930904052734375,0.9583587094545364,-0.390832378232479,5.566953744149208,-0.2291673719882965,-0.1073960587382316,0.4439054131507873
2.940929931640625,1.0714655217397957,-0.7099288691617548,4.799267244154215,-0.2895732223987579,-0.0613087229430675,0.4892491996288299
2.9509560546875,1.1111356341533365,-1.0005326944477857,3.940318172478676,-0.3622106611728668,0.0127491457387804,0.4957468509674072
2.96098193359375,0.9372763931330292,-1.359967625506222,2.608253576159477,-0.405868649482727,0.022710433229804,0.4909592866897583
2.9710068359375,0.6284205065153539,-1.6555867947362362,0.9543220012843608,-0.375822901725769,-0.1120206341147422,0.4878973960876465
2.981032958984375,0.5781327731713652,-1.732510021549463,-0.8732160819590091,-0.223027765750885,-0.255769282579422,0.5051668882369995
2.991058837890625,0.4960104068124666,-1.685875696146488,-3.0856285118132827,-0.0014875908382236,-0.1304966360330581,0.5610838532447815
3.001085205078125,0.0229828161805868,-0.8125970703452825,-5.341384408831596,0.1449074447154998,0.520829975605011,0.6363056898117065
3.011111083984375,-1.2972282607376575,1.3709995993912218,-7.73528094856143,0.0627782344818115,1.5597294569015503,0.662676990032196
3.02113720703125,-2.862925671842694,3.192254364581406,-10.249460402750968,-0.2589667737483978,2.440519332885742,0.5609002709388733
3.0311630859375,-3.4140582098856567,2.812290001843869,-13.090891451144218,-0.6967540979385376,2.740311861038208,0.3955985903739929
3.04118896484375,-1.9759492139481007,0.5008684413028881,-16.038915911340712,-1.0489832162857056,2.069275379180908,0.2452429085969925
3.051215087890625,-0.1313470370486378,-1.7228896680280563,-18.442811282515525,-1.0555540323257446,0.6221438050270081,-0.0019950792193412
3.061240966796875,-0.8335704463995993,-1.846829643690586,-20.53749691213369,-0.5560302734375,-0.490983247756958,-0.4381028711795807
3.071266845703125,-3.9092248228177424,-0.0991367391217499,-22.74163309655189,0.2539825737476349,-1.2004098892211914,-0.9000123143196106
3.081292724609375,-5.44990206669569,1.239565176320076,-23.14758121085167,1.0849910974502563,-1.6337171792984009,-1.2399898767471311
3.09131787109375,-4.400384245935082,0.2307743018158711,-21.806835295426843,1.6203391551971436,-1.7492327690124512,-1.3915542364120483
3.101343994140625,-2.8639579374998805,-1.8851099822461603,-19.32302759862542,1.690683364868164,-1.5373996496200562,-1.2056360244750977
3.111369873046875,-0.9718637954548,-2.896507623448968,-15.91428415402174,1.3601412773132324,-1.1844136714935305,-0.687389612197876
3.12139599609375,1.1248461795978248,-2.9367101622387763,-12.302869434607029,0.8268420100212097,-0.8436229228973389,-0.1037916764616966
3.131422119140625,2.146689665360749,-2.7491613454967734,-9.119194390061498,0.2919417321681976,-0.6453835368156433,0.3558504283428192
3.1414482421875,2.419065760038793,-2.449047056804597,-6.538605650418996,-0.1241127252578735,-0.6701823472976685,0.6521843671798706
3.151473876953125,2.372101325898617,-1.7470910662181671,-4.144649489456415,-0.3870182335376739,-0.7460787296295166,0.7621175050735474
3.161499755859375,1.815801760481298,-0.5869749088618904,-1.75381409086287,-0.4616296291351318,-0.7313027381896973,0.6711260676383972
3.17152587890625,1.359967187114805,0.1052753149420022,0.1283680212378501,-0.331266313791275,-0.7880408763885498,0.4232997298240661
3.1815517578125,1.1685095263659953,0.3579578077105805,1.661953553289175,-0.1395298987627029,-0.8335657715797424,0.1060586795210838
3.191577880859375,0.9926135918863116,0.6132108816195279,3.6838895885169514,0.042199395596981,-0.7865974307060242,-0.1794531494379043
3.20160302734375,1.2116890351399778,0.8831571188021451,5.758010569012165,0.2101572304964065,-0.6283345222473145,-0.3782834112644195
3.21162890625,1.866301090749353,0.7334616473753005,7.20563806553185,0.3608932495117187,-0.3922912776470184,-0.4921908378601074
3.221655029296875,2.242526413089037,0.3203284073444083,8.281165941339731,0.4519270062446594,-0.2024084329605102,-0.4778062999248504
3.231680908203125,2.570162038174272,0.2194387236081063,9.38103564672172,0.4242149889469147,-0.0534905418753623,-0.3264515697956085
3.24170703125,2.9618852277666328,0.2798703228909522,10.238787033045291,0.2793765664100647,0.1153751835227012,-0.1039042398333549
3.25173291015625,2.9823917169615624,0.3727797484630719,10.709383268344402,0.0815436467528343,0.2580766677856445,0.1189192533493042
3.261759033203125,2.8600936632871625,0.3522954345673322,10.944650990855694,-0.1055743098258972,0.3704442381858825,0.2828666269779205
3.271784912109375,2.569528416445851,0.3877107390806079,11.03503327257037,-0.2549420595169067,0.4784068167209625,0.3722622990608215
3.281810791015625,2.179252941443771,0.5351365850750357,11.00374030868411,-0.3296445310115814,0.551263153553009,0.388065755367279
3.2918369140625,1.7688181832492351,0.850374939271435,10.58685812791586,-0.3127777874469757,0.542137086391449,0.3547748923301697
3.30186279296875,1.5990554908275605,1.0428729028534145,10.023163922202588,-0.2235759943723678,0.4694056212902069,0.3141925632953644
3.311888916015625,1.440903448961675,1.1657210646912457,9.641248425397276,-0.1103553473949432,0.3786268532276153,0.2705679535865783
3.3219140625,1.2268038944244384,1.3417460323780774,9.42312706799805,-0.0141153652220964,0.2933676242828369,0.2227093279361724
3.33193994140625,1.1159542134162037,1.5355943876557052,9.260601341092586,0.0513489618897438,0.2340646982192993,0.161110982298851
3.341966064453125,0.8578657334182411,1.5775639361180365,9.04093392329514,0.0816426873207092,0.1699227392673492,0.0907864794135093
3.351991943359375,0.652918622629717,1.4748866748452183,8.864193793076277,0.0863928198814392,0.0767576694488525,0.0425136499106884
3.362017822265625,0.6072479546271264,1.2958183939397334,8.6776097297132,0.0914344564080238,0.0111147444695234,0.0231223776936531
3.372043701171875,0.5497135380905122,1.1134322937231511,8.476759240588546,0.0984964966773986,-0.0276032779365777,0.0377783216536045
3.382069580078125,0.5194029363051057,0.9073554482523352,8.364647942146659,0.0989074185490608,-0.0211067646741867,0.067217968404293
3.392095458984375,0.4520180838182568,0.7638093663007021,8.354507071882486,0.0770907327532768,0.0290014296770095,0.1074604094028472
3.402121337890625,0.4192668839477002,0.6989190340433269,8.32208656527102,0.0218951199203729,0.085336335003376,0.1497002691030502
3.412147705078125,0.4794503536883741,0.6982900884900242,8.358295358249544,-0.0537136122584342,0.181740254163742,0.1890986263751983
3.422173583984375,0.5530544094836339,0.7200207857176661,8.265168161740899,-0.1305447518825531,0.2825528979301452,0.2367268651723861
3.43219873046875,0.7880141254916787,0.6845530203647912,8.054500042957066,-0.1830921918153762,0.3651939332485199,0.3247407078742981
3.442224853515625,1.1756031378887593,0.6657409139975905,7.719369678202271,-0.2150589227676391,0.4123207032680511,0.4209905564785003
3.452250732421875,1.3836229341208934,0.707427407734841,7.279461426633596,-0.2197155505418777,0.474959135055542,0.4498880207538605
3.46227685546875,1.0485038214124738,0.6527693503521382,6.561316663920879,-0.1866694390773773,0.5678541660308838,0.4304544031620025
3.472302734375,0.9751334647752344,0.5254752419561147,5.43964370753169,-0.1315738558769226,0.70543372631073,0.3660004436969757
3.48232861328125,0.9957699370253832,0.3533660594735294,3.669209321257472,-0.0711994618177414,0.937129020690918,0.2184338867664337
3.4923544921875,0.424302832288295,0.1312688389795832,0.9791273567169904,-0.0103589724749326,1.1307508945465088,0.0094522526487708
3.50238037109375,-0.3845681302059441,-0.0090328907559625,-2.21978617349267,0.0934393256902694,1.13709557056427,-0.1274502128362655
3.512406494140625,-0.7503435163322836,0.065629551518429,-5.536373312446475,0.2452196031808853,0.9682255387306212,0.0225497316569089
3.522432373046875,-0.1666644524117,0.8131165641747414,-8.626839911940694,0.3546696603298187,0.9663501977920532,0.5033978223800659
3.53245849609375,0.7398764097884297,2.608990073740482,-11.708055283486845,0.2486819624900818,1.3276941776275637,1.0350689888000488
3.542484619140625,0.6775299898602068,4.467772897814214,-14.495343238282205,-0.1538473814725875,1.7888906002044678,1.1207910776138306
3.552509521484375,-1.1125203665100036,4.404196205438673,-16.207935091918706,-0.6023330688476562,1.9615236520767207,0.6388477683067322
3.562535888671875,-2.908704257199168,2.0910658316858117,-17.976379181158542,-0.7362250685691833,1.502896428108215,-0.019314382225275
3.5725615234375,-2.1313298914045093,-0.8000126793865114,-20.021759220337863,-0.3849558532238006,0.4678308069705963,-0.5066799521446228
3.582587646484375,-1.15936928451173,-2.2365157744973896,-21.727810274028776,0.2945118844509125,-0.4613740742206573,-0.7598227262496948
3.592613525390625,-1.882322397354245,-1.764369241016358,-22.28937682006359,0.9574847221374512,-1.0401628017425537,-0.7889391183853149
3.6026396484375,-1.664707089781016,-1.9091534133955836,-20.9294328676939,1.385832667350769,-1.3701361417770386,-0.7083281874656677
3.61266552734375,-0.8173141619950532,-3.797186881873012,-18.536381546616557,1.4870953559875488,-1.5319945812225342,-0.539466381072998
3.62269140625,-0.0665789794640615,-5.7381204581499095,-15.689245564579965,1.288962483406067,-1.5372543334960938,-0.23106649518013
3.632717529296875,0.2739426498750225,-6.001174013209343,-12.41167000106573,0.947107195854187,-1.2749285697937012,0.2470751851797104
3.642743408203125,0.7294757926095277,-4.87633820887506,-9.74042191633284,0.5611128807067871,-0.8125856518745422,0.7585970163345337
3.65276953125,1.297747900697589,-3.622302608653903,-7.34995067487657,0.1450367420911789,-0.2837890386581421,1.0937026739120483
3.662794677734375,1.3172411211967467,-2.676986336123943,-4.818994273409247,-0.2965356111526489,0.2053060978651046,1.172570824623108
3.672820556640625,1.1139509107697754,-1.7234063853785395,-2.209465270486474,-0.6890052556991577,0.6001160144805908,1.0083444118499756
3.6828466796875,0.6979158483501523,-0.6362875135634094,-0.1713736347496509,-0.9021191000938416,0.7547014951705933,0.6714355945587158
3.69287255859375,0.2380123450443148,0.349610835125856,0.8616711901158094,-0.8412207961082458,0.636154294013977,0.2492218911647796
3.702898681640625,0.0500065052498132,0.8382457447342574,1.1640262434720992,-0.5084505677223206,0.2914301753044128,-0.1529769450426101
3.712924560546875,0.0441999195965938,0.8590269592173397,1.3316723821312189,-0.0154953403398394,-0.1552313417196273,-0.4490273892879486
3.72295068359375,0.3474942448306828,0.8195628177046775,1.829015170058608,0.4972545206546783,-0.5923439264297485,-0.5729461312294006
3.7329765625,1.1044950270950793,0.6583825140587986,2.7692086927473545,0.8668330311775208,-0.893558144569397,-0.5569807887077332
3.74300244140625,1.652139284630865,0.3706020025651901,4.27731666919291,0.9953542351722716,-1.0186907052993774,-0.4630111455917358
3.753028564453125,1.7302838699325918,0.1615378849118948,6.245964766347408,0.8849700689315796,-0.9372338056564332,-0.3251675963401794
3.763054443359375,1.5980338926948603,0.0123851420596241,7.956601978784799,0.5888300538063049,-0.7038868069648743,-0.1645531356334686
3.77308056640625,1.3423992355898022,0.1454921014528721,9.375781963977218,0.2316739857196808,-0.3964360058307647,-0.0066551207564771
3.78310546875,0.9373005777262152,0.4875434976425021,10.208822102892398,-0.0895551666617393,-0.053335390985012,0.1579218506813049
3.79313134765625,0.7080507272649555,0.7460130128473043,10.3805102104187,-0.3146752417087555,0.2721163630485534,0.3104185163974762
3.803157470703125,0.562397663096711,1.0583989732872694,10.331747056293487,-0.445393830537796,0.5133752822875977,0.4190770983695984
3.813183349609375,0.2670218376358971,1.4208984795480966,10.160013356059787,-0.4991518557071686,0.6503533124923706,0.4542577862739563
3.823209716796875,-0.0961827664206735,1.7535533941000698,9.796032159873842,-0.4709540605545044,0.6790353059768677,0.4157394170761108
3.833235595703125,-0.3619970731640234,1.9909008454948665,9.293314693170784,-0.3752986192703247,0.6139569878578186,0.3345034122467041
3.84326171875,-0.500577312869206,2.17545179559514,8.876317361590266,-0.2494182139635086,0.4825272560119629,0.2439852505922317
3.85328759765625,-0.5161868968680501,2.3102171166546643,8.552615568822622,-0.1312024146318435,0.3059163391590118,0.1647040843963623
3.863313720703125,-0.3865433392690494,2.4200544788151976,8.437972121554612,-0.0476260222494602,0.1487962305545807,0.0955489948391914
3.873339599609375,-0.2441048532331362,2.5432702318564058,8.458823770925402,-0.0154468920081853,0.0436176359653472,0.0244550518691539
3.883365478515625,-0.1383743236032314,2.6124977896004915,8.492616734933852,-0.030519850552082,-0.0500518642365932,-0.0632228702306747
3.893390625,-0.1708579403124749,2.5889824739784,8.595675542870163,-0.0720641762018203,-0.1226059347391128,-0.1725536733865738
3.90341650390625,-0.270930097120814,2.446466392661631,8.647102947768568,-0.1098368465900421,-0.1591783314943313,-0.2744052112102508
3.9134423828125,-0.2254596461317501,2.16633456929028,8.569230603536964,-0.1251630932092666,-0.1455730944871902,-0.3437114059925079
3.923468505859375,-0.1669040881201624,1.894195498238504,8.345278055766224,-0.1251657605171203,-0.073623277246952,-0.3783908188343048
3.933494384765625,-0.1805734613040462,1.643750957122445,7.965807614025473,-0.1427364349365234,-0.0115378564223647,-0.3488881587982178
3.9435205078125,-0.0574103243660647,1.379115247438103,7.635415968230366,-0.2043444067239761,0.0197558850049972,-0.2634776532649994
3.953546630859375,0.0648157235180493,1.099865759859234,7.336839264369011,-0.3159384429454803,0.0160190686583518,-0.1377488821744918
3.96357275390625,0.1853008916847407,0.8013058610022068,7.016259987536072,-0.4745411276817322,-0.0196289382874965,0.0097399158403277
3.9735986328125,0.4541854179199784,0.4749724410893395,6.688609749403596,-0.6415426135063171,-0.0424131378531456,0.1446811109781265
3.983624755859375,0.4543674234233796,0.2461366878543049,6.203604465001821,-0.7760794162750244,0.0068185916170477,0.2324839383363723
3.993650634765625,0.2326030698793008,0.0815444203404709,5.422043168911338,-0.8611129522323608,0.1002459898591041,0.2951425909996032
4.003676513671875,0.2349758634252473,-0.141503378876578,4.370204211726785,-0.909207284450531,0.1794191002845764,0.3431226313114166
4.01370166015625,0.4276491470415144,-0.5152922130506485,2.964047374236584,-0.9142747521400452,0.2946941256523132,0.3620376586914062
4.0237275390625,0.3603573796655983,-0.8924373536489904,0.9044143532991408,-0.84690260887146,0.4195127487182617,0.3843200802803039
4.03375341796875,0.2349627664816565,-1.118643014108762,-1.7115519891947506,-0.6797899007797241,0.5472844839096069,0.3908159732818603
4.043779541015625,-0.5345546935338527,-0.7721113306999207,-4.786802899378538,-0.4380153715610504,0.7714171409606934,0.408886045217514
4.053805419921875,-1.69917429978922,0.5652541119737551,-8.31598766387403,-0.2527183890342712,1.0029020309448242,0.4301537871360779
4.06383154296875,-2.629553846080601,2.335129001201689,-11.92814881774187,-0.196992814540863,1.181776762008667,0.3431930541992187
4.073857421875,-3.537145660372078,3.044062867976725,-15.543627133333684,-0.3185759782791137,1.3165541887283323,0.1861159950494766
4.0838837890625,-3.543106906864047,2.217545408828556,-18.80750150375366,-0.6437420845031738,1.0459413528442385,0.1296993196010589
4.09390966796875,-1.0983275174412876,0.0499732240347191,-20.448665951514243,-0.982025980949402,0.2455166131258011,0.1984597742557525
4.103935791015625,0.932704701303318,-1.93989517313987,-21.35305224776268,-1.0782526731491089,-0.4602690041065216,0.2004491537809372
4.113961669921875,-0.556628285915032,-0.7418323661617934,-22.29666230089664,-0.8574198484420776,-0.6430609226226807,-0.046751569956541
4.123987548828125,-3.745084354192018,1.4610663854159414,-22.58576215136051,-0.3252070844173431,-0.5150814056396484,-0.6080726981163025
4.1340126953125,-5.095386033469438,0.933598873664066,-22.083279077935217,0.3459376692771911,-0.1781860142946243,-1.3197216987609863
4.14403857421875,-5.209824898076057,-1.370904322323203,-21.79377240023613,0.8680717349052429,0.0069670621305704,-1.7001886367797852
4.154064697265625,-3.507670851823687,-3.5155358861103654,-20.33548380897045,1.0166693925857544,-0.1256625950336456,-1.3999592065811155
4.164090576171875,0.2826184160226956,-5.021694774314761,-17.239410475510358,0.8465325236320496,-0.3425520360469818,-0.5819268822669983
4.174116455078125,3.412545174974203,-5.963285888841748,-13.486481837558744,0.4490408897399902,-0.4260567426681518,0.3790741562843323
4.184142578125,4.583153134924173,-5.60564733968079,-9.109749100846052,-0.0717722028493881,-0.3500344157218933,1.1714588403701782
4.19416845703125,4.400487998570502,-4.229980040739476,-4.736155831202864,-0.5792457461357117,-0.1960088014602661,1.5663758516311646
4.204194580078125,3.0469638501152394,-2.499549455812573,-0.8857721966713666,-0.9168312549591064,-0.0708769857883453,1.4916996955871582
4.214220703125,0.9134432437334208,-0.7637728336825966,2.071210646006465,-0.9744389057159424,-0.0892427340149879,1.061982035636902
4.224246826171875,-0.8940803716156631,0.7463420986711978,4.005819695436954,-0.7068596482276917,-0.2461383491754531,0.5264309644699097
4.234272705078125,-1.395666423135996,1.2773656224042176,5.083609086436033,-0.1878806799650192,-0.5002814531326294,0.0733614191412925
4.244297607421875,-0.9490185611139984,0.9744567345574496,5.892789041814208,0.4434882402420044,-0.8016173243522644,-0.2026190310716629
4.25432373046875,-0.1485902135986834,0.3772309922508895,6.820416512918472,1.0163311958312988,-1.137528657913208,-0.2738170027732849
4.264349609375,0.7877385234206914,-0.1510448767418041,7.9818509863317,1.3791195154190063,-1.3096873760223389,-0.1898358166217804
4.274375732421875,1.4375664134934545,-0.4673961971487849,9.19035525395572,1.4128549098968506,-1.2395397424697876,-0.0172822624444961
4.284401611328125,1.5659718441322446,-0.5621294771471992,10.77885486397743,1.1532342433929443,-0.975694477558136,0.2044362872838974
4.294427490234375,1.6625190782174466,-0.3243024986071512,12.284859146142006,0.7268069982528687,-0.5293993353843689,0.4056692719459533
4.30445361328125,1.478559810400009,0.0396467863368801,12.99640465672016,0.260043054819107,-0.0328622236847877,0.5642069578170776
4.3144794921875,1.5163552880480884,0.3302404372887685,12.940527871197462,-0.1445298343896865,0.3649664223194122,0.6795735359191895
4.324505615234375,1.7955188509091733,0.5369701206451282,12.312421691328286,-0.4101942777633667,0.620990514755249,0.6934142708778381
4.334531494140625,1.4394962125122546,0.7567961996030061,11.474604255008696,-0.5063647627830505,0.727120041847229,0.6263143420219421
4.344557861328125,1.0360678259484468,1.176705838433653,10.324991152292489,-0.4569570422172546,0.6674210429191589,0.491424947977066
4.354583740234375,0.8213282199420034,1.7047585296623409,9.09283829805553,-0.317701131105423,0.4443420171737671,0.2892769873142242
4.364608642578125,0.545755301984027,1.9121772912614048,8.152041548776626,-0.142837181687355,0.0943927988409996,0.0658766627311706
4.374634765625,0.5453884779656306,1.842288931521028,7.666725298729538,0.036076370626688,-0.2815182507038116,-0.1282137036323547
4.38466064453125,0.7231915977735072,1.7090147258020936,7.429703426027298,0.2013372331857681,-0.5801742076873779,-0.2751320600509643
4.394686767578125,0.8855361228931695,1.5815090204820037,7.458913738420605,0.3205486238002777,-0.7466583251953125,-0.3566738963127136
4.404712646484375,1.125014302706346,1.476275206594169,7.803141601866483,0.3676897585391998,-0.7804466485977173,-0.3855625092983246
4.414738525390625,1.3007006130233407,1.30248311252594,8.314311255094408,0.3393429815769195,-0.7027281522750854,-0.3859661519527435
4.4247646484375,1.2570245529040691,1.000399715717882,8.751953899818659,0.2377404421567917,-0.5308133959770203,-0.3660845756530761
4.43479052734375,1.2807834680236876,0.735119497584924,9.11516118902266,0.1088944971561431,-0.273721843957901,-0.335849404335022
4.444816650390625,1.2352785850420591,0.5267556371554732,9.168878166162967,-0.0358469784259796,-0.0107594709843397,-0.2542253732681274
4.454842529296875,1.3755626695230605,0.3977702877368778,9.047252604922653,-0.1799323707818985,0.2159866690635681,-0.1245573684573173
4.46486865234375,1.6145931055687366,0.3283071676712483,8.618008955231309,-0.3301732838153839,0.3586553931236267,0.0616647042334079
4.474894775390625,1.8878584041714668,0.1916874691830016,8.02849583312869,-0.4828129112720489,0.4200963079929352,0.2732502222061157
4.484920654296875,2.0456809218220413,-0.0163623477280605,7.331938632845878,-0.6109700798988342,0.3570680618286133,0.4646010100841522
4.49494580078125,2.0982351387932896,-0.3025864509593695,6.624951808485388,-0.658897340297699,0.2098640501499176,0.5862536430358887
4.5049716796875,1.8083049749851223,-0.4873267861519008,5.80837472859323,-0.5696236491203308,0.1038393601775169,0.6143076419830322
4.514997802734375,1.3188272213444112,-0.3692737496361136,4.632158865633607,-0.3709383606910705,0.0506622307002544,0.547508180141449
4.525023681640625,0.7243756199263036,0.0484031251737847,3.2412820148617025,-0.1453159153461456,0.089315615594387,0.3947636187076568
4.535049560546875,-0.0933152755598071,0.7051163543134927,1.706920237740874,0.0024153038393706,0.2755352556705475,0.2864675521850586
4.54507568359375,-0.3181224217327311,1.3646322563163935,0.0608949059456586,0.0446160212159156,0.6335176229476929,0.2579951584339142
4.5551015625,-0.1782440502420999,1.971844408977777,-2.229961530548334,0.0419990383088588,1.1305793523788452,0.3003765046596527
4.565127685546875,-0.1717822338168509,2.4670073686480523,-5.577973735335469,-0.0616394728422164,1.5851577520370483,0.4005622267723083
4.575153564453125,0.0764808168079704,2.718124986720085,-9.186019270578026,-0.3202081620693207,1.8590176105499268,0.4157156348228454
4.5851796875,-0.299636259384267,2.741791693511605,-12.881504019820689,-0.6667424440383911,1.943919658660889,0.2739686071872711
4.59520556640625,-1.1161910909119992,2.286835364284366,-16.89174854596257,-0.9629806280136108,1.404719352722168,0.0453015305101871
4.605231689453125,-0.8496376379728316,0.920973566173017,-19.893300013685224,-0.9128373265266418,0.2461124062538147,-0.1350224465131759
4.615256591796875,0.2369837326489388,-0.6357260072231292,-21.93058793182373,-0.4971508383750915,-0.9231360554695128,-0.2544267773628235
4.62528271484375,-0.6170192609265446,0.256947347138822,-22.698574876070023,0.015327644534409,-1.4766026735305786,-0.3511272072792053
4.635308837890625,-2.390628916236013,2.364610531751812,-21.519739186000823,0.3563468754291534,-1.5733970403671265,-0.4451780021190643
4.645334716796875,-2.636983996081352,2.2000074140504,-18.456560406404733,0.4386734366416931,-1.367276906967163,-0.6050712466239929
4.655360595703125,-3.034368280175328,0.4513948008207604,-14.848116227233408,0.3628364205360412,-0.8581408858299255,-0.7560628056526184
4.66538671875,-3.586610240764916,-0.5584191879197955,-12.228045956552029,0.2860684096813202,-0.259211391210556,-0.6866093873977661
4.67541259765625,-2.8315748402893544,-0.8558730252310633,-10.871881522721052,0.2627643346786499,0.193663403391838,-0.3749317228794098
4.685438720703125,-1.1146224533557891,-1.4023770266905426,-9.88468367227316,0.1816508620977401,0.4208153188228607,0.0333329997956752
4.695464599609375,0.3397104590866714,-2.146589712117612,-8.236566921156644,-0.0287468582391738,0.4406760632991791,0.4230026006698608
4.70549072265625,1.1483164870344102,-2.6310692190796137,-5.920233513578772,-0.2705461978912353,0.3274946510791778,0.7497689723968506
4.7155166015625,1.4467518827289343,-2.604894913381338,-3.652314885079861,-0.407007098197937,0.1311009675264358,0.957051694393158
4.72554150390625,1.477574014233053,-2.2081449816681444,-1.8320751421511168,-0.3464332222938537,-0.1173149645328521,0.9895257353782654
4.735567626953125,1.0637254290070384,-1.842128041870892,-0.4755909748464823,-0.0841091126203537,-0.3385311663150787,0.854887843132019
4.745593505859375,0.4169792844671756,-1.35412985926345,0.7805319530427456,0.247804656624794,-0.4791002571582794,0.6394308805465698
4.755619873046875,0.0034916780406609,-0.7868648093260824,2.253863215139508,0.5229980945587158,-0.5242401957511902,0.410470187664032
4.765645751953125,-0.080559674486285,-0.3236511950915679,3.880642579194903,0.6677371859550476,-0.4953577220439911,0.1985526233911514
4.775671630859375,-0.0087505575500894,-0.1056944536695256,5.403251959201693,0.6880979537963867,-0.4015337228775024,0.0109959673136472
4.78569775390625,0.0356526477999519,0.0166204415418207,6.560443388217688,0.6365623474121094,-0.3060913383960724,-0.1346427202224731
4.7957236328125,0.1205615670043043,0.1257193698925897,7.284148707666993,0.5731182098388672,-0.20156891644001,-0.222017154097557
4.805749755859375,0.189399175582733,0.2551878997182473,7.649085597142577,0.5349295139312744,-0.0997200459241867,-0.2674810290336609
4.815775634765625,0.2135763891796581,0.2924988635187037,7.739863600176572,0.5494396686553955,-0.0186280459165573,-0.278495043516159
4.8258017578125,0.18322571111219,0.3012272731690667,7.835631666582822,0.576439619064331,0.0419399589300155,-0.2596611678600311
4.83582763671875,0.1795789521076716,0.4464060160901397,8.034208950078487,0.5814558267593384,0.1004177629947662,-0.2199625670909881
4.8458525390625,0.2013235134638845,0.6511389726713299,8.186506712958217,0.5404793620109558,0.1461975127458572,-0.1714096814393997
4.855878662109375,0.2857665961216203,0.7601905912816525,8.362281797537207,0.4720428586006164,0.1891345232725143,-0.1379191875457763
4.865904541015625,0.261046233825013,0.7526007206745445,8.521054893910884,0.393658310174942,0.2523033916950226,-0.1143621951341629
4.8759306640625,0.1249643411410506,0.8103848741885274,8.548112412184476,0.3077406883239746,0.3275342583656311,-0.0812012180685997
4.885956787109375,0.0079520823824685,0.9257003024339676,8.49092395954132,0.2153332680463791,0.3859759867191314,-0.0264213252812623
4.895982666015625,-0.0514557724763639,0.9654214143823832,8.416277007097005,0.1241535171866417,0.3948807716369629,0.0310037359595298
4.9060087890625,-0.1370213563580065,0.9266491275914012,8.241378705352544,0.042868249118328,0.3361897766590118,0.0801917910575866
4.91603466796875,-0.2567110541649162,0.850632786490023,7.9772741799354545,-0.0060064978897571,0.254465639591217,0.1173766404390335
4.926060791015625,-0.3584256078854203,0.7971582398034631,7.741129674589634,-0.0128755895420908,0.1929631233215332,0.1356131583452224
4.936086669921875,-0.5414603082038462,0.79877283539325,7.520750309130549,0.0182412471622228,0.1566954255104065,0.1428699642419815
4.94611279296875,-0.5747204074446112,0.8113031580772251,7.419446820428967,0.058842733502388,0.1513174325227737,0.125438779592514
4.956138671875,-0.6975172044213861,0.8392739187382161,7.413959913450479,0.0811900720000267,0.1721369326114654,0.0850294232368469
4.96616357421875,-0.8483597269915044,0.7612983333278447,7.388589325350522,0.06646279245615,0.2119317501783371,0.0454263500869274
4.976189697265625,-0.8998053981989622,0.5363611584339291,7.266447631281614,0.0174509137868881,0.2463525235652923,0.0346800684928894
4.986215576171875,-0.8470959176007657,0.318928513951227,7.149692306426167,-0.0554264895617961,0.2470622658729553,0.0695432424545288
4.99624169921875,-0.7007942533306777,0.2083422513858415,6.98336484915018,-0.1297607123851776,0.227704182267189,0.1502463519573211
5.006267578125,-0.4719540431162342,0.0119724513391964,6.681489103743433,-0.1954060345888137,0.1867114752531051,0.2538553178310394
5.0162939453125,-0.2536818425368518,-0.2288287389723584,6.347447703269124,-0.2371513545513153,0.1590496003627777,0.3636275231838226
5.02631982421875,-0.0691889427667483,-0.3686591248691082,5.838026355013251,-0.2345672845840454,0.1689222007989883,0.4631261527538299
5.036345703125,0.0827333378640934,-0.3718270143155008,4.976547472599148,-0.1815384626388549,0.2319727689027786,0.5194082260131836
5.046371826171875,0.1118995553873479,-0.3018748868902213,3.7187878834187984,-0.1001498699188232,0.316838651895523,0.5085166692733765
5.056397705078125,0.1544050008246675,-0.2109183672178536,1.9464888723164795,0.0105643048882484,0.3732566237449646,0.4186510741710663
5.066423828125,0.079765829828009,0.0279175965684931,-0.495129203531146,0.2114001959562301,0.398296445608139,0.1650768667459488
5.07644970703125,-0.8701222806621343,0.3432548902278766,-4.153967937421799,0.5032882690429688,0.3853113055229187,-0.1778540611267089
5.086475830078125,-1.939038994701952,0.8216743299659341,-8.635479145470262,0.74490886926651,0.336793839931488,-0.4207265973091125
5.096500732421875,-1.9926687319502236,1.4629459155522286,-12.884451179188488,0.6966850757598877,0.2068517208099365,-0.3922113478183746
5.106526611328125,-0.6521742340032011,1.3905293525084852,-15.665090782010555,0.273382306098938,-0.1447161585092544,-0.0748376324772834
5.116552734375,1.645416259986162,0.2575213111018762,-16.958893744474647,-0.3912294209003448,-0.4847499430179596,0.3148968517780304
5.12657861328125,2.8107643997117875,-1.201321954904497,-17.753349008929728,-1.1008909940719604,-0.6614157557487488,0.5733641386032104
5.1366044921875,2.681801042929292,-2.1619401337236166,-17.953713760364053,-1.622659683227539,-0.9674007892608644,0.6162830591201782
5.146630859375,1.812859423419088,-2.186545874930918,-17.3811488504529,-1.7300732135772705,-1.3344579935073853,0.4237644672393799
5.15665673828125,-0.1381889023000374,-0.6221446411162614,-17.083884398233888,-1.4099910259246826,-1.357471227645874,-0.0334580093622207
5.166682861328125,-2.704160466514528,1.253170215563476,-16.947528300851584,-0.8722295761108398,-1.116722822189331,-0.6220186948776245
5.176708740234375,-4.031507678923011,1.615107923223078,-15.515877541142702,-0.362051397562027,-0.8329275250434875,-1.1513996124267578
5.18673486328125,-3.896501534844935,0.6136947926789522,-13.118532322263716,0.0278809126466512,-0.5833696126937866,-1.4642683267593384
5.196760498046875,-2.955275161977112,-0.928462314493209,-11.015666893321274,0.2953484952449798,-0.4549257159233093,-1.41197669506073
5.206786376953125,-0.7474277019508182,-2.6775118213027715,-9.47848479808271,0.4406012892723083,-0.4546234607696533,-0.988732635974884
5.216811767578125,1.536848917761445,-3.843538590942323,-7.912598001885414,0.4329277873039245,-0.463173508644104,-0.3547089695930481
5.226837646484375,2.844271824777126,-3.900409940460324,-5.877365847232937,0.2728792428970337,-0.3544632792472839,0.2351708263158798
5.23686376953125,3.010099808098376,-3.37506446236372,-3.400230467802286,0.0243888068944215,-0.0997394472360611,0.5573597550392151
5.2468896484375,2.3526646578922867,-2.620822550353408,-0.703021427860856,-0.2242361903190612,0.2954752445220947,0.5886899828910828
5.25691552734375,1.5961995168745515,-1.74783706227988,1.7782056047976016,-0.380697637796402,0.6969591379165649,0.4196844398975372
5.266941650390625,1.0548295903678984,-0.932903950202465,3.6064971367567775,-0.3681613504886627,0.9283841252326964,0.1554010957479477
5.2769677734375,0.5887172224845737,-0.2034091606315225,4.528692645940184,-0.143911987543106,0.8687378168106079,-0.1460362523794174
5.28699365234375,0.1810812098967842,0.2588951567383483,4.682276941499114,0.2706287205219269,0.5040197968482971,-0.4579824209213257
5.29701953125,-0.0810120213636662,0.0830871928030625,4.463831174451112,0.7562934160232544,-0.0500769764184951,-0.7489160299301147
5.307045654296875,-0.1426092486260924,-0.3819155698705464,4.707036119702458,1.1531769037246704,-0.5963032841682434,-0.943008303642273
5.317071533203125,0.0592446910532191,-0.7166488250665366,5.500794634065032,1.3273096084594729,-1.0105226039886477,-0.9553602933883668
5.32709765625,0.3937618558131158,-0.6930308527875692,6.779010151296854,1.2956973314285278,-1.1654345989227295,-0.8066480159759521
5.33712353515625,0.6009276655644178,-0.3544760665420443,8.103567732986807,1.13787841796875,-1.0853519439697266,-0.5668917894363403
5.347148681640625,0.4550746218446642,-0.1009890341912396,9.27050080381632,0.9735166430473328,-0.7283132672309875,-0.3037358224391937
5.3571748046875,0.3051986427517608,0.0174277393367141,9.770682030040025,0.8273903131484985,-0.2359096109867096,-0.0598736703395843
5.36720068359375,0.0838947828589007,0.2224025418497622,9.9263437163949,0.6654722690582275,0.2933076322078705,0.1412045806646347
5.377226806640625,-0.0858649504207074,0.4472581759400665,9.85806805254817,0.4713353216648102,0.7058449983596802,0.294465035200119
5.387252685546875,-0.2596824346585199,0.7127575167164206,9.375371629610656,0.2498841434717178,0.92575341463089,0.4197068214416504
5.397278564453125,-0.3048100087603554,1.0704524722397326,8.615777250656485,0.0398767702281475,0.9537341594696044,0.5085628032684326
5.407304931640625,-0.3273335733987391,1.4103094271250067,7.718655392453074,-0.0978435426950454,0.7976574897766113,0.5314359068870544
5.417330810546875,-0.4144172154268249,1.803617109429836,6.747041480106115,-0.1399143189191818,0.4957533180713653,0.4829613864421844
5.42735693359375,-0.511615935690701,2.238532228886336,5.978289396706223,-0.1103753373026847,0.13754403591156,0.3619004786014557
5.4373828125,-0.576205056511797,2.685393514463305,5.580178551903367,-0.0436726324260234,-0.1872882694005966,0.1761982440948486
5.447408935546875,-0.6674019060123711,3.0144261468648907,5.55652412007153,0.0203857105225324,-0.4609347283840179,-0.0363987050950527
5.457434814453125,-0.7178188917592168,3.0042534201577302,5.8871390532284975,0.0794514790177345,-0.6013373732566833,-0.2021547704935073
5.467459716796875,-0.5192857396662235,2.757356926912069,6.319035263255239,0.1029280424118042,-0.5700556039810181,-0.2853071689605713
5.47748583984375,-0.2099618702106177,2.557945530679822,6.808152659150958,0.0137562667950987,-0.3940619528293609,-0.2860074639320373
5.48751171875,0.1609853107967414,2.343519082275778,7.254179685860872,-0.2149956822395324,-0.1303608268499374,-0.2380474060773849
5.497537841796875,0.4835279053255915,1.8859141382358968,7.438475346025824,-0.55609530210495,0.1520451754331588,-0.1345158070325851
5.507563720703125,0.5861136158574373,1.3791716538004577,7.272451840132474,-0.7674344778060913,0.3980746567249298,0.0376314483582973
5.517589599609375,0.6423632532805204,1.0929140410251914,6.531359332552552,-0.708290159702301,0.6203335523605347,0.2704050242900848
5.52761572265625,0.8585300425458698,0.9886132702037692,4.76518377276659,-0.6324918270111084,0.7226154208183289,0.4206421971321106
5.537641845703125,0.9262163621973246,0.7312032739892601,3.8447611184746022,-0.6928462386131287,0.6742517352104187,0.4155797064304352
5.54766796875,0.5531987863903864,0.2794775059147737,4.053947474268079,-0.8389576077461243,0.6425291895866394,0.3258000016212463
5.55769384765625,0.5079004588315263,0.0633866131635382,3.7890573514312496,-0.9539585709571838,0.6190975308418274,0.3025994896888733
5.567719970703125,1.282900898569077,-0.1360917930234689,3.039484015753865,-1.0202912092208862,0.5938971042633057,0.3524224460124969
5.577745849609375,1.9911438604705036,-0.4211826179085299,2.2572008351296184,-1.123193621635437,0.5984516739845276,0.4216519594192505
5.587771728515625,2.234994702409953,-0.4239699105395004,1.7501275113046169,-1.2005385160446167,0.632946252822876,0.5069388747215271
5.597796875,2.517678986743092,-0.1656130253963172,1.1429331865608692,-1.1790783405303955,0.7726531028747559,0.5068500638008118
5.60782275390625,1.9209281684719024,0.4112720492688939,0.06344751303792,-1.0455743074417114,0.9407062530517578,0.3729175627231598
5.617848876953125,0.3778932920845225,1.2134466193970292,-1.160861641961336,-0.7643401026725769,1.1995325088500977,0.1818843632936477
5.627874755859375,-0.7783109890576452,1.9590403108537195,-3.231104904240369,-0.4714363515377044,1.4116400480270386,0.0038656378164887
