seconds_elapsed,ax,ay,az,gx,gy,gz
0.07040869140625,-0.1833777416024357,-0.0190535139076411,1.3669453555643558,0.2376138716936111,-0.4051143229007721,0.1302653700113296
0.080434814453125,-0.9211148012746124,-0.0768901282612234,0.2582312494695186,0.3255736529827118,-0.2786694467067718,0.0422853119671344
0.090460693359375,-1.2522285507991908,-0.0686029961049556,-1.0171949293047189,0.3672697246074676,-0.0834445431828498,-0.0025615217164158
0.10048681640625,-1.0096940521553155,-0.1334895289700478,-2.6001164469331504,0.3496200144290924,0.1453811079263687,0.0131186041980981
0.1105126953125,-0.7793450082805007,-0.3164966836944222,-4.659042196384072,0.2887132465839386,0.355067491531372,0.0472534075379371
0.120537841796875,-0.5015964998491108,-0.5473481241334229,-6.825784761953353,0.1774098426103592,0.4364125728607178,0.0493402741849422
0.130563720703125,-0.5316007390990853,-0.8233400712210684,-8.970413110870123,0.0247409343719482,0.3945903182029724,-0.0345807261765003
0.140589599609375,-0.7045611315835267,-0.8817574080720544,-11.246215186095236,-0.0719899386167526,0.2624683082103729,-0.1485902070999145
0.15061572265625,-0.244500574552454,-0.7611920234091579,-13.407681272566318,-0.0669927895069122,0.0973006784915924,-0.1891331076622009
0.1606416015625,0.5161687766894698,-0.5886628619488329,-14.904192919242382,-0.0612179152667522,0.0388127490878105,-0.2065913677215576
0.170667724609375,0.9720194244079292,-0.500410943326354,-15.414119294410945,-0.1410437673330307,0.1666388809680938,-0.2054310292005539
0.180692626953125,1.4943813566491009,-0.501309937992692,-15.17260537098646,-0.3611708283424377,0.4231612384319305,-0.1613796800374984
0.190718505859375,1.9744277034692463,-0.5201568964775651,-14.4990385856688,-0.6453806757926941,0.7962921857833862,-0.1327466964721679
0.20074462890625,2.226102809293568,-0.8314031853631139,-14.006295985013246,-0.8204522132873535,1.1676281690597534,-0.1088501438498497
0.2107705078125,2.397877279929072,-1.0512803003884852,-13.614720094937086,-0.8986164927482605,1.3313387632369995,-0.1032391265034675
0.220796630859375,2.1632155604869125,-1.1097459333606063,-12.82641166267395,-0.9383664727211,1.198989987373352,-0.2194605767726898
0.230821533203125,0.9996187944732606,-1.2469693150967358,-12.030489248275757,-0.8556129932403564,0.7641926407814026,-0.4768401682376861
0.240846435546875,-0.4002532636590302,-1.084057219222188,-11.261495757335425,-0.589586079120636,0.1736000031232834,-0.7643331289291382
0.25087255859375,-1.714121547421813,-0.6721643711738288,-10.164943213677406,-0.2106925398111343,-0.425180584192276,-0.9937031865119934
0.2608984375,-2.5378037831440565,-0.5510316349517553,-8.378455518224834,0.1861979365348816,-0.8364222049713135,-1.1558812856674194
0.27092431640625,-2.910141596525907,-0.8080819310083985,-5.823410385161638,0.4907051026821136,-1.0851227045059204,-1.2293556928634644
0.28095068359375,-2.575819333283603,-1.3394232885189354,-2.5508237159758806,0.6443276405334473,-1.1183346509933472,-1.119654417037964
0.2909755859375,-1.7167007502600549,-1.740717877924442,0.8521627725362777,0.6317588686943054,-0.9086713790893556,-0.8396735787391663
0.301001708984375,-1.0474948635656387,-1.9593515687599776,4.101144109728932,0.4669824242591858,-0.5547282695770264,-0.4580208957195282
0.311027587890625,-0.6251218302961439,-2.0333108312010766,6.898648922634124,0.1862623244524002,-0.1612787246704101,-0.0830369070172309
0.321053466796875,-0.5061264714289456,-2.002621678426862,8.98753960223794,-0.1716674268245697,0.158836618065834,0.217243805527687
0.33107958984375,-0.5053975726325065,-1.9145546879172324,10.22338605029583,-0.5279214382171631,0.3436823785305023,0.4365585744380951
0.34110546875,-0.1969380283886566,-1.9039801024109124,10.59198321584463,-0.7507734894752502,0.3813003301620483,0.621847927570343
0.351130859375,0.1796055478536523,-1.7241168717354536,10.45082351757288,-0.7699293494224548,0.3537904024124145,0.7860656380653381
0.36115673828125,0.2753306336347013,-1.3106437687583268,10.150955604857206,-0.6335433125495911,0.2654584646224975,0.8956633806228638
0.3711826171875,-0.0136911009585019,-0.847420400314778,10.162954670208691,-0.4096931219100952,0.1319483518600464,0.8959568738937378
0.381208740234375,-0.5331467264320701,-0.5332277557790279,10.405336024117467,-0.1227954179048538,-0.0172565653920173,0.7899683117866516
0.391234375,-0.8219822268713265,-0.1543944794306531,10.713460893046856,0.1809354424476623,-0.129213735461235,0.6465640068054199
0.401260498046875,-0.7782574322395026,0.1708766450129449,11.092338629591463,0.4321101903915405,-0.1577482223510742,0.5211620926856995
0.41128564453125,-0.5982669584551826,0.3577938127879053,11.427999155700206,0.5784232020378113,-0.1152534931898117,0.4427918791770935
0.4213115234375,-0.4696478120004758,0.5898680364875123,11.787104854804276,0.6023731827735901,0.0023430972360074,0.4227217435836792
0.431337646484375,-0.2905409526502713,0.7777614654161036,11.990242578083276,0.5298648476600647,0.1841693520545959,0.4175866544246673
0.441363525390625,-0.218367715109419,0.8704223595872521,11.915311548000574,0.4131841659545898,0.3748293220996856,0.4147119522094726
0.451389892578125,-0.1500951748015359,1.014791813685745,11.563637460201978,0.2876448929309845,0.5489761233329773,0.4170491397380829
0.461415771484375,-0.0737984275898896,1.168876094656065,10.926447810167074,0.1863840520381927,0.669061541557312,0.4021062552928924
0.471440673828125,-0.0823789532021619,1.349272336229682,10.190358225440978,0.1112685352563858,0.6942406892776489,0.3597835600376129
0.481466796875,-0.1509690715592354,1.493344122555852,9.427003032648562,0.062623344361782,0.6171241998672485,0.2939266562461853
0.49149267578125,-0.114018191509135,1.599322617331147,8.546866211515665,0.0662686824798584,0.4254724681377411,0.2167913913726806
0.501518798828125,-0.1051150098137557,1.669849567236006,7.763137508258223,0.1274247765541076,0.1717590689659118,0.1265536248683929
0.511544677734375,-0.2499762660171836,1.6961524677500128,7.206618893262743,0.2301490306854248,-0.0785719528794288,0.0192378163337707
0.52157080078125,-0.3775159832047298,1.7606117881789802,6.844257991755009,0.3335646390914917,-0.267241895198822,-0.087190642952919
0.531595703125,-0.347298466530256,1.7573890267401933,6.717199884071945,0.4061879813671112,-0.4095460474491119,-0.1769516915082931
0.54162158203125,-0.1789720539893955,1.624664271597564,6.692803109440207,0.4272359907627105,-0.5376366972923279,-0.2294834852218628
0.551647705078125,-0.0568319856219924,1.5892027898550032,6.803540196919441,0.377519816160202,-0.6148307919502258,-0.2557401061058044
0.561673583984375,0.0464554251721128,1.346941116803139,6.859570127177238,0.2782348394393921,-0.6519599556922913,-0.2466212064027786
0.571699462890625,0.2850647679951973,1.005625049150735,6.846247119745612,0.1732735335826873,-0.6902871131896973,-0.1800427138805389
0.581724609375,0.5409039164301007,0.796135472626984,6.741352328553796,0.04441948980093,-0.6845397353172302,-0.0896957293152809
0.59175048828125,0.5836068572008982,0.6286653481218963,6.467575719428062,-0.108318917453289,-0.6438540816307068,-0.0147253489121794
0.601776611328125,0.3964086805274709,0.5599790576476603,6.076535835924744,-0.2575792968273163,-0.571709930896759,0.0444029681384563
0.611802490234375,0.3180898711699992,0.4264404288388788,5.214055082991719,-0.3642477095127105,-0.4821185767650604,0.1184835880994796
0.621828857421875,0.4450094836978241,0.1112600153747946,4.013824722716212,-0.421732097864151,-0.4644187688827514,0.2052307575941085
0.631854736328125,0.5995928367640823,-0.5524627637334167,2.727109088164568,-0.4449812173843384,-0.5180849432945251,0.3123981952667236
0.641879638671875,0.8550028913330286,-1.3818980100244282,1.33133452847898,-0.3829816579818725,-0.6073994040489197,0.4933148026466369
0.65190576171875,1.314729576767236,-1.559794616802037,-0.4327554572045803,-0.1823814213275909,-0.4560218453407287,0.7127488851547241
0.661931640625,1.007884372384846,-0.7884478407338261,-2.988991261357069,0.055127777159214,0.2379936724901199,0.7949857115745544
0.67195751953125,-0.3491597668901086,0.2051512550584971,-5.9811611527502535,0.1086067110300064,1.508922815322876,0.7337095737457275
0.681983642578125,-0.7147142037421464,1.0829610945485533,-8.763716818326712,-0.211212158203125,2.985907793045044,0.7342715859413147
0.692009521484375,1.3734597058944404,0.5180310268973931,-11.430896046185492,-0.8824142217636108,4.035737037658691,0.8559189438819885
0.70203466796875,5.121789471748471,-2.588966107365489,-14.458282212388514,-1.6930882930755615,4.248323917388916,1.0508766174316406
0.712060546875,7.85510559785962,-5.109629662877321,-17.166719333308933,-2.35645604133606,3.290690660476685,1.2870821952819824
0.72208642578125,7.671013935834169,-4.7069759139478204,-20.60557500758171,-2.3184304237365723,2.0161850452423096,1.256144881248474
0.732112548828125,4.0619013558819885,-2.866950397314131,-24.96139004395008,-1.3632947206497192,0.8532924652099609,0.8382976055145264
0.742138427734375,0.5233968282468616,-1.8634458474487063,-27.22522461800575,0.1289838403463363,-0.1483044475317001,0.1470682471990585
0.75216455078125,-2.6031916165947915,-1.119211680842191,-26.649828284060952,1.5400608777999878,-0.7854803800582886,-0.6818427443504333
0.762189453125,-4.280493837924301,-1.11088604330644,-23.67503739749193,2.414769172668457,-1.0509767532348633,-1.3450324535369873
0.77221533203125,-2.880879261684417,-1.835743163139373,-19.43783354297876,2.620643377304077,-1.054793357849121,-1.49433434009552
0.782241455078125,-0.2636229524452239,-2.8450322877556085,-14.9408611464262,2.166590452194214,-0.9167219996452332,-1.1234811544418335
0.792267578125,1.4446059567414222,-3.844914555470645,-10.740166529142856,1.3088172674179075,-0.8170824646949768,-0.5427199602127075
0.802293701171875,1.4653095759436487,-4.119375055207312,-7.713816720250248,0.4857519567012787,-0.8420246243476868,-0.0126893790438771
0.812319580078125,0.3916123496290296,-3.1561767967671157,-6.035268590512872,-0.016045119613409,-0.9337039589881896,0.3248713314533233
0.822344482421875,-1.1242775128643958,-1.4884788546070455,-4.515353271895647,-0.1681731641292572,-1.0388290882110596,0.4773592948913574
0.83237060546875,-2.346959431988001,0.1751321105003356,-2.7104157275170087,-0.078382022678852,-1.0205347537994385,0.4459883272647857
0.842396484375,-3.263978123055398,1.454096400272846,-0.572946602705121,0.0886078849434852,-0.9350355863571168,0.264045238494873
0.852422607421875,-3.5260613717779514,2.071160377123952,1.688356407046318,0.2140632718801498,-0.8175827264785767,0.0262329429388046
0.862448486328125,-3.13847893525213,2.423601065380871,3.543649927699566,0.2990051209926605,-0.6396000385284424,-0.2118666321039199
0.872474609375,-2.477898472757637,2.513264677432179,4.761317744988203,0.3870265781879425,-0.4952770173549652,-0.3819611072540283
0.882499755859375,-1.508721870560199,2.3326044511601327,5.691141264832019,0.4692549109458923,-0.4006184637546539,-0.4580216407775879
0.892525634765625,-0.872310803682357,2.1702380064696074,6.576909954372048,0.4953759908676147,-0.3562230169773102,-0.4801908731460571
0.9025517578125,-0.3604518530160188,1.9480381475850936,7.555911054360866,0.4375917017459869,-0.3328746557235718,-0.4620848000049591
0.91257763671875,0.0548757004550658,1.9312687990918755,8.36799900614023,0.3234020173549652,-0.3470338881015777,-0.4271734356880188
0.922603759765625,0.3198156355166807,2.0713545845218,8.897078994590043,0.1807336807250976,-0.3642228245735168,-0.3801867663860321
0.93262939453125,0.6544225243866443,2.2378004074804485,9.198644358873366,0.0513261556625366,-0.3810238838195801,-0.3253136575222015
0.942654541015625,0.7744933304656296,2.620135737133026,9.413100764024255,-0.0393402986228466,-0.3966062068939209,-0.3137803375720978
0.9526806640625,0.734438821844384,2.8035464311569926,9.353722692382336,-0.0913182869553566,-0.391895592212677,-0.3299856781959533
0.96270654296875,0.8938497046649455,2.8381664936393496,9.27461817600727,-0.1039777249097824,-0.3939965665340423,-0.3445769250392914
0.97273291015625,0.928692396922037,2.894462965878844,9.247065567693111,-0.1145174503326416,-0.3877362608909607,-0.3504854142665863
0.9827587890625,0.8695134280487895,2.8817770873069763,9.207187730813024,-0.1557649821043014,-0.3595238029956817,-0.3407704532146454
0.99278466796875,0.9323147521376608,2.7778806595027445,9.122668203651903,-0.2285124212503433,-0.3310692608356476,-0.3073142468929291
1.002809814453125,0.9047264879882336,2.6314409750014542,8.981170651727915,-0.317617267370224,-0.3462426960468292,-0.2570919096469879
1.012835693359375,0.7101456537175923,2.3836342350430786,8.692360139599442,-0.3809240758419037,-0.3774472177028656,-0.2081816345453262
1.02286181640625,0.6328491366125643,2.1397353161782027,8.261165355840324,-0.3986959457397461,-0.4209334552288055,-0.1369057297706604
1.0328876953125,0.6997133262261748,2.0514565826140343,7.989827956560253,-0.4067421555519104,-0.4325208961963653,-0.0476991571485996
1.04291357421875,0.7429893541771918,2.014578365941345,7.890538145768642,-0.4308029115200043,-0.3749346137046814,0.0356108695268631
1.052939697265625,0.7822542467907071,1.971652831928432,7.890798258009553,-0.465337723493576,-0.2769542634487152,0.1180527508258819
1.062964599609375,0.9701324416175484,1.896371965494752,7.782735942697524,-0.5052152872085571,-0.1900987476110458,0.2234562039375305
1.072990478515625,1.222715309936553,1.833278380461037,7.636245404791832,-0.5556323528289795,-0.1267482638359069,0.3422824442386627
1.0830166015625,1.2097457921177148,1.7463744423814116,7.439312965893745,-0.6163974404335022,-0.0880418419837951,0.4277865588665008
1.09304248046875,1.0453463802948593,1.655783194091171,7.302137953343987,-0.6875773668289185,-0.0797556862235069,0.4397156536579132
1.103068603515625,0.7242975862540304,1.5812924551218748,7.157478137996792,-0.7306435108184814,-0.071837842464447,0.4047459959983825
1.113094482421875,0.8242748678531497,1.3781589696265757,6.6734320540159935,-0.716706395149231,-0.0829277783632278,0.4109551310539245
1.123119384765625,1.320998720164597,1.117049826633185,6.157675072997808,-0.6642861366271973,-0.1368488371372223,0.4471795856952667
1.1331455078125,1.6115505230024456,0.6337466699741781,5.621778390270471,-0.6108573079109192,-0.2241504490375518,0.5198330283164978
1.143171630859375,1.9691718287676567,0.0473727774790488,5.0506630946457385,-0.600141704082489,-0.3146311938762665,0.6301486492156982
1.15319775390625,2.212399424242228,-0.5550352080373093,4.554713222381472,-0.622704267501831,-0.3559088706970215,0.7659903764724731
1.1632236328125,2.2205318772934377,-1.0699421115648,3.640427463409305,-0.6288405060768127,-0.2678861916065216,0.9217281341552734
1.173249755859375,2.4706436793237923,-1.5349755251049997,2.335170209994912,-0.6074697375297546,-0.1054120436310768,1.071793794631958
1.183274658203125,2.518120885291696,-1.7864494092687964,0.8781734121054411,-0.5646094679832458,0.1352940201759338,1.188279390335083
1.193300537109375,2.1155635824739933,-1.3946148682564496,-0.7658452560424804,-0.5273611545562744,0.515288233757019,1.206290602684021
1.20332666015625,1.2208225549925118,-0.6196659029778093,-3.3701410344868896,-0.5054786801338196,1.1288968324661257,1.147452473640442
1.2133525390625,0.0213230845411308,0.4209804098673164,-6.513457180637121,-0.6352081298828125,1.8916059732437132,1.055309534072876
1.223378662109375,-1.2999739061839877,1.303781043381989,-9.854202024769782,-0.9078572392463684,2.657933235168457,0.9029070734977722
1.233404541015625,-1.6517638754472137,0.7246822016574442,-13.97961723692417,-1.1287137269973757,3.010491847991944,0.7166687250137329
1.243430419921875,0.0231836725149303,-1.786552577382326,-18.16611147941947,-1.2365273237228394,2.3859691619873047,0.6160931587219238
1.25345654296875,1.7941129296340048,-3.004867460402846,-20.95373261169195,-1.169538974761963,1.0086780786514282,0.6546556949615479
1.263482421875,1.0051726292081176,-1.4937125174768269,-22.824532329034803,-0.8233380913734436,-0.1472612619400024,0.546728789806366
1.273508544921875,-1.4681459684133529,-0.1597916988316923,-23.47637711188793,-0.2844371199607849,-1.0256404876708984,0.2054793089628219
1.283534423828125,-2.8430867066457868,0.3284608969282359,-21.851198168766494,0.2689184844493866,-1.5885775089263916,-0.2309455722570419
1.293560546875,-3.83740870988518,1.0404898071091622,-19.47542063857317,0.6909176707267761,-1.5859260559082031,-0.7319064140319824
1.30358544921875,-5.456845017701387,1.2477160418108104,-17.18370437037945,0.9099496603012084,-1.1942811012268066,-1.2246242761611938
1.313611328125,-5.549126995557546,0.7893127139348536,-15.315329249835012,0.9844278693199158,-0.8324098587036133,-1.4467082023620603
1.323637451171875,-3.738133219879866,0.1852721405142918,-13.749142593908308,0.9315472841262816,-0.6639875173568726,-1.336655616760254
1.333663330078125,-1.897454353903979,-0.9568306231044232,-11.96796644886732,0.7508798241615295,-0.7895249724388123,-1.0157934427261353
1.343689453125,-0.4789224208241328,-2.1468676522761583,-9.817513923841714,0.4954854547977447,-1.1152628660202026,-0.5740125179290771
1.353715576171875,0.3694084088664501,-2.5512916257485747,-7.227722471567988,0.222816914319992,-1.5081830024719238,-0.1162169873714447
1.363741455078125,0.2557092749775387,-2.2008257446959614,-4.371707602027058,0.0144459437578916,-1.8041752576828003,0.2317749708890915
1.3737666015625,-0.153519705890119,-1.4338009234800937,-1.8666630559295412,-0.0456698611378669,-1.908880829811096,0.3931910097599029
1.38379248046875,-0.5000001705683768,-0.5890525553861633,0.4730523962795734,0.0081095350906252,-1.7860554456710815,0.3483962118625641
1.393818603515625,-0.7481039207119494,-0.0897056976273655,2.528124392911792,0.1375266462564468,-1.395403265953064,0.175165593624115
1.403844482421875,-0.3566746725648641,0.0579587428959086,4.087833961778879,0.2973047494888305,-0.8884458541870117,0.0358710512518882
1.413870361328125,0.6541580282315611,-0.011018895207718,5.464856474721431,0.4089913368225097,-0.3949024677276611,0.0052588135004043
1.423896484375,1.6291694740623237,-0.2073336223325692,6.654521017318964,0.4161979556083679,0.0485567077994346,0.0269495230168104
1.43392138671875,2.070690421524644,-0.3154603263840079,7.684172108092904,0.3165829479694366,0.3798859119415283,0.0664830803871154
1.443947509765625,2.315401533555239,-0.2052888551645912,8.513615683820843,0.1531940549612045,0.575395405292511,0.1121028438210487
1.453973388671875,2.652879484349489,-0.0199657516480423,8.946002307713032,-0.0044810464605689,0.5650953650474548,0.1617332398891449
1.463999267578125,2.766030647233128,0.0947168585865758,9.039896396940946,-0.0911692678928375,0.4023535251617431,0.1982947587966919
1.474025390625,2.572278007414937,0.3270345539195463,8.906605532348156,-0.0911895036697387,0.1849410533905029,0.1933498084545135
1.48405126953125,2.242971380377561,0.665644394820556,8.911626575380563,-0.02120460011065,-0.057959895581007,0.1501830816268921
1.494076171875,1.7571493727654215,0.9636682140395044,9.039457421001792,0.0924905389547348,-0.2310994565486908,0.0638508647680282
1.504102294921875,1.2867663418255746,1.2460590683840214,9.350793068671226,0.2074818313121795,-0.2985393702983856,-0.0371935293078422
1.514128173828125,1.039676371834427,1.3815660015910862,9.75554642022848,0.3024807572364807,-0.2783888280391693,-0.1175307109951973
1.524154541015625,0.9622279521033168,1.436746329282224,10.112554854792355,0.345552921295166,-0.2218988388776779,-0.1528804749250412
1.534180419921875,1.095705936766043,1.439717454047501,10.52236665878296,0.3351151943206787,-0.1487005203962326,-0.1578169018030166
1.54420654296875,1.0947286892317234,1.4152378234378993,10.84120347586274,0.277006447315216,-0.0560915023088455,-0.1500880867242813
1.554231689453125,1.0587281321763993,1.3670590450718998,10.971360134083032,0.1816879212856292,0.034772090613842,-0.1327288001775741
1.564257568359375,1.1137602105032651,1.2326738093711436,10.943290223896502,0.083625353872776,0.1040539965033531,-0.1258480995893478
1.574283447265625,0.879306361658126,1.072050555086136,10.7809988902688,0.0012441959697753,0.1339056342840194,-0.149462878704071
1.584309326171875,0.68201641455926,0.8165859938509762,10.394546919077634,-0.0483319647610187,0.1035572737455368,-0.169407457113266
1.59433544921875,0.7780278612673283,0.5613093929359689,9.967351434087751,-0.07639741897583,0.0321467481553554,-0.1614371389150619
1.604361328125,0.9261289031095802,0.2806294889614917,9.527990295007823,-0.0793123170733451,-0.0389930382370948,-0.1386556476354599
1.614386474609375,1.0492269480552523,0.0660058831506874,9.065703038370607,-0.0621053650975227,-0.1037288829684257,-0.1057445779442787
1.62441259765625,1.18716980317235,0.1298352442461997,8.850410766917467,-0.0595104768872261,-0.104998342692852,-0.0747349485754966
1.6344384765625,1.3029893084824085,0.3658069137757644,8.593823193001747,-0.1037615612149238,-0.0003180047497153,-0.0257634129375219
1.644464599609375,1.5474723108455537,0.6718603467259555,8.214502973386645,-0.2003216296434402,0.1845302283763885,0.0435128360986709
1.654490478515625,1.815299363917112,0.7904566232729703,7.65573745624721,-0.3368269801139831,0.3303447067737579,0.1101278215646743
1.6645166015625,1.9193015901833768,0.4606707248186692,6.852513194403052,-0.4611704349517822,0.3350776433944702,0.1842436492443084
1.67454150390625,2.262437712869793,-0.2265845037095248,5.71672754150927,-0.5278594493865967,0.2292617410421371,0.2930007576942444
1.6845673828125,2.696004048065841,-0.6974159360039979,4.428243728241324,-0.549737811088562,0.0262032598257064,0.4279923737049103
1.69459375,2.758304436895251,-1.1222101320058109,3.129054396563768,-0.5246926546096802,-0.1882973313331604,0.5380648374557495
1.70461962890625,2.5608254700303075,-1.3595748267963528,1.652908077046275,-0.3988672494888305,-0.3673855364322662,0.6286683678627014
1.714645751953125,2.47103940064311,-1.2888587840601802,-0.0040045594662427,-0.1714466214179992,-0.435953140258789,0.7687618136405945
1.724671630859375,2.3992628890685737,-0.9215187789656222,-1.4945383007764816,0.0823119729757309,-0.3648085296154022,0.9511210322380066
1.734697509765625,1.570249813712388,0.2030124894641339,-2.7559347851544618,0.2689886391162872,0.0904588624835014,1.119990348815918
1.74472265625,0.1224431612335145,1.928163380422443,-4.281392540329694,0.3001902401447296,0.9435339570045472,1.2200242280960083
1.75474853515625,-1.684311223308742,3.42861806563586,-6.319753056135773,0.1413500010967254,1.9905872344970703,1.116486668586731
1.7647744140625,-3.1740883010327816,3.1824279670938846,-9.428701068738102,-0.1333906501531601,2.85870361328125,0.8534840941429138
1.774800537109375,-2.0878077066726983,1.1166027404528112,-13.340402803063393,-0.3804931044578552,3.0319457054138184,0.6161463260650635
1.784826416015625,0.6555459754586219,-0.7887228582829237,-17.11760195891857,-0.5574514269828796,2.4152135848999023,0.5311691761016846
1.7948525390625,0.9366111341573298,-0.5076700841417536,-20.099870049500463,-0.5292738080024719,1.4241220951080322,0.4291672110557556
1.80487744140625,-1.2921968424417078,-0.3063283043688163,-23.2543850505352,-0.0704269856214523,0.4289585649967193,0.1737562268972396
1.8149033203125,-3.639431730370224,-0.1945899308925494,-25.4914157888174,0.6522574424743652,-0.4868788421154022,-0.1585279703140258
1.824929443359375,-5.429520372924208,0.3943069224752485,-25.350342599785325,1.3017046451568604,-1.102350831031799,-0.4631208479404449
1.834955322265625,-4.813908932968974,-0.3535533256739377,-23.029042509710788,1.6670172214508057,-1.4961978197097778,-0.5700366497039795
1.844981689453125,-2.2960424608297645,-1.7150681806221604,-19.05622024399042,1.6470332145690918,-1.5799953937530518,-0.377837061882019
1.855007568359375,-0.1321668015994597,-2.1753880827091634,-14.484893155938384,1.281131625175476,-1.2620384693145752,0.0130726564675569
1.86503369140625,1.0668810434937477,-2.1566313597910103,-10.096371781754494,0.7316712737083435,-0.6724921464920044,0.4091291725635528
1.87505859375,1.6958337571896611,-2.0109706968382,-6.630165743741393,0.1430639028549194,-0.0487348027527332,0.6856206655502319
1.88508447265625,1.8799717425748703,-1.5484166059583424,-4.089444904106856,-0.3776985704898834,0.3957437872886657,0.764681339263916
1.895110595703125,1.635280065897107,-1.0178597498890012,-2.6833272295832638,-0.6779915690422058,0.462780088186264,0.6602063179016113
1.905136474609375,1.4620708862833678,-0.4860230831421911,-2.0428876378417016,-0.6557348370552063,0.1563089042901992,0.4261176884174347
1.91516259765625,1.1303704959772527,0.0583983307564165,-1.6116344018936155,-0.3410554528236389,-0.3854251801967621,0.0977659225463867
1.9251884765625,0.6305390330392867,0.5677724514702335,-0.6256389129728078,0.1383145004510879,-0.971936583518982,-0.2929286658763885
1.93521337890625,0.2902102959237992,0.9241836142607032,1.0458750803440808,0.6523008346557617,-1.4142570495605469,-0.6548314690589905
1.945239501953125,0.3306241028441116,1.2581849749855696,3.206559076526761,1.0763630867004397,-1.5558806657791138,-0.921661376953125
1.955265380859375,0.6061045567456632,1.5568625088728962,5.609409322562813,1.3086445331573486,-1.4138307571411133,-1.0758455991744995
1.96529150390625,0.9644895403597504,1.619287254734337,8.026102215990424,1.3066853284835815,-1.0650920867919922,-1.112602472305298
1.9753173828125,1.2251758548311888,1.5113181706637142,10.05762265664339,1.0905964374542236,-0.6240453720092773,-1.027294039726257
1.98534326171875,1.5172342628397046,1.097650421897322,11.295193444275856,0.698659360408783,-0.216182678937912,-0.8145961761474609
1.995368408203125,1.806432605241984,0.7980871912166476,11.795837611836197,0.2290796190500259,0.0854038074612617,-0.512874960899353
2.005394287109375,1.6181822161018848,0.6280461202450096,11.667005480217933,-0.1941830366849899,0.2543545961380005,-0.2468079477548599
2.015420654296875,0.9188342891220004,0.5787766970980912,10.772427461278438,-0.4426066875457763,0.3436983227729797,-0.0711093470454216
2.025446533203125,0.1753773904982954,0.7871021252132951,9.587296470457314,-0.5153833031654358,0.3649773299694061,0.0539167784154415
2.035472412109375,-0.2484049981124699,1.0663812772780656,8.621980781471729,-0.463183730840683,0.3063038885593414,0.1560860127210617
2.04549853515625,-0.3320986689087003,1.2666530897319317,7.9703493491083375,-0.3465246260166168,0.1642080098390579,0.2367022335529327
2.0555234375,-0.4725288838621229,1.5357234208628534,7.65687493584454,-0.2247672826051712,0.0074445037171244,0.262306660413742
2.065549560546875,-0.5818124845974147,1.818983020865917,7.5814312800645824,-0.1450779736042022,-0.1268740594387054,0.2548647224903106
2.075575439453125,-0.5052012463428079,1.9644860090389848,7.626490318974852,-0.1036940589547157,-0.2071419954299926,0.2402242571115493
2.085601318359375,-0.2489798023257404,2.0510189218491317,7.728406386616825,-0.1042747944593429,-0.2482741475105285,0.2367400377988815
2.09562744140625,0.0193954592131078,2.083028509572148,7.911213854050636,-0.1683104932308197,-0.2773806452751159,0.2218761295080185
2.1056533203125,0.1633523139227181,1.924780459985882,8.072395765131711,-0.2770819365978241,-0.2963879704475403,0.1965992152690887
2.115679443359375,0.3529480532571673,1.7158780357003212,8.052303994217514,-0.3804493248462677,-0.2927935123443603,0.1776449680328369
2.125704345703125,0.6493745202820748,1.455518980421871,7.764383708927035,-0.4485178291797638,-0.2795597910881042,0.1795740723609924
2.135730224609375,0.9542518586575984,1.1551184221342206,7.426616565927863,-0.4950677454471588,-0.2784442007541656,0.1893145889043808
2.14575634765625,1.0596456854127347,0.8550804866138845,7.122664598768949,-0.5159863829612732,-0.2658984661102295,0.2034215331077575
2.1557822265625,1.2059229458939282,0.5897546392409131,6.735834441915154,-0.5189241170883179,-0.2742157578468323,0.2418509572744369
2.165808349609375,1.512630568436533,0.3721479168329387,6.454969920355081,-0.5101682543754578,-0.3105974495410919,0.2980363965034485
2.17583447265625,1.8589719169050452,0.1007180626295972,6.236956114983558,-0.4964540898799896,-0.3720669448375702,0.372045636177063
2.185859375,2.214967082773149,-0.126193755071843,6.046065294337272,-0.5184143781661987,-0.4144302308559418,0.4507288634777069
2.1958857421875,2.4383514752671123,-0.3706644733421504,5.576127230685949,-0.5835753083229065,-0.3987631201744079,0.517771303653717
2.20591162109375,2.65607652682513,-0.6802836724825203,4.739855270242691,-0.6773906350135803,-0.3825293779373169,0.5125722289085388
2.2159375,2.505387660446763,-1.1198172455199062,3.2978841920495032,-0.7211865782737732,-0.4327288866043091,0.4216838479042053
2.22596337890625,2.5096464869350195,-1.295144878592342,1.39211486813426,-0.6623988151550293,-0.5468481183052063,0.3246623277664184
2.2359892578125,2.344879410843551,-0.8229089863274246,-0.8472451898783445,-0.4664897322654724,-0.6569890379905701,0.2347580045461654
2.2460146484375,1.3834599986441432,0.4148471678093075,-3.764435535871983,-0.1274110376834869,-0.5378144383430481,0.1410317718982696
2.25603955078125,0.0587649081796407,2.6287492516994475,-7.007091177174448,0.1772029101848602,-0.0826373174786567,-0.0092626586556434
2.2660654296875,-2.203988738771528,4.680938094110787,-10.343450353568793,0.301809698343277,0.5322779417037964,-0.2419953793287277
2.276091552734375,-3.8905209991306062,4.692238363543153,-14.31244633899927,0.2610281705856323,0.977030634880066,-0.3962531089782715
2.28611767578125,-3.209984959322214,2.505732528361678,-18.624556673675773,0.0987709537148475,1.189971089363098,-0.3221789896488189
2.296143798828125,-0.062266413494572,-0.7151768528178334,-21.42261035263538,-0.2769957482814789,0.5479413270950317,0.0953870862722396
2.306169677734375,1.945288848876953,-1.788636105658114,-21.623618078148365,-0.6428053379058838,-0.579675555229187,0.4628467261791229
2.316194580078125,-2.3140175318509337,0.2921588727083057,-21.61683294805288,-0.6188991665840149,-1.1533993482589722,0.2972721457481384
2.326220703125,-6.981082875692844,1.7711007412284612,-20.99457666325569,-0.2459969371557235,-1.3180861473083496,-0.1143728941679
2.33624658203125,-7.27866998399496,1.2413820164836942,-18.037679160773752,0.1080269291996955,-1.113018035888672,-0.5447103977203369
2.346272705078125,-7.5760191918879745,0.0920907296003773,-14.438078797793388,0.2510638236999511,-0.457708328962326,-0.8660446405410767
2.356298583984375,-7.108778112235665,-1.5880283392481505,-11.472729108786584,0.1879075020551681,0.1545550376176834,-0.8373985886573792
2.36632470703125,-4.450910318079591,-3.370578841382265,-9.309216611179709,0.057504866272211,0.4881989359855652,-0.475959300994873
2.3763505859375,-2.2826751758649944,-4.604207028868794,-7.721953264954686,-0.0643994659185409,0.6786751747131348,0.0205047894269227
2.38637548828125,-1.0915500591956078,-4.710177924859524,-6.093727209222316,-0.2083025276660919,0.7832624316215515,0.4934910535812378
2.396401611328125,-0.2812443146578967,-4.194283581197261,-4.294797380825877,-0.361799418926239,0.720088541507721,0.748326301574707
2.406427490234375,-0.7432644447915255,-3.504333524094522,-2.807400768497586,-0.4077834784984588,0.4698005318641662,0.6963589787483215
2.41645361328125,-1.4216511976115405,-2.6342832126900557,-1.8791227245301008,-0.240066647529602,0.0378493964672088,0.4698012173175812
2.4264794921875,-1.6215508157521483,-1.6743443944372236,-0.8897674037873744,0.1147753372788429,-0.471146672964096,0.1824565976858139
2.436505615234375,-1.5768233468838035,-0.911861162173748,0.6445756686329841,0.5563985109329224,-0.8900430202484131,-0.103978082537651
2.446530517578125,-1.4191146648712456,-0.4192195376746356,2.736300694879889,0.922886073589325,-1.0855270624160769,-0.3748090863227844
2.456556640625,-1.1820694112934171,0.028101766629517,5.08894810937643,1.1208043098449707,-1.0374056100845337,-0.5631718635559082
2.466582763671875,-0.409593631195277,0.3842459125142544,7.252006433475017,1.156931757926941,-0.8170693516731262,-0.6284632086753845
2.476608642578125,0.5674278392836452,0.5984437397941946,8.896483951306342,1.08689546585083,-0.4868070483207702,-0.58674556016922
2.486634521484375,1.4424877955436706,0.7557048972349614,9.9939354896307,0.9269471764564514,-0.1194645687937736,-0.4446122646331787
2.49666064453125,2.040556710676104,1.0824600862238556,10.746028114652631,0.6568232774734497,0.2304601371288299,-0.2709960043430328
2.5066865234375,2.1707002171538767,1.3321500826455652,11.166596290457248,0.3029046654701233,0.4996495544910431,-0.1263152360916137
2.516711669921875,2.24424154644385,1.3019457907788454,11.080959157443043,-0.0588138848543167,0.6323095560073853,0.0107446052134037
2.526737548828125,2.4436561575464903,1.4430042206332088,10.58636946761608,-0.3394866585731506,0.6701614856719971,0.1296799331903457
2.536763427734375,2.0884544801436364,1.7761090709097682,9.84365257370472,-0.4731714725494385,0.6649342179298401,0.1574061065912246
2.54678955078125,1.412776401760429,1.9861067430861288,8.92994841401279,-0.4490093886852264,0.5852250456809998,0.1123250424861908
2.5568154296875,1.1025739959046243,2.177963632285594,8.373501695209741,-0.3401750326156616,0.470061719417572,0.017451262101531
2.566841552734375,0.767088241840899,2.348231059359014,8.150854384818672,-0.2174162119626999,0.3540047407150268,-0.1261875182390213
2.576867431640625,0.5954141628399491,2.2203407386355103,8.074458542880416,-0.118736520409584,0.2113711684942245,-0.2608028650283813
2.586892333984375,0.9104011726237832,1.999930393516272,8.165583167394995,-0.0748777762055397,0.0721539556980133,-0.3594095110893249
2.59691845703125,1.0317664754927158,1.8178076934762295,8.240409568059444,-0.0845932513475418,0.0024180167820304,-0.4199415743350982
2.606944580078125,1.2200094119787217,1.5340584102600812,8.25626940049231,-0.1364360153675079,-0.0551882684230804,-0.4229176938533783
2.616970703125,1.604349213321507,1.099656135696545,8.270550439301132,-0.2128945738077163,-0.1258304864168167,-0.37354776263237
2.62699658203125,1.8329690222509205,0.6922131797291338,8.255608890756964,-0.2859220802783966,-0.1670546233654022,-0.3006796240806579
2.637022705078125,1.8562325550690293,0.4574149744257331,8.236555230718851,-0.3357375860214233,-0.1382653415203094,-0.2225009202957153
2.647047607421875,1.6583701418444514,0.2870030608477071,8.243464863976836,-0.3753065764904022,-0.0535527840256691,-0.1765280067920684
2.657073486328125,1.4753694899260996,0.1284630517106968,8.083635536548496,-0.4017448425292969,0.0328907631337642,-0.1475293785333633
2.667099609375,1.575846464675665,-0.0992803214440587,7.798419249519705,-0.4344087243080139,0.1130975484848022,-0.0882397145032882
2.67712548828125,2.089210997599363,-0.4782675005793571,7.310397832167149,-0.4551118910312652,0.1700852066278457,0.014996126294136
2.6871513671875,2.6726734413608906,-0.9365643724061548,6.697387514621019,-0.4626297950744629,0.1636861264705658,0.1717666834592819
2.697177490234375,2.958195141077041,-1.1566059572782368,6.132516666343808,-0.4848623871803283,0.1795905232429504,0.3203631043434143
2.707203369140625,2.7731284965395924,-1.2712649674415588,5.416993484306335,-0.4955417215824127,0.2335478365421295,0.4018582701683044
2.717228759765625,2.7225761209100483,-1.68849713069126,4.413576320463418,-0.4421232640743255,0.2724584639072418,0.4877265691757202
2.727254638671875,3.279592456294596,-2.0843892765313385,3.1248966923624275,-0.3385322690010071,0.3506366014480591,0.5837059020996094
2.73728076171875,3.731462948335707,-2.2953154617294667,1.838651597931981,-0.2759272158145904,0.5211479067802429,0.6595546007156372
2.747306640625,3.750650463886559,-2.3038902517206967,0.6333534328728914,-0.2967922985553741,0.822311520576477,0.7290939688682556
2.75733251953125,3.7109590894892808,-1.6149369505703448,-1.2137912681162355,-0.3548001945018768,1.200972080230713,0.8302900791168213
2.767358642578125,3.19497063780278,-0.4167289264352992,-3.964311042484641,-0.4070241749286651,1.582931637763977,0.901447296142578
2.777384521484375,1.7256529952615498,1.2083929162040352,-7.355560331451892,-0.4495889544486999,1.8773534297943115,0.8160831332206726
2.787409912109375,-0.1384719570251181,2.489024554666877,-11.29921729296446,-0.3909450769424438,2.0269217491149902,0.524450957775116
2.797435791015625,-1.57166859446913,2.8262539375275373,-15.501403610110282,-0.1852870136499405,1.9547595977783203,0.151008665561676
2.807461669921875,-1.3500988501816986,2.2931153213366864,-18.9471998973012,0.0396394953131675,1.5691983699798584,-0.2114111483097076
2.81748779296875,-0.3378455419976264,1.0554641619443892,-20.75334214129448,0.2319482266902923,0.6132633090019226,-0.4256483614444732
2.827513671875,-0.3917256007451564,1.311586164174974,-20.94254486272335,0.4668760299682617,-0.2063416838645935,-0.5063475370407104
2.837539794921875,-2.119719971501082,2.189972049987316,-20.96938610789776,0.7529283165931702,-0.6211583018302917,-0.6573296189308167
2.847564697265625,-3.606105507090688,1.7774631158672272,-19.609686485677955,1.0057893991470337,-0.6774202585220337,-0.9514520764350892
2.857590576171875,-5.846117307010292,1.7722654010936616,-18.296445832294225,1.1333370208740234,-0.1365636587142944,-1.2815618515014648
2.86761669921875,-7.009964102262258,1.7448887338683008,-17.244694553393124,1.0619666576385498,0.4756620824337005,-1.350900173187256
2.877642578125,-4.9918689603716135,0.3149781688902527,-16.05413919943571,0.8200845122337341,0.7080540657043457,-1.1634327173233032
2.887668701171875,-3.3115015062525868,-1.624856433168799,-14.604837047702071,0.5338353514671326,0.5706409811973572,-0.826468288898468
2.897694580078125,-2.281605939198285,-2.468873162519932,-12.866056275320052,0.3059462904930115,0.1847625374794006,-0.3831494748592376
2.907720458984375,-1.1834110351607203,-2.283466180112213,-10.77087380209565,0.1927883177995681,-0.3447978794574737,-0.0157794989645481
2.91774560546875,-1.073242833610624,-1.6918591544702648,-8.08276576797664,0.2488012462854385,-0.9091499447822572,0.144405111670494
2.927771484375,-1.1903622425381093,-0.719513712978363,-5.17257682517767,0.4151868820190429,-1.4177131652832031,0.1005532294511795
2.9377978515625,-1.3294066291563211,0.5407235548945144,-1.819545330923796,0.6092522144317627,-1.690563082695007,-0.2252528369426727
2.94782373046875,-2.1282997299283744,1.1354858662296086,1.2470628385990858,0.8287991881370544,-1.6831337213516235,-0.6900861263275146
2.957849609375,-1.4883582969672975,1.0618762209437786,3.654531392085552,1.056634545326233,-1.4861832857131958,-0.9607413411140442
2.967875732421875,0.5317810641020536,0.8730204132564365,5.620953629884124,1.1999491453170776,-1.1463737487792969,-0.9380993247032166
2.977901611328125,2.1088737294465303,0.4673691264787689,7.580089802327752,1.1521257162094116,-0.7685874700546265,-0.7632800936698914
2.9879267578125,2.585489955687523,0.2011459284072742,9.558907411319018,0.892318069934845,-0.3860900402069092,-0.5877860188484192
2.99795263671875,2.653518659035861,0.1963617263380438,10.749257013571262,0.5047413110733032,-0.099189817905426,-0.4178968369960785
3.007978515625,2.9871602465376257,0.3092811262924224,11.205766271328926,0.08078633248806,0.0540524125099182,-0.2244204133749008
3.018004638671875,2.9716274541020398,0.5087572583239526,11.00002625659704,-0.2552505433559418,0.1335735917091369,-0.0425345003604888
3.028030517578125,2.4362623940333723,0.9859211085103452,10.327224025911091,-0.3907236158847809,0.1574845612049102,0.075386956334114
3.038056640625,1.547564226912707,1.6325938955530523,9.586023381781578,-0.3398380577564239,0.1455610692501068,0.0735427215695381
3.04808251953125,0.5271202326841652,2.135966172903031,9.100909960830212,-0.1886077523231506,0.09893299639225,-0.0242668576538562
3.058107421875,-0.2636072434194386,2.518715636314452,8.950638150820135,-0.0329526476562023,0.0373609699308872,-0.1497981548309326
3.068133544921875,-0.586529430116713,2.738576530857384,9.038071519601344,0.0677991136908531,0.0040873056277632,-0.2481938302516937
3.078159423828125,-0.4330552438687532,2.6669538946703075,9.215064747798442,0.0949175432324409,-0.0059829056262969,-0.2853321433067322
3.088185791015625,-0.1143812161352485,2.44452388029173,9.369501276272535,0.060684572905302,0.0090422108769416,-0.2609993815422058
3.098211669921875,0.2233569930303841,2.0582550105825064,9.412271327462792,-0.0195482149720191,0.0157469846308231,-0.1653327792882919
3.10823779296875,0.4987724554043263,1.7308600623853505,9.347162018692494,-0.1286487430334091,0.0272543728351593,-0.0392428934574127
3.118263671875,0.4518982568308711,1.6009271299183367,9.22758345310986,-0.2488622367382049,0.0457225926220417,0.0500283949077129
3.12828857421875,0.1375627697583288,1.5404897584818302,9.043032941401004,-0.3384870290756225,0.0788613334298133,0.0662191957235336
3.138314697265625,-0.0944584451124072,1.5748368492417038,8.629519360283016,-0.3442357182502746,0.1051555201411247,0.0384147278964519
3.148340576171875,0.1067216412927955,1.4360244447484611,8.077183583930134,-0.279942899942398,0.041064079850912,0.0364982821047306
3.15836669921875,0.4568856898546218,1.213322481560707,7.70266053546369,-0.2182931154966354,-0.0687590911984443,0.0572885163128376
3.168392578125,0.7441656314149498,1.0565413627218454,7.653806195923686,-0.2058216631412506,-0.1415333896875381,0.1078434661030769
3.17841845703125,1.1034162188824266,1.0190816198341548,7.783243892219662,-0.2436065971851349,-0.1531801968812942,0.1557500064373016
3.188444580078125,1.2401266095951198,1.1772767701894045,7.829998044610023,-0.2902275323867798,-0.0816404148936271,0.2035750895738601
3.198469482421875,1.7257349744565784,1.1494732558541,7.6301435807853935,-0.3356701135635376,0.0014659175649285,0.3011125326156616
3.20849560546875,2.420194179546833,0.9234833570368588,7.23018038611412,-0.3902779519557953,0.0724132731556892,0.4266392290592193
3.218521484375,2.693005158510804,0.7201805793892592,6.877830006489157,-0.4939734637737274,0.136268675327301,0.5337166786193848
3.22854736328125,2.849741196098924,0.3424961442824453,6.3505257955402135,-0.6111903190612793,0.1429399400949478,0.6143994331359863
3.23857373046875,2.907520015850663,-0.1050145268476568,5.593466488021612,-0.7031641602516174,0.1993115991353988,0.6372506618499756
3.248599609375,2.7023464028298854,-0.4528597222741693,4.2167327288925645,-0.7312734127044678,0.3612083196640014,0.60871422290802
3.258625732421875,2.639826233769953,-0.7752347234174609,2.451070963847637,-0.6959830522537231,0.5445075631141663,0.5845039486885071
3.268650634765625,3.367865783031285,-0.9612605683758856,0.5286877742618322,-0.6529936790466309,0.811469554901123,0.5453894734382629
3.278676513671875,3.625615094202757,-0.4887584629228338,-1.8436147732973096,-0.6977211833000183,1.13904070854187,0.3971219360828399
3.28870263671875,2.008354669120908,0.7075482576355338,-4.759091885632277,-0.8522601127624512,1.433271884918213,0.1736743599176406
3.298728515625,0.1286059581795707,1.6448890212416647,-8.42475725067258,-1.0313951969146729,1.555052399635315,-0.0832138806581497
3.3087548828125,-0.6315526670612395,0.7341722067974508,-12.68257953032255,-1.048325777053833,1.268311858177185,-0.2404804229736328
3.31878076171875,0.4863999901631847,-1.3603648081302642,-16.521333517336846,-0.7709283232688904,0.7019753456115723,-0.1619001179933548
3.328806884765625,2.262570837730169,-3.09356105837822,-18.565037147736547,-0.4091578423976898,0.0352273248136043,0.0821219310164451
3.338831787109375,3.011195786641538,-3.89474826143682,-17.731852631914613,-0.1671289503574371,-0.622884213924408,0.2414982765913009
3.348857666015625,1.9252242582306265,-2.92493613781482,-14.961181465399264,-0.0038921292871236,-1.040225386619568,0.2379230111837387
3.3588837890625,-0.6291199600216001,-0.3470965507499873,-12.622607584440708,0.1504726707935333,-0.8203476071357727,-0.0236619915813207
3.36890966796875,-3.5800828848227857,1.5524878009200096,-11.0418780238986,0.3070990145206451,-0.2587108612060547,-0.5465194582939148
3.378935791015625,-5.005085000297427,1.7419871672078966,-10.025382767295836,0.4573588073253631,0.4239358901977539,-1.0444531440734863
3.388961669921875,-5.093473477846384,1.5730520116515456,-10.552698668682575,0.5539749264717102,1.145567774772644,-1.2751741409301758
3.398987548828125,-4.531545989544689,1.1264438240528103,-12.006488779485226,0.5434378981590271,1.7671442031860352,-1.2762905359268188
3.4090126953125,-3.893812734152376,-0.0309688099658116,-13.767707009124756,0.430307537317276,1.937417268753052,-1.0791133642196655
3.41903857421875,-2.4220808700762686,-1.3319794022537768,-14.99828457686901,0.2319452166557312,1.438186526298523,-0.717282235622406
3.429064697265625,-1.0151784749157726,-2.204238768009841,-15.508320842152832,0.1301339119672775,0.3848699033260345,-0.326278805732727
3.439090576171875,-0.5100918679285794,-2.1652169634371994,-15.107029029226302,0.2890412807464599,-0.8067585825920105,-0.0396718010306358
3.449116455078125,-0.7631386274322867,-1.0126751868579535,-13.106058625137806,0.5672832727432251,-1.716377019882202,0.024403752759099
3.459142822265625,-1.7036805251672862,0.3766979448201135,-9.248926100867989,0.8087092041969299,-2.229590654373169,-0.1446513086557388
3.469168701171875,-2.082617736814171,1.1533131262779237,-4.731245262807607,0.9344098567962646,-2.3321995735168457,-0.4423436224460602
3.47919384765625,-1.830817251044512,1.460420927119255,-0.6709399439454078,0.9150345921516418,-2.081186056137085,-0.685966432094574
3.4892197265625,-1.1069809986919164,1.445664672014117,2.438111529031396,0.7948746681213379,-1.699104070663452,-0.7618880867958069
3.49924560546875,-0.1930673609677702,0.9528715102151036,4.578897815567255,0.6575546264648438,-1.3445537090301514,-0.6673250794410706
3.509271728515625,0.58502216735892,0.3263764918696135,5.939585279780626,0.5291568636894226,-1.0764365196228027,-0.4907224178314209
3.519297607421875,0.9167979609888046,-0.0067592832681722,6.953284183663129,0.390078067779541,-0.8519874811172485,-0.2995055913925171
3.52932373046875,1.1031302415478974,-0.2370846540064551,7.722945198601484,0.2409768998622894,-0.6614203453063965,-0.1553791761398315
3.539349609375,1.500311623480916,-0.5142267392436042,8.280473867422343,0.1092763841152191,-0.5849490165710449,-0.0048029813915491
3.549374755859375,1.9437502411328256,-0.3646208092637359,8.675458689159154,-0.0304071605205535,-0.5442299842834473,0.1514403074979782
3.55940087890625,1.824943682835996,0.047437312348932,9.058355598217249,-0.1312163323163986,-0.4530977010726928,0.2266948372125625
3.5694267578125,1.227531185785681,0.4398915196295827,9.316756359034777,-0.1394015252590179,-0.3460500836372375,0.2334132045507431
3.57945263671875,1.1526853497684002,0.8233484737232327,9.449342290228604,-0.0890829563140869,-0.2512956261634826,0.2089824229478836
3.589478515625,1.209235796768963,1.1448889237385242,9.600513679426909,-0.0281116217374801,-0.1465170830488205,0.1578638106584549
3.59950439453125,1.1594276636354623,1.3906528327576817,9.82656466078162,-0.0056193610653281,-0.0247712023556232,0.1078067794442176
3.60953076171875,1.3020230937987565,1.4959914221942423,9.872881006276607,-0.0329529084265232,0.0450257062911987,0.0981563255190849
3.6195556640625,1.6688421437591314,1.46402494296059,9.856364755761623,-0.0995761454105377,0.0573896989226341,0.1203223541378974
3.629581787109375,1.7772697852522137,1.4059220058210191,9.750910577121376,-0.1855901032686233,0.0442799590528011,0.1438941657543182
3.63960791015625,1.6795263271197676,1.405433199390769,9.492125200900436,-0.256505012512207,0.0259353090077638,0.1507185101509094
3.649634033203125,1.590397698727995,1.4132665233649313,9.16575798831582,-0.2907508611679077,0.0054406858980655,0.145758643746376
3.659659912109375,1.6695317334584892,1.305491792822629,8.803114762735365,-0.2898057103157043,-0.0198348425328731,0.1429197043180465
3.669685546875,1.7379248862050474,1.173082094978541,8.497399877557157,-0.2701671123504638,-0.0658211633563041,0.138407289981842
3.679711669921875,1.5837084302224218,1.018969537761807,8.309060494959354,-0.248746246099472,-0.1298174709081649,0.1218701303005218
3.68973681640625,1.496763429480046,0.7524241950638592,8.16488232564926,-0.2096730321645736,-0.2035927474498748,0.115253634750843
3.6997626953125,1.4675950565323232,0.5703973200811073,8.195043070635199,-0.167970597743988,-0.2139173001050949,0.1085400730371475
3.709788818359375,1.33541434513852,0.3775748737851158,8.16337484369576,-0.1362713277339935,-0.1633983552455902,0.1167624965310096
3.719814697265625,1.4786805141702293,0.0924274781409185,8.112357773163914,-0.1282549500465393,-0.1073542460799217,0.1719732880592346
3.7298408203125,1.752773934160173,-0.2015989328717812,7.845628159940242,-0.1430529952049255,-0.0445085540413856,0.2802236676216125
3.73986669921875,1.9570714949987829,-0.4843167906809598,7.45198540046215,-0.1848009824752807,0.0234870091080665,0.4056359231472015
3.749892822265625,1.954179426819086,-0.81027973331362,7.02014296644926,-0.2386760264635086,0.0910426899790763,0.5021020174026489
3.759918701171875,1.8035319153644145,-1.0619958287354558,6.412703142511845,-0.2660413384437561,0.1814644634723663,0.5354858636856079
3.769943603515625,1.6701079259112477,-1.3563443204425274,5.387921119078993,-0.2118700593709945,0.2233753949403762,0.5492324233055115
3.7799697265625,1.6310096951015292,-1.8372800173178316,4.114854070651531,-0.0406796745955944,0.2433597594499588,0.531941831111908
3.789995849609375,1.2538977991856637,-2.3516592802420258,2.3710744670689103,0.2118258625268936,0.3449702560901642,0.4817087948322296
3.80002197265625,0.7241488254331052,-2.825911115439236,0.0759212101638317,0.4888699650764465,0.4813584685325622,0.4489074349403381
3.8100478515625,0.3591626899883151,-2.8174127516850827,-2.489330259615183,0.7124202251434326,0.5949954986572266,0.5393060445785522
3.820073974609375,0.3583044657237828,-2.185196798409521,-4.958604988673329,0.7658752202987671,0.8227594494819641,0.6859567761421204
3.830099853515625,-0.2397500555571168,-1.207641805575788,-7.648941220235824,0.5517385601997375,1.2813315391540527,0.854526698589325
3.840124755859375,-0.221181183361262,-0.063520911634271,-10.183442162442208,-0.0137730101123452,1.7436734437942505,1.0833542346954346
3.85015087890625,0.8701770795892924,0.7885599958714097,-12.554639379107952,-0.8505061864852905,1.9609066247940063,1.263800859451294
3.8601767578125,1.5437611813679335,0.9642964289404452,-15.327092168343066,-1.569024920463562,1.7270914316177368,1.2146871089935305
3.87020263671875,1.525831410793215,0.9136503106128424,-18.48647974385023,-1.7667179107666016,0.9161367416381836,0.8931617140769958
3.880228759765625,0.4800301628703251,1.8005770110815762,-20.8863138569355,-1.2731095552444458,-0.1996989846229553,0.3576155006885528
3.890254638671875,-2.477674893134832,3.6364264110744,-22.05117479766607,-0.2491445243358612,-0.9739479422569276,-0.4061301946640014
3.90028076171875,-5.8903977627635,4.19134957357198,-21.793225287747383,0.8694228529930115,-1.3405532836914062,-1.2948518991470337
3.9103056640625,-6.467610790741444,2.7080527977779507,-19.410520004117487,1.6613924503326416,-1.54603111743927,-1.937655687332153
3.92033154296875,-5.053984348022937,0.9014835605442524,-16.03610319200754,1.9535737037658687,-1.3304705619812012,-2.153515100479126
3.930357666015625,-3.707735743528605,-0.997174908452481,-12.946938907283544,1.7239751815795898,-0.7917263507843018,-1.9190400838851929
3.9403837890625,-1.8621753891214727,-3.050920186525583,-10.115824670243263,1.052480936050415,-0.2082696110010147,-1.3508650064468384
3.950409912109375,-0.659525327418372,-4.299474140465259,-8.154247534388304,0.2380314171314239,0.2859134376049042,-0.6936320662498474
3.960435791015625,-0.7293620300367474,-4.135063914987445,-7.469490077492594,-0.3848382830619812,0.5731907486915588,-0.1410975456237793
3.9704619140625,-1.1489997200582176,-2.9363635407581925,-7.345929748797416,-0.6639964580535889,0.6305685639381409,0.2046997547149658
3.98048681640625,-1.6118853079147637,-1.3927185331158338,-6.628254357162118,-0.6707515716552734,0.4148266911506653,0.2797156870365143
3.9905126953125,-2.368715482852608,-0.0324952066823374,-5.35491725962162,-0.4643412828445434,-0.0055624870583415,0.0222842786461114
4.000538818359375,-2.891349802294373,0.6239246564008295,-3.936661403536797,-0.0581796579062938,-0.5521621704101562,-0.382253885269165
4.010564697265625,-2.2462547859624027,1.008496293738112,-2.304257769858837,0.4634158611297607,-1.0450693368911743,-0.7305785417556763
4.0205908203125,-1.0604395392041652,1.4744579280391334,-0.2425841830044984,0.961158275604248,-1.3626534938812256,-0.9407528638839722
4.03061669921875,-0.0499545558668673,1.4340477378480136,2.3633003259360787,1.31186842918396,-1.4434328079223633,-1.0370498895645142
4.040642578125,0.6645718702182173,1.2292083252176642,5.278692682597041,1.429466962814331,-1.2915903329849243,-1.0367263555526731
4.050668701171875,1.240794864245504,1.0078018817331642,7.9530510083049535,1.3152061700820925,-0.9246851205825806,-0.939690351486206
4.060693603515625,1.7253281472213566,0.65745422023274,9.960108038830755,1.0200939178466797,-0.4803881049156189,-0.7546746730804443
4.0707197265625,2.134290202514827,0.3129450556274503,11.137267320120332,0.6131547093391418,-0.0697519555687904,-0.5155161023139954
4.08074560546875,2.3335751958884297,0.2271560199871659,11.33589837962985,0.2156632840633392,0.2440049052238464,-0.2438973188400268
4.090771728515625,2.5311329270780085,0.2081499984830618,10.746991406726837,-0.0576165355741977,0.4214878380298614,0.0354770123958587
4.1007978515625,2.5391917303711176,0.452293320563063,9.966714305227994,-0.2069170773029327,0.488169401884079,0.2710160315036773
4.11082373046875,2.140661491112411,1.0218659898556768,9.34979470528364,-0.2589239478111267,0.4364054799079895,0.3857461810111999
4.120849853515625,1.5512380931198595,1.5425699257567524,8.93339709316194,-0.2356774657964706,0.273516982793808,0.3559765517711639
4.130874755859375,0.9046567837528884,2.017982475296408,8.572757024097442,-0.1147501394152641,0.1100818365812301,0.2316851019859314
4.140900634765625,0.7438660639464855,2.4755577548503878,8.193620928877591,0.0692465975880622,-0.0309346690773963,0.090951956808567
4.1509267578125,0.8954830049552023,2.707019655337929,8.220467434749006,0.2048167735338211,-0.1067342609167099,-0.0433656498789787
4.16095263671875,1.0044720797233282,2.6328315525770187,8.591290459653735,0.251949667930603,-0.1071225479245185,-0.137681245803833
4.170978759765625,1.3232631579652427,2.46256354098171,8.898618625247478,0.2183288782835006,-0.0330868475139141,-0.170779287815094
4.181004638671875,1.6635180261269211,2.1995117394879458,9.061119802233575,0.0947004184126854,0.0701407417654991,-0.1373568773269653
4.19103076171875,1.8889212110973892,1.8530695609934624,9.13783713121116,-0.0991876497864723,0.1440071910619735,-0.0621376521885395
4.201056640625,1.8499274635754523,1.5136749629229307,8.978392419186234,-0.2915855944156647,0.1611433029174804,0.0071596624329686
4.21108154296875,1.6297953508757057,1.28112818980813,8.533571261134743,-0.4143767356872558,0.0956931412220001,0.0552799589931964
4.221107666015625,1.3127137069001793,1.1583831230185926,8.010029617589712,-0.4296827018260956,-0.029968112707138,0.0652708038687706
4.231133544921875,0.9942511299602688,1.164161706420034,7.528382995966076,-0.3509770333766937,-0.1586255133152008,0.0248834546655416
4.241160400390625,0.7379914728246629,1.1555946613438426,7.255225980043411,-0.2295888364315033,-0.2355701029300689,-0.0193545818328857
4.251186279296875,0.8954299595937132,1.0410161690708248,7.210704116749763,-0.1351636201143264,-0.2596664130687713,-0.0257234182208776
4.26121240234375,1.134089662630856,0.9095843032829464,7.470705883023142,-0.1260886341333389,-0.2402772754430771,-0.0113061293959617
4.27123828125,1.3681214136064053,0.7102784132517874,7.63033647300899,-0.1895387321710586,-0.1815504133701324,0.0502842925488948
4.28126318359375,1.6802942427523433,0.452126622226648,7.422046189272403,-0.2545646131038666,-0.0954173877835273,0.1496652066707611
4.291289306640625,1.95023624215126,0.1322625079257413,7.008274834001064,-0.3082326650619507,0.0163914337754249,0.2647848427295685
4.3013154296875,2.0987965720683337,-0.1119635240016505,6.410493065246939,-0.3733770549297333,0.181313544511795,0.370174378156662
4.311341552734375,1.8401811455868184,-0.2933133399730548,5.465231153252721,-0.4407691061496734,0.4218028485774994,0.4298164248466491
4.321367431640625,1.32447589475587,-0.4478951586693525,3.984410412183404,-0.5139849781990051,0.7194057703018188,0.4487011730670929
4.331393310546875,0.8074258051872253,-0.5362789600431919,1.5115888042986392,-0.5581687688827515,1.0183831453323364,0.4411542415618896
4.34141943359375,0.6557835836067796,-0.3527565127404406,-1.7527181123197078,-0.541463315486908,1.1357814073562622,0.4684806764125824
4.3514453125,0.9929559755831956,-0.0248344719292595,-5.121639249622821,-0.492186427116394,1.07911217212677,0.5483516454696655
4.36147021484375,0.9166142749849706,0.8890129321582615,-8.082580474537611,-0.5333392024040222,1.0392688512802124,0.6220519542694092
4.371496337890625,0.2011480838317424,2.1714174255125225,-10.391206960999964,-0.7284896969795227,1.0437474250793457,0.5653123259544373
4.381522216796875,-0.6079991383206099,2.329435173474252,-12.358919238609074,-0.9555470943450928,0.992361843585968,0.3424417078495025
4.39154833984375,-0.8394827391833066,1.9538968104854224,-14.374971476495263,-1.0831069946289062,0.7695890069007874,-0.0184719152748584
4.40157421875,-1.3908454327203332,1.222258433014527,-16.2673260230422,-0.9706640243530272,0.3199176788330078,-0.4852923452854156
4.411600341796875,-2.037250070346147,-0.1884854765376076,-17.6376183509469,-0.5741411447525024,-0.372251033782959,-0.8186901807785034
4.421626220703125,-2.253823029259592,-0.4174979015138,-17.993126902341842,-0.035402525216341,-0.9603134989738464,-0.9789890646934508
4.431651123046875,-3.175889212974906,-0.67450969219096,-16.993174784260987,0.4022254943847656,-1.354931354522705,-1.0987604856491089
4.44167724609375,-3.937212023156881,-1.5652444066405296,-14.61036311764717,0.6276551485061646,-1.5315697193145752,-1.076341986656189
4.451703369140625,-3.4837481244444843,-2.0873212383300066,-12.252524564248322,0.6471263766288757,-1.3900871276855469,-0.8657525181770325
4.4617294921875,-3.305100114777684,-2.353938038828969,-10.30678797160387,0.5106505155563354,-0.9691506028175354,-0.5788405537605286
4.47175537109375,-3.485654542587697,-2.0449480775028466,-8.630176362887024,0.2344236224889755,-0.3485759794712066,-0.3412081003189087
4.481781494140625,-3.940317295695841,-1.126145206432417,-7.647068412101269,-0.0600298531353473,0.2782581150531769,-0.202037438750267
4.491807373046875,-3.948495633715391,-0.2639337536937557,-7.543123468980193,-0.231782853603363,0.6616772413253784,-0.1095386669039726
4.501833251953125,-3.1068358427539464,0.241035218263138,-7.892433750256895,-0.2520346045494079,0.7093232870101929,-0.039092194288969
4.5118583984375,-2.324955397711694,0.4893427290841937,-7.9467387564182275,-0.1635195165872573,0.3838672637939453,-0.0473711267113685
4.52188427734375,-1.6310571875050663,0.5228850793324411,-7.613978043404221,0.0603407397866249,-0.2043350040912628,-0.0959887281060218
4.53191015625,-0.8185678883831947,0.7807676614947616,-6.799208889716863,0.4030101299285888,-0.795752227306366,-0.1621547490358352
4.541936279296875,-0.1579039123237132,1.2950811657063663,-5.120188466292619,0.7447648048400879,-1.2220230102539062,-0.2679826617240906
4.551962158203125,0.2496842242680489,1.5326220938466488,-2.4830787980049847,0.9713003039360046,-1.3518469333648682,-0.3969848752021789
4.56198828125,0.8865485878713428,1.621941568635404,0.3993576299935579,1.0081419944763184,-1.1932333707809448,-0.4589166939258575
4.57201416015625,1.574381945081055,1.6381939075171947,3.0694559601694342,0.8713923096656799,-0.8662452101707458,-0.4789628088474273
4.58204052734375,1.7801155300721525,1.4097412718482314,5.090703428611159,0.634311318397522,-0.5037045478820801,-0.4934892952442169
4.592065185546875,1.8384560753598809,1.0758869183786213,6.201020293727517,0.404772937297821,-0.2218468934297561,-0.4588793218135834
4.60209130859375,2.0450946463666857,0.6897364143520593,6.510425850117207,0.2528931498527527,-0.0959906950592994,-0.3773791491985321
4.612117431640625,2.009329213241488,0.3542749544793739,6.574263823777437,0.1970229595899582,-0.0757622346282005,-0.2960197627544403
4.622143310546875,1.91866212323606,-0.0751179309569299,6.657505001565814,0.1976999342441558,-0.1756478250026703,-0.1994764357805252
4.63216943359375,2.025402688425034,-0.387445329610072,6.9746326766401525,0.2125701308250427,-0.2582178711891174,-0.0718774944543838
4.6421953125,1.9838966658212245,-0.3346434945533051,7.491137845677137,0.2262667566537857,-0.2630358040332794,0.0445516481995582
4.65222119140625,1.734244882518053,-0.0950266003891825,8.275428274470567,0.1941020339727401,-0.1726335287094116,0.1180452704429626
4.662246337890625,1.545475437939912,0.3004354104053229,9.149893479707837,0.1064536795020103,0.0027124490588903,0.1480822563171386
4.672272216796875,1.36835522236228,0.7076870815843344,9.624481999513506,0.006215052679181,0.2339639663696289,0.1784694194793701
4.68229833984375,1.6094384992845356,0.943881928877905,9.66871335542798,-0.0727396830916404,0.4339314103126526,0.235880509018898
4.69232421875,1.7969729952402411,1.071634375500679,9.511900745472312,-0.1345273554325103,0.5987566709518433,0.2944856286048889
4.70235009765625,1.8211378608122464,1.195510784407705,9.314774245306848,-0.1987923681735992,0.7281215786933899,0.3310023844242096
4.712376220703125,1.6838256317488849,1.337056120996177,9.112894413134455,-0.2638159096240997,0.7983365654945374,0.323701798915863
4.722402099609375,1.4223869645401834,1.4169811599738895,8.76004426729381,-0.3111501336097717,0.7501310110092163,0.2706875801086426
4.732428466796875,1.31933341730088,1.318195645442605,8.199113681074977,-0.3017423748970032,0.5956337451934814,0.2069209665060043
4.742453369140625,1.270714347821474,1.196108604170382,7.617590388682484,-0.2271230071783065,0.3832663893699646,0.1396180987358093
4.752479248046875,1.165212092255801,1.0832442954041064,7.266631755676865,-0.1094136089086532,0.1659252643585205,0.0882947742938995
4.76250537109375,1.1163437241904437,0.9133131145477296,7.20754068428278,0.0182727091014385,-0.0317723639309406,0.0358017347753047
4.77253125,1.096398960531503,0.7124699319466948,7.337678053280711,0.0996857061982154,-0.1681161671876907,0.0003505093045532
4.782557373046875,1.2036416300237178,0.610323964538984,7.682426725730299,0.1060828864574432,-0.1662404984235763,0.0332006029784679
4.792583251953125,1.5552531739801168,0.5338476047104225,8.047275352400542,0.0332857742905616,-0.0303900707513093,0.1405925303697586
4.802609375,1.8087842829346656,0.4874625778933987,8.355303775218129,-0.1320419311523437,0.1725039184093475,0.2610875368118286
4.81263525390625,1.6764841829448938,0.5416346783900633,8.296265895316004,-0.3237255215644836,0.395518809556961,0.3505164086818695
4.822660400390625,1.5430769984960555,0.6314088016111403,7.606530065485835,-0.4567253887653351,0.5519704818725586,0.416153222322464
4.8326865234375,1.504232450186461,0.566164212555997,6.416106813475489,-0.5387191772460938,0.5938424468040466,0.460640549659729
4.84271240234375,1.4810399367779492,0.2410382870030589,5.212437126401066,-0.5896856784820557,0.5329343676567078,0.4913534522056579
4.85273828125,1.3243424776345492,-0.1568397719572298,3.7368887727767226,-0.5935129523277283,0.4182887375354767,0.4904262125492096
4.86276416015625,0.8595014448612928,-0.3026420170715078,1.9568395859390493,-0.5296527743339539,0.3629714250564575,0.5194326043128967
4.8727900390625,0.8226636332642286,-0.0573756275120191,0.096347912120819,-0.4585888683795929,0.388489305973053,0.6073519587516785
4.882816162109375,0.5804808706674724,0.4272120707985013,-1.4242916291177272,-0.5027161240577698,0.5262340903282166,0.636146605014801
4.89284130859375,-0.7661554910354316,1.324460989447683,-3.2059143488824366,-0.6904142498970032,0.9682546854019164,0.574124813079834
4.902867431640625,-2.411969079776108,2.802790059831738,-6.157413207191229,-0.9583205580711364,1.5647889375686646,0.4885399043560028
4.9128935546875,-3.335660088214278,3.8639334364563225,-9.712907301941511,-1.309558391571045,2.071319103240967,0.4399745464324951
4.92291943359375,-2.911941047163308,3.4727412850007413,-13.858099812233448,-1.6649482250213623,2.076366424560547,0.4381049871444702
4.9329453125,-1.1149814959265292,1.7597706611797213,-17.625920898890495,-1.847021579742432,1.3601809740066528,0.4681098461151123
4.94297119140625,0.3580795709267258,0.0153019062891602,-20.536166540312767,-1.655300855636597,0.0832756161689758,0.4298788607120514
4.952997314453125,-1.0061879437305032,0.7525481867697089,-21.88137352679968,-1.089850902557373,-1.0124294757843018,0.1005582585930824
4.963023193359375,-4.069573205684125,2.2422389744497835,-22.05451826287508,-0.3432520627975464,-1.7068297863006592,-0.3938829004764557
4.97304833984375,-5.047427181464434,2.3262618041351435,-20.160648635590075,0.2805567979812622,-2.140340805053711,-0.7936466336250305
4.983074462890625,-4.901822778743505,1.3695938242465258,-17.12976469039917,0.640267550945282,-2.173818349838257,-0.955233633518219
4.993100341796875,-4.614139809340238,0.1481469998758286,-14.39353589171171,0.7583832740783691,-1.649489164352417,-0.9136618971824646
5.00312646484375,-4.038964132408798,-0.955501420327276,-11.996695699745416,0.6539231538772583,-0.8116710186004639,-0.6916240453720093
5.01315234375,-2.865489677111804,-1.979077136710286,-9.910844533967971,0.3005109131336212,0.0352902710437774,-0.3400573134422302
5.023178466796875,-1.960221921853721,-2.45862795509845,-8.283813825500012,-0.2018896043300628,0.6085306406021118,0.0081645846366882
5.033204345703125,-1.1684261589314788,-2.475474460481107,-7.504131767284869,-0.6298113465309143,0.7223827838897705,0.3139157891273498
5.043230224609375,-0.1391988465275615,-2.0799628383912143,-7.880148269179463,-0.7390797734260559,0.3506001830101013,0.4839591681957245
5.05325537109375,0.3563412758920341,-1.6931300511889158,-8.576654616057873,-0.4401723444461822,-0.3994421362876892,0.4398216009140014
5.063281494140625,0.2614732270654291,-1.2158015850253403,-8.057832986772059,0.106115236878395,-1.175039291381836,0.2224898040294647
5.0733076171875,0.4344108962614089,-0.8151429554358124,-5.897048452824354,0.6360552906990051,-1.7170088291168213,-0.1007097885012626
5.08333349609375,0.6646649553291499,-0.2502265144512057,-2.24246386924684,0.950171709060669,-1.874101519584656,-0.3928854465484619
5.093359375,1.5169805803395806,-0.0979207143954932,1.783418955531716,0.9958662986755372,-1.653656005859375,-0.5159348845481873
5.103385498046875,2.818069462028145,-0.3700912765640765,5.063142636990547,0.8220977187156677,-1.2729640007019043,-0.4302263557910919
5.113411376953125,3.9569817225098607,-0.8446218556374311,7.359245741966366,0.5263584852218628,-0.9117885828018188,-0.278798758983612
5.1234375,3.992388551455736,-1.1031341140054165,8.50013719356656,0.3210037052631378,-0.6786722540855408,-0.1367047429084777
5.13346240234375,3.4228578946739434,-0.843504103653878,8.067334974610805,0.4832049608230591,-0.4800485968589782,0.0615606904029846
5.14348828125,3.0337422572314736,-0.5785071229090913,7.008362512284517,0.5173866152763367,-0.4380068778991699,0.2139638066291809
5.153514404296875,2.7570149816066025,-0.976192764569819,8.064125364914537,0.4879395067691803,-0.5632058382034302,0.2303282916545868
5.163540283203125,1.7110140829257665,-0.756222564433515,8.586240190526842,0.4519583284854889,-0.5897674560546875,0.2204929739236831
5.17356640625,1.6696528756201263,-0.3406839802939445,8.827710859331487,0.4463555812835693,-0.5841960906982422,0.2204170674085617
5.18359228515625,1.5871192615792151,-0.1017184079117141,9.079957773694396,0.4582308828830719,-0.4520359337329864,0.202176809310913
5.19361865234375,1.6644282728396356,0.3158877945484593,9.595849779269098,0.3961644172668457,-0.2546467781066894,0.2246932685375213
5.20364453125,2.327945957829803,0.4823631723951548,10.222496407979726,0.2828322649002075,-0.0597726330161094,0.2996253073215484
5.21366943359375,2.717441096109152,0.7251105831373482,10.351796157109735,0.1694933474063873,0.083992600440979,0.3667282164096832
5.223695556640625,2.667895267173648,1.0078463784620164,10.13022495151758,0.080806091427803,0.1716577261686325,0.3568084836006164
5.233721435546875,2.1264935572892427,1.3627305143482982,9.806558814585207,0.0600545741617679,0.1749369651079177,0.2381558865308761
5.243747802734375,1.5487056520327924,1.5834515328519043,9.245490865722298,0.1656909883022308,0.1213317960500717,0.0642208456993103
5.253773681640625,1.2731557496242225,1.6755071546062823,8.456177640330791,0.3786591589450836,0.0712716653943061,-0.0797260180115699
5.263799560546875,1.418338565932214,1.5323561363868414,8.088078487432002,0.6034832000732422,0.0713294595479965,-0.1397283673286438
5.27382568359375,1.7051260478004813,1.4956586831085383,8.074129457056522,0.757949709892273,0.104896642267704,-0.138589859008789
