seconds_elapsed,ax,ay,az,gx,gy,gz
0.0680859375,0.4994833070874214,-0.6570467354103923,-17.692102805328368,-2.2606475353240967,0.5516242980957031,0.0247829910367727
0.07811181640625,1.2141647776037454,0.4965520759411156,-19.48548727455735,-2.473445415496826,0.1044573113322258,-0.1252732127904892
0.088137939453125,1.8330794968880717,2.185140830438584,-21.324686569499967,-2.0973637104034424,-0.4099389314651489,-0.4078015983104706
0.098163818359375,1.804434271031618,3.1412399243980644,-22.44044065723419,-1.258405089378357,-0.6563347578048706,-0.6436170339584351
0.10818994140625,1.8680906045146288,3.0906051311820746,-21.817541398358344,-0.2487753480672836,-0.488862931728363,-0.727832555770874
0.1182158203125,2.2892450557746,2.316635897655785,-18.61118865805864,0.6860412359237671,0.0218324214220047,-0.6489637494087219
0.12824072265625,2.743645796945691,1.530814021511376,-13.525352543222905,1.3629683256149292,0.6346984505653381,-0.4456340074539184
0.138266845703125,3.026146979796886,0.7936446056593209,-7.715090977969766,1.6574821472167969,0.9331633448600768,-0.1630044877529144
0.148292724609375,3.2880344136863946,-0.4197920768655836,-1.890841803896427,1.5222766399383545,0.7826875448226929,0.06138202175498
0.158318603515625,2.8716572598308323,-1.4331984275422989,3.1873323980093,1.0708757638931274,0.3463715314865112,0.1772821992635727
0.168344970703125,1.772147035411,-2.360130609858781,7.207292262479663,0.3934285640716553,-0.2316206842660904,0.2290228903293609
0.178370849609375,0.3472185696944594,-3.20566534255743,10.119829814231394,-0.4019145667552948,-0.7239528298377991,0.2195722758769989
0.18839697265625,-1.0998495393767953,-3.312364552822709,11.780519631195068,-1.1212412118911743,-0.9176716804504396,0.17497418820858
0.1984228515625,-2.463072367286682,-2.9053642991214987,11.816149747502804,-1.5836544036865234,-0.8681830763816833,0.0141345132142305
0.208448974609375,-3.807684310489893,-2.628800397364795,10.568383729070424,-1.7017133235931396,-0.6480334401130676,-0.2279369682073593
0.218474853515625,-4.534615606248378,-2.226186395923793,8.510666770887374,-1.4663515090942385,-0.362569123506546,-0.3644415140151977
0.2285009765625,-3.986144104108214,-1.6525205390334128,6.334031172335148,-0.901419162750244,-0.2294614017009735,-0.3514375686645508
0.23852685546875,-2.8395363206878304,-1.2872360051639378,4.77609445835948,-0.2347775399684906,-0.3031529486179352,-0.2957452833652496
0.248552734375,-2.080797827910632,-1.1301444321364165,4.680193705484271,0.297499418258667,-0.4192960560321808,-0.2292559891939163
0.258578857421875,-1.953611417672783,-1.0511393575478345,5.881524135956168,0.6375067234039307,-0.3137804567813873,-0.1636854708194732
0.268604736328125,-2.3547234901182352,-1.2660434334009885,7.581192795133591,0.7763636708259583,-0.0686245039105415,-0.1340255737304687
0.278631103515625,-2.8225942459762097,-1.4378852701842784,9.277946443647146,0.710022509098053,0.1858601719141006,-0.1330011039972305
0.288656982421875,-2.7447189791351554,-1.2733075791850683,10.776567045301196,0.4692970216274261,0.3555833995342254,-0.0941293314099311
0.29868310546875,-2.1897532926701007,-1.0398373345497995,11.67530802913904,0.1091652065515518,0.2524047791957855,-0.0399969555437564
0.308708984375,-1.7123618442729114,-0.7019941306397318,11.999684944689273,-0.2765913009643554,-0.0627686083316803,-0.00983452424407
0.31873486328125,-1.3881079705804586,-0.271196602569893,11.730239058244228,-0.5938912630081177,-0.442845344543457,0.052986990660429
0.328760986328125,-1.0448688259109855,0.1886656919427216,10.90221002548933,-0.7555485963821411,-0.6991415619850159,0.1078441143035888
0.338786865234375,-1.1261879495956002,0.6555625612672418,9.66528104289174,-0.7378036975860596,-0.7975842356681824,0.106131225824356
0.34881298828125,-1.58063925191015,1.011532008172199,8.359697626262903,-0.5661270022392273,-0.7451101541519165,0.0524482876062393
0.3588388671875,-1.9505910469383,1.3323419519558548,7.205856676718592,-0.3112175166606903,-0.5843409299850464,-0.0523403473198413
0.368864990234375,-2.2030618331849574,1.5779238554716108,6.60100277762115,-0.0195800513029098,-0.3199476301670074,-0.20590540766716
0.378890869140625,-2.259342377202958,1.6119439062342047,6.283212254723906,0.2761385142803192,-0.0592282600700855,-0.3308984041213989
0.388916748046875,-1.701400013014674,1.494520472858846,6.386855584549903,0.5155929327011108,0.1004737839102745,-0.3666348159313202
0.39894189453125,-0.7688071745879947,1.5295356721386313,6.991867889079451,0.6521770358085632,0.1172369047999382,-0.3469299077987671
0.408968017578125,0.0441211735382676,1.585549820305407,7.893695148494839,0.6727994680404663,0.0462034791707992,-0.2711371481418609
0.418994140625,0.602396496007964,1.566919207984954,9.009193215641378,0.5720263719558716,-0.0865373834967613,-0.1951006054878235
0.42902001953125,0.6953814345017075,1.612510015684366,9.93132618098259,0.3831602931022644,-0.2412992715835571,-0.1899532526731491
0.4390458984375,0.3988635628663003,1.5453212702915071,10.44623618978262,0.1476266980171203,-0.3712835907936096,-0.2407758086919784
0.449072021484375,0.1838403906781226,1.6228557608708738,10.367440300965308,-0.0600769743323326,-0.3509719371795654,-0.3131418824195862
0.459097900390625,0.0816234403934329,1.698962848995626,9.62563350763619,-0.1405676901340484,-0.2173076421022415,-0.4144878387451172
0.469123779296875,-0.0376034622073173,1.2448682511642577,8.228587028318643,-0.0925407633185386,-0.0355964303016662,-0.5183468461036682
0.479149658203125,0.225342467759177,0.7353651429090649,6.601130787914991,0.0343111418187618,0.1896506547927856,-0.551811695098877
0.48917578125,0.9752210699934512,0.5383212795257568,5.25064498424232,0.072855606675148,0.3456959128379822,-0.4707573056221008
0.49920166015625,1.8546444090947507,0.4320332804098725,4.291422351434827,-0.1190728396177291,0.4059135913848877,-0.2883573770523071
0.509227783203125,2.2798259239137173,-0.0881673821441829,3.3671202253609893,-0.6256705522537231,0.4399778246879577,-0.0749335139989852
0.51925390625,1.8910266589440403,-1.3431262346900998,1.2507558478981256,-1.3831303119659424,0.5429697632789612,0.1242838650941848
0.52927978515625,0.8989324147567153,-2.806813616259396,-3.344605026692152,-2.120616912841797,0.7673506736755371,0.2496827840805053
0.539305908203125,-0.0059445876181125,-4.08026995626539,-11.138202555143833,-2.6588425636291504,0.7524234056472778,0.3676975071430206
0.549331787109375,0.6365865695752203,-2.951186723619699,-21.129654995787146,-2.5500717163085938,-0.5356075167655945,0.4414710700511932
0.55935791015625,1.7699734907642006,0.9717143770467488,-29.098374113345145,-1.8499151468276975,-1.657628893852234,0.3686075508594513
0.5693837890625,1.0867641400933266,2.413184154654294,-35.018439869141574,-1.018384575843811,-1.8111121654510496,0.5027227401733398
0.579409912109375,-0.2467489014685153,1.4587468564271926,-37.196260878086086,-0.4443598091602325,-1.223496437072754,0.7816540002822876
0.589435791015625,-0.5402742402244359,2.8287559834763405,-35.49759116681814,-0.1287829428911209,-1.1315686702728271,0.886825680732727
0.599461669921875,-0.8469229721866548,5.182908834099769,-31.99046684296131,0.0703888088464737,-1.451263427734375,0.6887887716293335
0.60948779296875,-1.5506059326961636,5.95382715562284,-28.08612716183662,0.2379106879234314,-1.6298270225524902,0.4645482003688812
0.619513916015625,-1.7220904804743826,5.988823650202154,-23.939648118865488,0.4729045927524566,-1.512944221496582,0.1859595328569412
0.6295400390625,-2.175788918595016,4.778282908314466,-19.759245763504502,0.7876502871513367,-1.1469860076904297,-0.0913200080394744
0.63956591796875,-1.8422111901097,3.276229701863229,-15.541158112871646,1.1399129629135132,-0.7584977746009827,-0.2496695667505264
0.649592041015625,-0.7376784613527357,2.0080888577915728,-11.206405738276242,1.4011240005493164,-0.4290602207183838,-0.3428775370121002
0.659616943359375,0.5591152073599398,1.2514455837279557,-6.824279033565521,1.4651780128479004,-0.3588003814220428,-0.4032911658287048
0.669642822265625,2.017472187686711,1.3480052389033137,-2.14115745793581,1.4012335538864136,-0.370698869228363,-0.4246771335601806
0.6796689453125,2.974415915776789,0.9828880244247616,1.7834569494545458,1.2380568981170654,-0.2876549065113067,-0.3627113401889801
0.68969482421875,3.732777538065612,0.6228117997881024,4.851803487077355,1.0148030519485474,-0.2038401663303375,-0.2930377125740051
0.699720947265625,3.768988961392641,0.7789959756471216,7.36817314478755,0.7610824108123779,-0.1544312983751297,-0.2691237032413482
0.709746826171875,3.6072283736407753,0.5088805193774402,9.057762308499216,0.5171336531639099,-0.1665694564580917,-0.2501401603221893
0.719772705078125,3.4736566462799905,0.307941840512678,10.19162546889782,0.3249188661575317,-0.1424282342195511,-0.2466397285461425
0.729798828125,3.046155164080858,0.4068167868930846,10.77553945581913,0.2468368262052536,0.008242224343121,-0.2784852683544159
0.73982470703125,2.3497223208300766,0.1500718304585665,10.804421851432323,0.2669221460819244,0.2300514280796051,-0.3424904346466064
0.74985107421875,1.7716043068364262,-0.212671786756441,10.697705690032244,0.3276645839214325,0.397978663444519,-0.3566509783267975
0.759876953125,1.8477603486694396,-0.4489131766054779,10.811356619131564,0.4222769439220428,0.440042495727539,-0.2960585653781891
0.769903076171875,2.08560405914858,-0.592521656268835,11.176544853019712,0.4758552014827728,0.461567223072052,-0.2337610721588134
0.779928955078125,1.9150011165104803,-0.7580131741773337,11.755647055745124,0.4461637437343597,0.4982433617115021,-0.1575681865215301
0.789954833984375,1.793633767814934,-0.977064432837814,12.4600274969995,0.3773071765899658,0.5501406192779541,-0.0253813788294792
0.79998095703125,1.7787487717635928,-1.0848667820394038,12.9797340924263,0.2623537480831146,0.5899149179458618,0.123039960861206
0.8100068359375,1.6191041532523929,-1.1956333878740668,13.31964526171684,0.0944603607058525,0.6427800059318542,0.275689423084259
0.820032958984375,1.3801067426934837,-1.402124805495143,13.579932859194278,-0.1293080598115921,0.6292733550071716,0.4160517752170563
0.830058837890625,0.9315038741461932,-1.3684601440414783,13.607076886707544,-0.3740192651748657,0.5171321630477905,0.4751401245594024
0.8400849609375,0.1671269736232236,-1.3606241897188127,13.342100254631042,-0.6444130539894104,0.3651722967624664,0.4546941220760345
0.85011083984375,-0.6515450692541896,-1.175226267400384,12.765598005270958,-0.8819963335990906,0.2742759585380554,0.3884346783161163
0.86013720703125,-1.39162547718212,-0.9409564698852598,11.74916120085716,-1.012600064277649,0.2750183343887329,0.2903462648391723
0.8701630859375,-1.859944269068539,-0.7528578372407704,10.288038847470284,-1.005574107170105,0.3608538806438446,0.1963230967521667
0.88018896484375,-1.867016399411857,-0.5261501820756123,8.780735173144937,-0.8690725564956665,0.4029264152050018,0.1472205966711044
0.890215087890625,-1.439291191459447,-0.2231498530857265,7.395517078787088,-0.5930577516555786,0.3109402954578399,0.1537176370620727
0.900240966796875,-1.0791340836063026,0.0726312652403488,6.274378959926962,-0.2436746507883072,0.2113170027732849,0.1924258917570114
0.910266845703125,-0.940817865132168,0.2033100111059844,5.657078836232423,0.0686214715242385,0.0719798877835273,0.2182215452194214
0.920292724609375,-1.1349622076816857,0.3367851827571168,5.955855446580052,0.2893198132514953,0.0082900617271661,0.1979963481426239
0.93031787109375,-1.3998206202059984,0.4517852249104529,6.605342852652073,0.4487225115299225,0.0297375619411468,0.2158203423023224
0.940343994140625,-1.4678320801585911,0.2835738170513883,7.15638157493174,0.5414093136787415,0.2233341783285141,0.2104767560958862
0.950369873046875,-1.5637418931230902,0.3237693781111389,7.546890128037333,0.5434858202934265,0.3637480139732361,0.1425794661045074
0.96039599609375,-1.6159040420368314,0.4329094056572765,7.589372594457864,0.5140112638473511,0.3262759149074554,0.0066347084939479
0.970421875,-1.3934621910899876,0.8256125461976974,7.11193979113698,0.4740864634513855,0.2187499850988388,-0.1614136844873428
0.98044775390625,-1.0495502617254853,0.9637399641014636,6.374345647066831,0.4548153579235077,0.0649695768952369,-0.2600329518318176
0.990473876953125,-0.2859873444665223,0.908404811174795,5.51538079330027,0.4732572138309479,-0.1788255125284195,-0.23214752972126
1.000499755859375,0.6303656492337584,1.0843763681739569,4.930547353446483,0.3481245636940002,-0.3802365958690643,-0.1051628589630127
1.01052587890625,1.263881286931038,1.3965085730485618,4.480760097420215,-0.0015429048798978,-0.3874878585338592,0.0287467427551746
1.0205517578125,0.8549537184290588,1.5525522444583475,3.4696225684583184,-0.4532077610492706,0.085060991346836,0.0555777326226234
1.030577880859375,-0.8450145812820643,0.7032802979927509,0.2704050868660211,-0.802148699760437,1.0094568729400637,-0.0645300298929214
1.040603759765625,-2.800050405734777,-0.4117471559673547,-5.708937618285417,-0.8487697243690491,1.9967659711837769,-0.2905043363571167
1.050629638671875,-3.67757704436928,-0.8163278543714434,-13.332279117840528,-0.5582031011581421,2.631680727005005,-0.3822377026081085
1.060656494140625,-1.3538032576575874,-0.1098041174780577,-21.42511678249836,0.0226442590355873,2.330617427825928,-0.2462847679853439
1.0706826171875,3.3474773672580715,2.9779978659167883,-27.49240723569393,0.8642023801803589,1.0584312677383425,-0.2428186684846878
1.080708740234375,5.854510456824302,5.563347828611732,-29.71666733973026,1.6141717433929443,0.0566744357347488,-0.3262872993946075
1.090734619140625,6.158265440106391,4.1187452328711744,-28.11888844470977,1.7649316787719729,-0.2602060437202453,0.0007249058689922
1.1007607421875,6.31170185162723,2.10918630252704,-22.845694359529016,1.446385383605957,-0.063644915819168,0.4009217023849487
1.11078662109375,4.460042888084054,-0.3958966758847236,-17.443782709020375,0.8946875333786011,0.2944373190402984,0.5793191194534302
1.120812744140625,1.2588672581613063,-2.6430425654679537,-13.429563434028625,0.2214213460683822,0.6989416480064392,0.5429236888885498
1.130838623046875,-0.8137607072971761,-3.2367543083041905,-10.569860231363773,-0.4928522706031799,1.0890952348709106,0.3827936351299286
1.14086474609375,-0.6608585487835109,-2.705634630720317,-9.084102618414162,-1.1618572473526,1.2289704084396362,0.236899197101593
1.150890625,0.9293078254066408,-1.8044146895483133,-9.00236658449173,-1.5400301218032837,0.951390027999878,0.1770814061164856
1.16091650390625,2.705324249596893,-1.093603557659313,-10.58532668056488,-1.348233699798584,0.3186928629875183,0.2048001438379287
1.170942626953125,3.8659623119354247,-1.2615705257706344,-12.544283989310264,-0.7250613570213318,-0.1697175651788711,0.3797381520271301
1.180968505859375,4.442386235362291,-1.820208032616228,-13.03429921082854,0.0029932558536529,-0.2426019310951233,0.6638541221618652
1.190994873046875,4.254958706912398,-2.247447795139253,-10.881009416550397,0.5692607164382935,-0.1053165048360824,0.939935266971588
1.201020751953125,3.2169927922576664,-2.4031445528075097,-6.830199655786156,0.8617894649505615,0.0164784267544746,1.1307541131973269
1.211046875,1.875498688814044,-2.220425640439987,-2.0663339798808096,0.7991793155670166,0.0605553388595581,1.2666780948638916
1.22107177734375,0.9545297988161444,-1.982046800170839,2.6713626510232684,0.4096307754516601,-0.0303285457193851,1.3561772108078003
1.23109765625,0.1140508882023394,-1.5074451286226511,6.696666214609146,-0.1335233151912689,-0.1953476071357727,1.324364185333252
1.241123779296875,-1.5557853811606763,-0.5848539711851626,9.361171254822612,-0.699470043182373,-0.2627138197422027,1.1120904684066772
1.251149658203125,-3.704205815836787,0.0895156549479812,10.294924515330791,-1.1171343326568604,-0.2011966556310653,0.7736364006996155
1.26117578125,-5.452440060740709,0.4183933890487998,9.393148693841695,-1.270896077156067,-0.1256686896085739,0.4218341410160064
1.27120166015625,-5.889069729030132,0.7355626382425428,7.78805976806879,-1.164851427078247,-0.0889570116996765,0.2118042260408401
1.2812275390625,-5.196566772574186,1.1675551482506097,6.407928183194994,-0.8291323781013489,-0.1092501133680343,0.0885120779275894
1.291253662109375,-4.717959957037865,1.1925474776227027,5.274880430832505,-0.375588059425354,-0.1065874844789505,-0.0387002006173133
1.301279541015625,-4.661981464706361,0.872158316534385,4.65553915669918,0.0575072318315506,-0.0758147239685058,-0.1315915733575821
1.3113056640625,-4.523093510758876,0.4650859474450349,4.916274497944117,0.3879195153713226,-0.06020487844944,-0.1921465247869491
1.321331787109375,-4.336407740586996,0.1340944360606372,6.018031624507904,0.5331701636314392,-0.0096213240176439,-0.2361113131046295
1.33135791015625,-4.128707823958993,-0.2949517913624644,7.576078813120723,0.5029480457305908,0.0911066159605979,-0.2633078098297119
1.3413837890625,-3.8299651158809658,-0.7488534969702363,8.951503827738762,0.3387483358383178,0.1113278642296791,-0.2685927152633667
1.351409912109375,-3.3546053194418546,-0.8455772566661238,9.997275447708368,0.0860644206404686,-0.0196858048439025,-0.2451845854520797
1.361435791015625,-2.745855874210596,-0.8241236228141933,10.590685577249529,-0.2021880596876144,-0.2507716119289398,-0.1832321882247924
1.37146142578125,-2.288775684697181,-0.770074344979599,10.57637180521488,-0.4281261265277862,-0.4675678312778473,-0.1211134120821952
1.381487548828125,-2.1457005081929266,-0.5135575712777674,10.00376013355255,-0.5104498267173767,-0.57267165184021,-0.0800023451447486
1.391513427734375,-2.3505803989641367,-0.2622119166035205,9.11435630238056,-0.4751293361186981,-0.5052574872970581,-0.0718850344419479
1.40153955078125,-2.7589038640931247,0.0379342285316437,8.17029090669453,-0.3425045311450958,-0.4027057588100433,-0.1396369189023971
1.4115654296875,-3.194480516198277,0.3724051795296371,7.444076234772801,-0.1589701026678085,-0.3435052931308746,-0.2562993466854095
1.42159130859375,-3.2582483472317456,0.6378639690998942,6.980604736787081,0.0725555792450904,-0.2954910099506378,-0.3879068195819855
1.43161767578125,-3.0129402922213075,0.6380068116366863,6.688127518844604,0.3422872126102447,-0.1374233514070511,-0.5317500233650208
1.4416435546875,-2.648929285418987,0.3378326825160533,6.469738450419903,0.636321485042572,0.1086884066462516,-0.6410796642303467
1.451669677734375,-1.837649289021641,-0.0324096929565072,6.425263348877429,0.9152087569236756,0.2666324973106384,-0.6788294911384583
1.461695556640625,-0.586575168954581,-0.0679371526073664,6.747018099230528,1.114945650100708,0.1519070863723755,-0.5956347584724426
1.4717216796875,0.8846423158586024,0.0233035725675523,7.623767031490802,1.215577244758606,-0.1148596331477165,-0.4048501551151275
1.48174755859375,2.047426304184645,0.0470755663644522,8.740314315429329,1.1706008911132812,-0.3463926911354065,-0.1792959719896316
1.491773681640625,2.306543104317039,-0.0787588447425514,10.038695837855338,0.9096454977989196,-0.3928909599781036,-0.0148657532408833
1.501798583984375,1.6776004736237229,-0.1202542728871107,10.943950733631848,0.5028327703475952,-0.2949727177619934,-0.0555317886173725
1.511824462890625,0.2399456511944532,-0.0813539027370512,10.640615437066554,0.0862909257411956,-0.137858435511589,-0.3098737895488739
1.5218505859375,-0.9975137850180268,-0.3829430862873792,8.697926541554928,-0.2692515254020691,0.1039633080363273,-0.6049650311470032
1.53187646484375,-0.8992610621891916,-0.9593694939322768,5.119691622686386,-0.5298716425895691,0.1315605789422989,-0.7621186971664429
1.54190234375,0.8097272139973938,-0.9021108986623584,0.7581020945698023,-0.5538805723190308,-0.1551800519227981,-0.7345873713493347
1.551928466796875,2.84748172673434,0.0830725432232022,-3.597976561170816,-0.3135544955730438,-0.3420926928520202,-0.5450531244277954
1.56195458984375,4.031306603392959,0.718274015115574,-8.384739713060855,0.2654333114624023,-0.425782710313797,-0.2239927947521209
1.571980712890625,3.607082827690244,0.8633776287075131,-12.171880417215824,0.8724031448364258,0.124469518661499,0.0104916114360094
1.582006591796875,1.5285001916110514,-0.1252136488601565,-14.632116684293749,1.1089202165603638,1.08113431930542,0.2746916115283966
1.59203271484375,0.6670644176863133,-0.699735245797038,-15.413559322440625,0.8427484631538391,1.6130107641220093,0.5878324508666992
1.60205859375,2.678426305799186,2.164866980955749,-14.55266145478487,0.3460935950279236,0.8947888612747192,0.6566762328147888
1.612084716796875,3.013699878416955,4.811485505214333,-13.452890533602236,-0.2043389528989792,0.032491385936737,0.2624756395816803
1.622110595703125,0.2241511390827596,4.168234947705269,-13.68656952561736,-0.7422250509262085,-0.2291336208581924,-0.2768555581569671
1.632136474609375,-2.1371629814721644,3.0406100971743464,-14.23663618799448,-0.9266297817230223,0.0603109821677207,-0.7178567051887512
1.64216259765625,-2.73857448503077,1.989390440931916,-15.541704056316611,-0.6861391067504883,0.7123482823371887,-0.9504177570343018
1.6521884765625,-0.8933110677435994,1.7609924580596386,-16.65416845485568,-0.3238810002803802,1.4336990118026731,-0.8583669066429138
1.662214599609375,2.403605302187055,1.7657633257232606,-16.650915006017684,-0.1057827770709991,2.0355844497680664,-0.475276380777359
1.67224072265625,5.31358922393322,1.4009651140660049,-16.285130559802056,-0.0512122102081775,2.0560262203216557,-0.1135535836219787
1.682266845703125,6.094836631768941,0.6865435365948825,-15.472380929243563,-0.1015378981828689,1.3399720191955566,-0.0569744780659675
1.692292724609375,5.38697653170526,-0.4819401246774941,-13.729271187746525,-0.244929164648056,0.3704546093940735,-0.1307685375213623
1.702318603515625,5.102127908945083,-1.3032137648880482,-11.168593017232418,-0.3914198577404022,-0.3058483302593231,-0.0544958561658859
1.7123447265625,5.147236632215977,-1.6671166351407765,-8.578447344693542,-0.4270082116127014,-0.6509183645248413,0.1335382312536239
1.72237060546875,4.77609445835948,-1.9037062539055944,-6.265465585631132,-0.361075758934021,-0.7651909589767456,0.3543951511383056
1.732396728515625,3.932901466481388,-1.5327274539172648,-4.043429002863168,-0.2111371457576751,-0.635378897190094,0.5558645725250244
1.742422607421875,2.5121768821954724,-1.1088204160135238,-1.959530140197277,-0.0312972515821456,-0.3721756041049957,0.6881052851676941
1.75244873046875,1.0001084776863456,-0.9876306158419698,0.0443137735009193,0.1079922020435333,-0.1848866641521453,0.7549010515213013
1.762474609375,-0.1099333698809146,-0.5019290928043425,2.0718413451254367,0.1252885460853576,-0.227691575884819,0.778066873550415
1.77250048828125,-0.7040972403988242,0.1937348849657922,4.083688532537222,0.0508523881435394,-0.4322042167186737,0.7562774419784546
1.78252685546875,-1.336568483609706,0.7241318742983043,5.836054178157449,-0.0837504863739013,-0.6540056467056274,0.6924187541007996
1.792552734375,-2.1469852873064577,0.8477461982030421,6.971401439633965,-0.1691388934850692,-0.7851461172103882,0.611679196357727
1.802577880859375,-2.8805010760217904,0.7966099582709372,7.666680875065922,-0.1482078284025192,-0.7173661589622498,0.5128756761550903
1.812603759765625,-3.464998415789008,0.7017503850117326,7.983965202006697,-0.0563876256346702,-0.5030149817466736,0.3890671730041504
1.822629638671875,-3.880540287864208,0.6235989315778017,8.127647112232447,0.1168532073497772,-0.2788524925708771,0.268377810716629
1.83265576171875,-3.8639170698434113,0.5190078725729137,8.262563532200454,0.3137074112892151,-0.1128123924136161,0.2345335781574249
1.842681640625,-3.3288352106302974,0.4968510588876902,8.661873231399058,0.4575659930706024,-0.0443280190229415,0.3042161762714386
1.852707763671875,-2.792413627246022,0.6978375954821705,9.389736255049703,0.476610779762268,-0.0272574238479137,0.3975743651390075
1.862733642578125,-2.740797714038193,0.9090016810894012,10.276458299791813,0.3487218022346496,-0.0575325042009353,0.4460428059101105
1.872759765625,-3.0900998120084404,0.9561127571586518,11.02949785027504,0.1016744673252105,-0.1235488057136535,0.4276515543460846
1.88278564453125,-3.519405713281035,0.9821715467184782,11.40246022529602,-0.2190932035446167,-0.1552040874958038,0.332719087600708
1.892811767578125,-3.9406390749961138,0.997157591991499,11.142184318256378,-0.491790771484375,-0.1491192877292633,0.1606080681085586
1.902837646484375,-4.194998451468348,0.8536134828012436,10.13044940792322,-0.6059137582778931,-0.186833307147026,-0.0186466053128242
1.912863525390625,-3.849572610409558,0.8487626087039709,8.722441974130273,-0.55533766746521,-0.3153436183929443,-0.1171292439103126
1.9228896484375,-2.9627812998235226,1.05432492878139,7.640788308918475,-0.38414067029953,-0.4294531047344208,-0.104104034602642
1.93291552734375,-2.0855662113562223,1.311352647680044,7.020754376345873,-0.1311318576335907,-0.4611050486564636,-0.0363652035593986
1.942941650390625,-1.644339424534887,1.3393369254097345,6.771887752071023,0.1716726422309875,-0.3608684539794922,-0.0041391495615243
1.952967529296875,-1.9133542260862888,1.244546471863985,6.888538447508216,0.4211051166057586,-0.1521088480949401,-0.0574782714247703
1.96299365234375,-2.542077807201445,1.1683856077253818,7.448622646030783,0.5689916610717773,0.1044139340519905,-0.2327190935611724
1.97301953125,-3.0246658013284207,1.0015873180672523,8.113291254621744,0.6288531422615051,0.2920749187469482,-0.4352932572364807
1.98304541015625,-2.751920581077039,0.5790590942360461,8.378290683051944,0.663267195224762,0.3439734280109405,-0.5638107061386108
1.993071533203125,-1.7300291645191608,0.2249734152510762,8.304220653712749,0.6816568374633789,0.2420063316822052,-0.579633355140686
2.003097412109375,-0.356095849763602,-0.0520943443745374,8.17058901285827,0.6775197386741638,-0.0357553772628307,-0.4687948524951935
2.01312353515625,1.0572023839138447,-0.2306175586178898,8.228241575881839,0.6611471772193909,-0.3126628696918487,-0.2590629458427429
2.023149658203125,1.858895052276552,-0.2543254742026329,8.381290449389814,0.6051493883132935,-0.4150753617286682,-0.0926044285297393
2.03317578125,1.559655062200874,-0.4036335537470877,8.122196445611118,0.542112410068512,-0.3947274684906006,-0.1028797030448913
2.04320166015625,0.3751522862806916,-0.8264971470125019,7.385887080654501,0.5238357782363892,-0.2123717665672302,-0.2639474868774414
2.0532275390625,-0.5428729514807462,-1.4294846677161752,5.874378355854749,0.5709484219551086,0.0713323801755905,-0.4615497887134552
2.06325341796875,-0.6703636053621769,-2.2888478731505573,3.5168373240977524,0.6510967016220093,0.3629724085330963,-0.554105281829834
2.073279296875,0.0411905269138515,-3.0804291896045206,0.8232879757076501,0.6206005811691284,0.6699424982070923,-0.5260001420974731
2.083305419921875,0.9998371133990586,-3.4249107355505224,-1.8726894766122104,0.4335748851299286,0.7061869502067566,-0.4323702454566955
2.093331298828125,2.096321998648345,-3.227016173622012,-4.440875246277451,0.1910887360572815,0.3938978314399719,-0.2498185336589813
2.103356201171875,2.8456945510566234,-3.111139969688654,-6.809504658281803,-0.0807180851697921,0.2524207532405853,0.0473894588649272
2.11338232421875,2.91746624032557,-3.27336525234282,-9.841367093116045,-0.323027640581131,0.4085951447486877,0.3008299767971039
2.123408203125,2.775900007079541,-2.526062784206867,-13.081417520356178,-0.4104633927345276,0.3839550614356994,0.4534251689910888
2.133434326171875,3.0384403519198298,-0.8039302181564271,-15.588123277664184,-0.3546829521656036,0.2180904448032379,0.5074905157089233
2.143460205078125,2.930196542561054,0.7207390169896185,-17.27606818130016,-0.2712867558002472,0.0375029593706131,0.4426070153713226
2.153486572265625,2.04301608652696,0.9443946276403964,-17.983456572198868,-0.1942638605833053,0.0026605564635246,0.3100718855857849
2.163512451171875,0.9162517983481288,-0.1869879679888486,-17.928968610686063,-0.2168282717466354,0.2419204413890838,0.2243271619081497
2.173538330078125,0.8480690734818577,-0.4370904176689684,-17.127054846918583,-0.4149381816387176,0.5945528149604797,0.2428414672613144
2.183564453125,1.630874816675484,-0.3332024654321372,-16.305116532254218,-0.7620325088500977,0.7885671854019165,0.3684260845184326
2.19359033203125,2.8507845676720143,0.5187674148805439,-15.58611719853878,-1.0227892398834229,0.7656482458114624,0.3174084424972534
2.203616455078125,2.8544226319134234,1.492390621223301,-15.387582000619172,-0.96933913230896,0.656222403049469,0.028491536155343
2.213642333984375,1.975986331088096,1.2358803503274918,-15.778198105752468,-0.6408499479293823,0.5646656155586243,-0.213383138179779
2.22366845703125,2.516833183568716,0.7573083138436079,-15.440882213652133,-0.2494184076786041,0.4413754642009735,-0.2001063525676727
2.2336943359375,3.700424543732405,0.643985739915818,-13.640800292611122,0.0750025361776351,0.1737634837627411,-0.0803645104169845
2.24372021484375,3.7327865981549024,0.3345983037047088,-10.800671558988094,0.2849947512149811,-0.2418084442615509,0.0594951286911964
2.253746337890625,2.9862171204686163,-0.1442449509359896,-7.170424128809571,0.3653708100318908,-0.5717179179191589,0.2215958833694458
2.2637724609375,2.138400852704048,-0.3499899341039359,-3.3096371736854318,0.3470023572444916,-0.6889835596084595,0.4285418689250946
2.273798583984375,1.2821866128198802,0.1766331627130508,0.0835831230938434,0.3017475306987762,-0.5938999056816101,0.578579843044281
2.283824462890625,-0.4395154528588056,0.6656881608970463,2.5989088247090577,0.2234877794981002,-0.4111907184123993,0.5432386994361877
2.2938505859375,-2.471090254047513,0.4478505888752639,4.4246728840172285,0.0723787024617195,-0.3428883552551269,0.3783586323261261
2.30387646484375,-3.399325627917051,0.4244955783814191,6.127961487257481,-0.1763601750135421,-0.4023462831974029,0.2102194130420684
2.31390234375,-3.297714388440549,0.5215419941604137,7.479989259675144,-0.4903495013713836,-0.5127438902854919,0.0936009213328361
2.323928466796875,-2.977657381916046,0.7173487900294363,8.027717249971628,-0.6856461763381958,-0.6907011270523071,0.0097767058759927
2.333954345703125,-2.80815830886662,0.8062715205855667,8.003158562776445,-0.6808418035507202,-0.8734328746795654,-0.0874225422739982
2.34398046875,-2.95223915528208,0.7166972673181444,7.509399478554725,-0.4801743328571319,-0.9534597396850586,-0.2040896862745285
2.35400634765625,-3.1652742954581976,0.60983599835895,7.205126608878373,-0.1710287183523178,-0.8444656133651733,-0.2374100983142852
2.364032470703125,-2.8627102755263447,0.6024161505565047,7.331900638923049,0.1465256810188293,-0.5764076113700867,-0.2331027388572693
2.374058349609375,-2.781439813289046,0.5242573175337165,7.887309246850013,0.3867835402488708,-0.2303812205791473,-0.263836920261383
2.38408447265625,-2.9053856341704725,0.1196247428119182,8.499713415196538,0.4646000266075134,0.0122394142672419,-0.2955053746700287
2.3941103515625,-2.718807123765349,-0.1546205067388713,9.308435689935088,0.3818977177143097,0.1119588166475296,-0.3157925307750702
2.40413623046875,-2.2690280510455367,-0.2409237024463713,9.843194308543204,0.2339520901441574,0.0852143093943595,-0.3025068938732147
2.414162353515625,-1.8321600439555945,-0.5516546622209251,9.922427419734,0.0640986040234565,-0.0469650290906429,-0.2380314916372299
2.4241875,-1.2755121034920214,-0.6578326250910759,9.747148009717463,-0.1104489713907241,-0.2697526216506958,-0.1559793949127197
2.434213623046875,-0.8439858958214521,-0.3610527415186166,9.563554360342025,-0.2392351776361465,-0.47812420129776,-0.0960899516940116
2.444239501953125,-0.8675514803260564,-0.0750951346032321,9.10040785652697,-0.2768926918506622,-0.6042691469192505,-0.0873067453503608
2.454265380859375,-1.1631713802084327,0.0388236516520381,8.557362471088766,-0.2572697103023529,-0.6269760131835938,-0.101040668785572
2.46429150390625,-1.247044864550978,0.3070212185364216,8.210627008736132,-0.1873202174901962,-0.6200013756752014,-0.1422675400972366
2.474317138671875,-1.257194941034913,0.711599067396298,8.047942876398563,-0.0663317516446113,-0.5864439606666565,-0.1903578341007232
2.48434326171875,-1.2165288763865827,0.8766727252189069,7.917268331784009,0.0882555320858955,-0.5090318322181702,-0.2141657173633575
2.494369140625,-1.032531030124426,1.0172019435673951,7.933168496227264,0.2358441948890686,-0.3827072381973266,-0.2313335239887237
2.5043955078125,-0.9435081271294504,1.1642058378227054,8.135227192097902,0.3417853415012359,-0.2735905945301056,-0.2448151707649231
2.51442138671875,-0.8206862687766552,1.1548948425114154,8.471572777861356,0.3716162145137787,-0.1765924245119094,-0.2542390525341034
2.524447265625,-0.6973718046013265,1.1006292915776372,8.808522759258747,0.3304692208766937,-0.0697893723845481,-0.2856097221374511
2.534473388671875,-0.5470550594709813,1.0358306561917066,8.812270713615417,0.2588597536087036,0.0049852654337882,-0.3366385400295257
2.544499267578125,-0.3609679858446121,0.9071487466990948,8.456481591713429,0.1725999116897583,0.0322407633066177,-0.3982792794704437
2.554525390625,-0.0363384107075631,0.9434605616606772,7.657253706029057,0.1413610279560089,-0.1090138331055641,-0.4614180326461792
2.56455126953125,0.3897570040859281,1.1562146929383277,6.633742433184385,0.1829512566328048,-0.3592054843902588,-0.4633192121982574
2.574577392578125,0.7782610124360769,1.2104745447836815,5.650434575912356,0.2214152961969375,-0.3962638974189758,-0.4382703304290771
2.584603271484375,0.5650788650047034,1.0143424624830484,4.496197320526838,0.220818817615509,-0.1668602973222732,-0.4341221153736114
2.594629150390625,0.1019087611183524,0.9435681136883796,3.1991637055784463,0.1399290263652801,0.307184487581253,-0.460009902715683
2.6046552734375,-0.307288929561898,0.2850261712841689,1.3982295516222714,-0.1692772209644317,1.092067003250122,-0.4761966168880462
2.614681396484375,-0.7652488245192914,-1.0085174095913767,-1.7793278868257998,-0.6775116920471191,1.8984726667404173,-0.4935806691646576
2.62470751953125,-0.5329017386950552,-2.1283860930375758,-6.6311313739031545,-1.1319588422775269,2.124293327331543,-0.41595059633255
2.6347333984375,0.7696852725967764,-2.2303006993748244,-13.474340148866176,-1.1278581619262695,1.412166953086853,-0.2655022442340851
2.644759521484375,2.794862481702864,-0.2264901034243404,-21.01701528955698,-0.562546968460083,0.0018803882412612,-0.2364009171724319
2.654785400390625,4.494260214984417,3.3192809080824253,-26.549204009795183,0.4039352238178253,-1.2528784275054932,-0.3202353715896606
2.664811279296875,4.602937447324395,5.851615904426574,-28.12322325904369,1.277993083000183,-1.6743096113204956,-0.4514908194541931
2.67483740234375,2.152727776481211,4.518489231833815,-25.27217331843376,1.680208683013916,-1.2210830450057983,-0.5152972340583801
2.68486328125,-0.6816323106124996,0.5873538982421159,-20.09187379004955,1.5672616958618164,-0.0216367505490779,-0.3632973730564117
2.694889404296875,-1.044382795959711,-1.4817491079606115,-15.355241573506593,1.0333915948867798,1.0185351371765137,-0.1790114343166351
2.704915283203125,-0.1584127386286854,-0.8866980793446302,-11.32344104911685,0.3002631664276123,1.7275437116622925,-0.1880855858325958
2.71494140625,0.7774464081175625,-0.6201373929470777,-9.458380752208829,-0.4876926839351654,1.9020098447799685,-0.2123296707868576
2.724967529296875,2.8581711707919832,-0.0991179613560438,-9.010928661131858,-1.1445128917694092,1.333209991455078,-0.1822359412908554
2.73499365234375,5.336425909641385,0.734818980268389,-9.459783604744077,-1.4545831680297852,0.3343154788017273,-0.1830181032419204
2.74501953125,6.393415089195966,1.0111904281929134,-10.4130026132226,-1.307590126991272,-0.5706861019134521,-0.2186806946992874
2.75504541015625,5.89408960301876,0.90280735649392,-10.566109938919544,-0.8603870868682861,-0.983453929424286,-0.1755223125219345
2.765071533203125,5.000838448768854,0.4430052677359432,-9.15253434960544,-0.2922953963279724,-0.8614934086799622,0.0627530962228775
2.775096435546875,4.664065869764984,0.0995868209768086,-6.786462805390357,0.2967558801174164,-0.3223737180233001,0.4664571583271026
2.78512353515625,4.101586008277535,-0.2244415733966976,-3.7595641304433354,0.6190239787101746,0.3269925117492676,0.7915009260177612
2.7951484375,2.7357147116854783,-0.4662237923685461,-0.1586778193056583,0.5646693706512451,0.6251611113548279,0.9330873489379884
2.80517431640625,1.3503054786697029,-0.3393850995898246,3.277050662857294,0.2150952368974685,0.4786609411239624,0.917036771774292
2.815200439453125,0.3502795647002756,-0.0517415854141116,5.796051838114857,-0.3544648885726928,-0.0233750026673078,0.8135375380516052
2.825226318359375,-0.3569315699353814,0.4184503799330443,7.383852944478392,-0.9255682826042176,-0.6320586800575256,0.6666305065155029
2.83525244140625,-1.0726226558856666,0.7896437725201249,8.00057789863348,-1.2585153579711914,-1.0522063970565796,0.5109370350837708
2.8452783203125,-1.9606737572744488,0.761820384440571,7.46895757805109,-1.2601548433303833,-1.1604464054107666,0.3766107857227325
2.8553046875,-2.741006680613756,0.4591036581650376,6.400647378537059,-0.948234498500824,-1.0149680376052856,0.3108791708946228
2.86533056640625,-3.0700732152849435,0.2688550809450447,5.521825731655955,-0.4120324552059173,-0.661250114440918,0.3138954937458038
2.8753564453125,-3.229682762482762,0.1581527725182473,5.277883119779825,0.1292209327220916,-0.158214122056961,0.3330260217189789
2.885382568359375,-3.3974341150820253,-0.0302590177286416,5.875100824910402,0.5099890232086182,0.2148966193199157,0.3493259251117706
2.895408447265625,-3.4772093703255056,-0.0803213448189199,7.222873862493038,0.7063100934028625,0.3738561868667602,0.3386032283306122
2.9054345703125,-3.521775657282769,-0.1265958239335566,8.702631358245014,0.694691002368927,0.3593655824661255,0.3030936121940613
2.915460205078125,-3.4962101311326026,-0.2975981411527842,9.982640188634395,0.522098183631897,0.2501355111598968,0.3013952970504761
2.925486328125,-3.1733944735497235,-0.3065404492821544,10.861175419789552,0.261308491230011,0.0777157321572303,0.3346014022827148
2.93551220703125,-2.8291975897639987,-0.2850580277271569,11.25768233652711,-0.0320736020803451,-0.0484326183795928,0.3718963265419006
2.9455380859375,-2.670579099430144,-0.2904921085398644,11.17524721442461,-0.3027612268924713,-0.0643180087208747,0.4034664332866668
2.955564208984375,-2.592666130927205,-0.166136976205185,10.581157870447637,-0.4880970120429992,-0.0354014039039611,0.4146842062473297
2.96559033203125,-2.53323720588088,0.0573430586829781,9.56474152429998,-0.5615870356559753,-0.0137145807966589,0.4106338322162628
2.975616455078125,-2.316142122789472,0.2839352342423051,8.337217498907446,-0.5286232233047485,-0.0258356928825378,0.3925791978836059
2.985642333984375,-2.0793574198439715,0.5509243021197616,7.112400978907942,-0.3872519135475158,-0.0687269791960716,0.319411039352417
2.99566845703125,-2.0424037998475133,0.709114484038949,6.050333473175764,-0.1568133533000946,-0.1319879740476608,0.1985964626073837
3.0056943359375,-1.9332335232935844,0.6835951351180672,5.335878797152638,0.1155543774366378,-0.2345301359891891,0.115057848393917
3.01572021484375,-1.373505736993253,0.6689775578312576,5.304051580259204,0.3733121752738952,-0.2926355302333832,0.0776119381189346
3.025746337890625,-0.9025617842350154,0.5894879145961255,5.777139632374048,0.587827742099762,-0.2765956521034241,0.0424794815480709
3.035772216796875,-0.7776282674904912,0.3849037188358604,6.392636506038904,0.7662214636802673,-0.2012052685022354,0.0101100904867053
3.04579833984375,-0.702871351865679,0.1520787133015692,7.05626875731945,0.8974900841712952,-0.0325362309813499,-0.0192497968673706
3.05582421875,-0.5195655064556748,-0.0085369421988725,7.683567127937078,0.9573060274124146,0.1669166982173919,-0.0405673347413539
3.065850830078125,-0.3910908830381929,-0.1741610735110938,8.17301477870047,0.9550331234931946,0.2984597384929657,-0.075688399374485
3.075876708984375,-0.2465487757865339,-0.4059051519408821,8.381997720876335,0.8987154960632324,0.3409579396247864,-0.1273827403783798
3.08590283203125,0.0753563428226858,-0.5547140497915446,8.292201714617013,0.8071051836013794,0.2976080477237701,-0.1477633863687515
3.095928955078125,0.6351585825987159,-0.7931738463424146,7.862738284695148,0.69072425365448,0.1912480443716049,-0.1097912341356277
3.105954833984375,1.162409748186171,-0.9729885617010294,7.083570605742931,0.5442146062850952,0.1753921508789062,-0.0593797340989112
3.11598095703125,1.2914347720280288,-1.2442350678272545,5.840771269807219,0.3335963785648346,0.4647786915302276,-0.0198581591248512
3.1260068359375,1.0105382478944958,-1.763636981219053,3.7316204769849777,0.0588460937142372,1.0166385173797607,-0.0382280312478542
3.136032958984375,0.3373910031631589,-2.403494973680377,0.7803869916141033,-0.2530103325843811,1.7625892162322998,-0.1502094268798828
3.146057861328125,-0.0945895241461694,-2.923038195239007,-3.2680285674899814,-0.4363427460193634,2.392646551132202,-0.3639363050460815
3.156083740234375,0.481018552853167,-3.288492094326019,-8.475082247287034,-0.2654282748699188,2.434192180633545,-0.5452014207839966
3.16610986328125,2.898683798444271,-3.0455484303593634,-13.809313277232649,0.2604875564575195,1.8381462097167969,-0.4984082877635956
3.1761357421875,6.710950760549307,-1.922753045811504,-18.09113719471693,0.896303117275238,0.913084089756012,-0.1071681082248687
3.186161865234375,9.971881478732824,-0.3816606452614068,-19.816369918739795,1.2992037534713743,0.0878631323575973,0.3862090110778808
3.196187744140625,9.79478829729259,-0.1157892563022673,-18.384158018016816,1.2350157499313354,-0.247176393866539,0.7056882381439209
3.2062138671875,6.382092900192737,-1.3332394853174685,-15.456624557185172,0.8353642821311951,-0.1686568111181259,0.7899693250656128
3.21623974609375,2.5281153328225017,-2.6189193470805883,-12.43595337845087,0.2077312767505645,0.0337149277329444,0.7238920331001282
3.226265869140625,0.2235261390522122,-2.7527403730273243,-10.174883592933416,-0.5018342137336731,0.1216987520456314,0.6252994537353516
3.2362919921875,-0.6300460618905722,-2.519872697395086,-8.926077125537395,-1.2098100185394287,0.1531762480735778,0.5993714928627014
3.24631787109375,-0.4622684058062732,-1.8697418788529927,-8.652764042270183,-1.833429336547852,0.0866089612245559,0.6227462291717529
3.256343994140625,0.0591102144859731,-0.298210793158412,-9.258239872658253,-2.09906005859375,-0.1240326911211013,0.5438241958618164
3.266369873046875,0.1153952885486185,1.3173627017498015,-10.85839777176976,-1.8854477405548096,-0.3443516492843628,0.3173114657402038
3.27639599609375,-0.2339475798234343,2.117501272538304,-12.301258492279052,-1.3517558574676514,-0.4309682846069336,0.0748407468199729
3.286421875,0.0266381238177418,2.1029045919090508,-12.348256390297411,-0.7010149359703064,-0.2539023756980896,0.0044715488329529
3.29644775390625,1.0374765237025916,1.793174479740113,-10.819302609699964,-0.1486162096261978,0.0064578517340123,0.1263356655836105
3.306473876953125,1.82076332841143,1.4475956400766967,-7.980182760858535,0.1572089940309524,0.180736169219017,0.3053530752658844
3.31649951171875,1.8131003925681115,1.004404275184125,-4.565806863325834,0.1063572615385055,0.1123232841491699,0.4645573794841766
3.326525634765625,1.5301361222498118,0.7403959036178887,-1.2225064894914626,-0.3210554122924804,-0.2672420144081116,0.6134588718414307
3.3365517578125,1.3413961960271,0.705456107661873,1.499498553532362,-0.9263713955879213,-0.8284419775009155,0.7060519456863403
3.346577880859375,0.6129255618721247,1.2706399674110114,3.12360548350811,-1.4420111179351809,-1.2767820358276367,0.6052641272544861
3.356603759765625,-1.137761483011395,1.8464923745602368,3.356016647544503,-1.6451234817504885,-1.4807531833648682,0.3017281889915466
3.366629638671875,-3.1021292724981904,1.9902441351518037,2.4123861361443995,-1.4642592668533323,-1.3459773063659668,-0.1184486299753189
3.37665576171875,-4.326715783134103,2.015636204431206,1.2681003659307957,-0.9931646585464478,-0.8960162997245789,-0.5035331845283508
3.386681640625,-4.301294926151633,1.8128852885127067,0.536508092623949,-0.3275528848171234,-0.3313677608966827,-0.7605361342430115
3.396707763671875,-3.3743151053011418,1.3057858073331414,0.5857347726076841,0.3919243216514587,0.2125831395387649,-0.8762238621711731
3.406733642578125,-2.0912974484846,0.4394960905712097,1.508787775403261,0.9735491275787354,0.536453366279602,-0.8768662214279175
3.416759765625,-0.8562621706791221,-0.4463040170203894,3.307135419997573,1.3153513669967651,0.6072103977203369,-0.7782139182090759
3.42678564453125,0.2555035780712962,-1.0704742456801235,5.584566557729244,1.4065258502960205,0.4630076885223388,-0.5912157297134399
3.436811767578125,1.3080628123544156,-1.5696356273368,7.862713150253891,1.2673925161361694,0.1848940551280975,-0.3663365244865417
3.446837890625,1.7031266906768083,-1.8975594217136504,9.891045608520509,0.9563137292861938,-0.0984404608607292,-0.1668676435947418
3.45686376953125,1.440209621478617,-2.059355226909369,11.254530594497918,0.5453882217407227,-0.3274208605289459,-0.0044045378454029
3.466889892578125,0.9673962946519256,-2.006875974870473,11.97809270608425,0.1019864901900291,-0.4760977029800415,0.1329214721918106
3.476915771484375,0.4189183627709746,-1.5470219367295504,12.18404548678398,-0.2722110748291015,-0.5449915528297424,0.2244918644428253
3.48694189453125,-0.4403519036829471,-1.086804472103715,11.710526642036438,-0.4878987669944763,-0.5313454270362854,0.228507786989212
3.4969677734375,-1.450949480549246,-0.7959438955776393,10.621752915686368,-0.5465806722640991,-0.4480670392513275,0.1643450558185577
3.506993896484375,-2.135345118395239,-0.4697576655831187,9.445579138302802,-0.4745357930660248,-0.3568467199802398,0.1211967021226883
3.517019775390625,-2.237535911325365,0.0644797786951065,8.355605973035097,-0.2905023097991943,-0.2993786334991455,0.0994304195046424
3.527045654296875,-2.1747838332057,0.51741095877029,7.485336465921997,-0.0366851352155208,-0.2590488791465759,0.0849984437227249
3.53707177734375,-2.2350404412478206,0.846453454978764,6.885007350772619,0.2308645397424698,-0.2036511152982711,0.0416355282068252
3.54709765625,-2.482912793788313,1.1527746354870498,6.7138359605968,0.4687407910823822,-0.1347448229789734,-0.0351352468132972
3.557122802734375,-2.615975110322237,1.3509101665645835,6.85969813747108,0.6649441123008728,-0.0854614302515983,-0.113333910703659
3.567148681640625,-2.5158675534069537,1.3543328344896437,7.151058918604254,0.8204693794250488,-0.0327240973711013,-0.1774058043956756
3.5771748046875,-2.308538662048429,1.3154803951345384,7.50314334076941,0.9105281829833984,0.0045577571727335,-0.2354438006877899
3.587200927734375,-2.0498250358894468,1.267236880969256,7.907994892004131,0.9446844458580016,-0.0150338802486658,-0.2887328565120697
3.597226806640625,-1.6914526194959878,1.1474055096693336,8.389773615574835,0.8956559300422668,-0.0471721105277538,-0.324051946401596
3.6072529296875,-1.2505733309380709,1.004927130014449,8.690427125710249,0.7683584094047546,-0.0749931335449218,-0.3316697478294372
3.61727880859375,-0.8110416575968266,0.8972169891409575,8.517067870101332,0.621433675289154,-0.0985727608203888,-0.3445764780044555
3.627304931640625,-0.4765244563043117,0.8616184370152652,7.844460285204648,0.5149221420288086,-0.0576790645718574,-0.3868991434574127
3.637330810546875,-0.2198182244449854,0.9066701694019138,6.664399437254667,0.4685402512550354,-0.0042539234273135,-0.4145014882087707
3.647356689453125,0.1685819582045078,0.7036199782758951,5.167330156695843,0.4440045356750488,0.0329672135412693,-0.3703673183917999
3.6573828125,0.8890927193962037,0.4124352843619883,3.686412384992838,0.3652620613574981,0.1901001185178756,-0.3043834865093231
3.66740869140625,1.5152293527580796,0.2316208904415369,1.9737036269783967,0.1363785415887832,0.451392263174057,-0.3118287026882171
3.677434814453125,1.6027347638621925,-0.143326667047292,-0.314333660441637,-0.1982654780149459,0.7438251972198486,-0.4236615002155304
3.6874609375,0.7220702655933797,-1.550026671503484,-3.677358140921593,-0.5624880194664001,1.4332479238510132,-0.6001377701759338
3.697487060546875,0.0886468362241983,-4.151151126435399,-9.02222805378139,-0.8827325701713562,2.207287549972534,-0.5710927844047546
3.707512939453125,2.060688375209272,-5.845124788841605,-15.334595091319084,-1.0203248262405396,2.108680248260498,-0.3080847859382629
3.7175390625,6.7814616361022,-4.027867276594042,-20.56631150320768,-0.7128301858901978,1.0101836919784546,-0.0902957469224929
3.72756494140625,9.606875615674255,-1.6195504357151689,-24.41410219863653,-0.0555934868752956,0.1628012061119079,-0.0095145907253026
3.7375908203125,9.05598477743268,-3.2914380846500397,-27.545879298162458,0.4383384585380554,-0.1890436559915542,0.3885965645313263
3.74761669921875,8.977740092757344,-3.649973290389776,-26.157686571907995,0.3797575235366821,0.1207293719053268,0.9528719782829284
3.757642578125,8.608036427271365,-2.224827090269327,-22.619584925985336,-0.1733427047729492,0.3566870391368866,1.430568814277649
3.767668701171875,6.464507564029097,-1.584617215630412,-19.51452749108076,-0.9736089110374452,0.1078006029129028,1.501175045967102
3.777694580078125,3.742634038430452,-0.0861523890599608,-17.063823606979845,-1.652815341949463,-0.2796570956707001,1.114737033843994
3.787720458984375,1.106953818424046,2.0307978254668413,-16.45793159700632,-1.7785786390304563,-0.5304531455039978,0.4340267181396484
3.797746826171875,-1.2313558586403728,3.4281422648176547,-17.759191889739036,-1.1271837949752808,-0.4382033348083496,-0.3556407392024994
3.807772705078125,-2.5065166644766927,3.6433725769504894,-18.91999858664274,0.0354721508920192,0.0767833590507507,-0.9321130514144896
3.817798828125,-1.7848447505511342,2.990355535447597,-17.99788724861145,1.273582935333252,0.7739912271499634,-1.123805284500122
3.82782470703125,0.2330726966850459,2.036607096267492,-14.170283601164815,2.293729305267334,1.2227909564971924,-0.9567353129386902
3.837850830078125,2.4289883113771675,1.0871772509388624,-8.245920440435409,2.867848873138428,1.2094762325286863,-0.579948365688324
3.847876708984375,3.2879332913994785,-0.0131016197659075,-1.4333967265933751,2.870500087738037,0.827465295791626,-0.2165429890155792
3.85790283203125,2.8072952622964977,-1.097936691492796,5.003090027087927,2.405923128128052,0.3159410059452057,0.0832911282777786
3.8679287109375,2.002557965540886,-1.5561233809433876,10.111010547959804,1.6080069541931152,-0.2301476746797561,0.3501149415969848
3.87795458984375,0.571017242077738,-1.448463947343826,13.740856411600111,0.6279594898223877,-0.6438846588134766,0.5320035219192505
3.887980712890625,-1.3299781454339623,-1.0669732518218458,15.674913087844848,-0.4461817145347595,-0.7871112823486328,0.6322826147079468
3.898006591796875,-2.895843022060394,-0.3557271625816822,16.23773284881115,-1.441373586654663,-0.7769262790679932,0.6041635870933533
3.908032958984375,-4.914052145719528,0.3880769420444965,15.461704052406548,-2.099517107009888,-0.5894234776496887,0.3372700810432434
3.918058837890625,-7.004891621303558,0.5067215877778828,12.89897888623476,-2.2578377723693848,-0.248664304614067,-0.0941899716854095
3.9280849609375,-7.821224955567717,0.2437302842997014,9.383394777068496,-1.897683262825012,0.0819636359810829,-0.3711048066616058
3.93811083984375,-6.386179877245426,0.3166558197788894,6.226597802576422,-1.1611298322677612,0.2763815820217132,-0.3357071280479431
3.94813671875,-3.8169352461770174,0.6598210224293172,3.836909820452332,-0.2587863802909851,0.1695645451545715,-0.1036082208156585
3.958162841796875,-1.752461068818718,0.7031504610680043,2.821337523913383,0.574221134185791,-0.1558694839477539,0.1869136244058609
3.968188720703125,-0.8604806651569903,0.7232717503376305,3.553075927692652,1.0900394916534424,-0.4622633159160614,0.4376930594444275
3.9782138671875,-1.2084537064805627,0.799652102445811,5.790766006666422,1.234342098236084,-0.6749803423881531,0.5839778780937195
3.98823974609375,-2.227672396697849,0.8579768656425177,8.509806354665756,1.1046297550201416,-0.8277990221977234,0.6296693682670593
3.998265625,-3.117243839521706,1.042804440727085,10.712395894163846,0.7829994559288025,-0.8967338800430298,0.5955329537391663
4.008291748046875,-3.9389088902026415,1.3284699328280984,12.228485517013072,0.3469988405704498,-0.794605016708374,0.4702309966087341
4.018317626953125,-4.680169740086794,1.6061166613854467,12.832261557745932,-0.0936696156859397,-0.6463084816932678,0.2441784143447876
4.02834375,-5.259499906349181,1.703056986441463,12.61521572062373,-0.4117601811885834,-0.5310893654823303,-0.0235558450222015
4.038369873046875,-5.177326650053263,1.71756759622246,11.62510578212142,-0.519718587398529,-0.4571757614612579,-0.2490627318620681
4.04839599609375,-4.396171596676111,1.8297436304636296,10.211155514276028,-0.4402139484882355,-0.4196605086326599,-0.3425528109073639
4.058421875,-3.0454248039796945,2.034878957300633,8.832478219863772,-0.1748153120279312,-0.3602656126022339,-0.2969347536563873
4.068447265625,-1.8670308663286268,2.1445599598556755,7.613146853277087,0.2037356346845626,-0.3015324473381042,-0.1946945935487747
4.078473388671875,-1.298836864978075,2.1060160019278524,6.703426794785261,0.6016332507133484,-0.3216592967510223,-0.1353609710931778
4.088499267578125,-1.1752477485798298,2.1557912557050583,6.569468990716338,0.9123131632804872,-0.3841821551322937,-0.1107238456606864
4.098525390625,-1.0799516835995018,2.3651976839900017,7.191410802736878,1.0855605602264404,-0.4029664397239685,-0.0946721732616424
4.10855126953125,-1.0063641770802438,2.374084608670324,8.176416111576557,1.0824517011642456,-0.3364284336566925,-0.0869748964905738
4.11857763671875,-1.0849835402868688,2.202530795048177,9.131933460125326,0.9090967774391174,-0.1954715847969055,-0.11329385638237
4.128603515625,-1.2649768270827828,2.0332037175647915,9.752454299432038,0.6174796223640442,-0.070171408355236,-0.2166765481233596
4.13862939453125,-1.3866922585636376,1.816969781347364,9.88867478773594,0.2853653132915497,-0.1214401870965957,-0.3010340332984924
4.148655517578125,-0.8772029596380889,1.689691455042362,9.401118649807572,-0.0201686508953571,-0.359671413898468,-0.2728822529315948
4.158681396484375,-0.0069587330967187,1.7790723046295345,8.4279639377594,-0.2512418031692505,-0.6209309697151184,-0.2399612963199615
4.16870751953125,0.0906445859126746,1.899381522574276,6.937329658684134,-0.356045663356781,-0.7304888963699341,-0.2919583320617676
4.1787333984375,-0.549769286865741,1.5600414311699569,5.00032406950593,-0.3546554744243622,-0.4043799936771393,-0.4143777191638946
4.188759521484375,-1.2432380196139217,1.2260238499626517,2.301335744932293,-0.2145636677742004,0.225806638598442,-0.5739385485649109
4.198785400390625,-1.6129574671909213,0.4411434924520552,-0.9087275403231382,0.0251437239348888,1.0024230480194092,-0.6926851868629456
4.208811279296875,-1.049647584620118,-0.7948480631649494,-4.174151478272676,0.1980572491884231,1.616559386253357,-0.6317851543426514
4.21883740234375,0.9814160521760582,-1.6544105905637143,-7.05764764445722,0.2063330113887787,1.6256263256072998,-0.356799453496933
4.22886328125,3.6125469383150337,-1.7343784457698463,-9.008652532893418,0.0577654279768466,1.133304476737976,-0.072543516755104
4.238889404296875,5.103149653208256,-1.3782953093573451,-10.5516091198802,-0.1562422066926956,0.3569775521755218,0.0459221489727497
4.248915283203125,4.930244571107625,-1.1477059539206325,-11.465165395534038,-0.4292407035827636,-0.1487727463245391,0.0082327313721179
4.25894140625,3.551898700606823,-1.916207715821266,-12.055174776721,-0.8323522210121155,-0.2241857498884201,0.0818416997790336
4.26896728515625,2.7150208832249043,-3.1943215262442823,-12.881826675903795,-1.312594652175903,0.2225827872753143,0.356076717376709
4.2789931640625,2.6486805713549253,-4.516750279211998,-15.29230142546892,-1.8401224613189695,0.6681296229362488,0.768960177898407
4.289019287109375,3.0043595108807084,-4.259176616868377,-18.634297146445512,-2.2330470085144043,0.5386673212051392,1.0805054903030396
4.299045166015625,3.382556863945722,-2.0357836510553957,-21.784773101222516,-2.2717244625091557,-0.109147123992443,1.0012487173080444
4.3090712890625,2.58213830717206,0.5327331041298806,-24.56483636546135,-1.8127964735031128,-0.8268214464187622,0.5880505442619324
4.31909716796875,1.1161055315203965,2.047354261861741,-26.13654792228937,-1.0432106256484983,-1.105516791343689,0.1905913352966308
4.329123291015625,0.7383170515172183,2.766952730514109,-25.04938864539861,-0.1976224333047866,-0.7327964901924133,0.0244819521903991
4.3391494140625,1.328823276310414,2.404162497678399,-21.559814006757733,0.6224101185798645,-0.0643473342061042,0.0806746482849121
4.349175537109375,2.1382826331518587,1.6211055562026797,-16.529596318769453,1.2300245761871338,0.527966320514679,0.2668337523937225
4.359201416015625,2.6894582796841857,0.8268276941411197,-10.58830891124606,1.4085432291030884,0.7338494658470154,0.4732950329780578
4.369227294921875,2.877883586999774,0.0641103608608245,-4.417661543950438,1.111358404159546,0.441784530878067,0.6239665746688843
4.37925341796875,2.556445939771831,-0.2697439926087856,1.1490268272608517,0.481516033411026,-0.108849324285984,0.6398754715919495
4.389279296875,1.5636783263675869,-0.5649046044163406,5.279317536497116,-0.3666273951530456,-0.5820670127868652,0.6220144033432007
4.399305419921875,0.571420269920677,-0.993725498650968,7.529372591525316,-1.2154897451400757,-0.9041476249694824,0.6863009929656982
4.409331298828125,-0.5731574689768254,-0.7206336569190025,7.935459822034836,-1.7260998487472534,-1.0375089645385742,0.6461160182952881
4.419357421875,-2.346868684964627,-0.0982470237404108,6.8987862852782005,-1.7962113618850708,-1.014595866203308,0.4397466480731964
4.42938330078125,-3.824115220808983,0.3092200437549501,5.078846986600756,-1.4782826900482178,-0.8871212601661682,0.2154657989740371
4.4394091796875,-4.145211214992404,0.825704900656268,3.727016782581806,-0.9106194972991944,-0.5831262469291687,0.105397343635559
4.449434326171875,-3.740039930284023,1.2027344520509242,3.042759091901779,-0.2777515053749084,-0.3219145834445953,0.0476168692111969
4.459460205078125,-3.393145477977395,0.9707316496197134,3.2732132766515014,0.2750585377216339,-0.179961010813713,-0.0295775551348924
4.469486572265625,-3.274899622303247,0.5268764139909297,4.719624967640638,0.614900529384613,-0.0693325474858284,-0.0675721764564514
4.479512451171875,-2.962529955410957,-0.020779753178358,6.71901833167076,0.7313597798347473,0.0126832220703363,-0.0704406648874282
4.489538330078125,-2.7543706045776606,-0.4816030016776174,8.653000773635506,0.6813874244689941,0.0908044278621673,-0.0654947608709335
4.499564453125,-2.5453368089973925,-0.7971411425381898,10.033252770018578,0.4950524568557739,0.1723650693893432,-0.054502822458744
4.50959033203125,-2.437931496289372,-1.1427073419157414,10.787777006101608,0.2248943150043487,0.2282269299030304,-0.055863257497549
4.519616455078125,-2.349319731378555,-1.3968484725274144,11.069486161792277,-0.0741863921284675,0.2966776192188263,-0.0465509817004203
4.529642333984375,-1.9213173139199613,-1.4804920936368404,10.813582478487492,-0.3467877805233001,0.2765364646911621,-0.0012611140264198
4.53966845703125,-1.1893918631359934,-1.3890207015112042,10.071989035648109,-0.5442601442337036,0.1482791602611541,0.0700921565294265
4.5496943359375,-0.5114063845932484,-1.1049434284497053,9.00454860470593,-0.6306365728378296,-0.0580400303006172,0.1380981206893921
4.55972021484375,-0.1783591097228229,-0.7037946041904389,7.721747513249516,-0.582779586315155,-0.3060559332370758,0.1906196624040603
4.569746337890625,-0.1939054192271083,-0.2119166575402021,6.565412408801913,-0.4019103348255157,-0.491045594215393,0.2176736742258072
4.5797724609375,-0.502308082184568,0.3232327139511704,5.743365373066068,-0.1400185376405716,-0.5402227640151978,0.1891685277223587
4.589798583984375,-1.0196486060671508,0.6842824597951024,5.290158663985133,0.1560137569904327,-0.4716206789016723,0.1151941418647766
4.599824462890625,-1.4734223013810812,0.9910812677524984,5.237567476004362,0.4399301707744598,-0.3252823650836944,0.0130467377603054
4.6098505859375,-1.6522113269537686,1.222519129777327,5.5587762829124925,0.6791404485702515,-0.1618557721376419,-0.108249731361866
4.61987646484375,-1.6360142253905534,1.2417913279369472,6.169535606661438,0.8322620987892151,-0.0185175165534019,-0.2379185110330581
4.62990234375,-1.4241001981988548,1.1699548298034816,7.03239746786654,0.8937766551971436,0.058989517390728,-0.3372317850589752
4.639928466796875,-0.8964642710775137,1.1279346471324565,7.9307164269000285,0.8743742108345032,0.0288348086178302,-0.3698168992996216
4.649954345703125,-0.2852419329266995,1.1601963099204002,8.683698109716177,0.767911434173584,-0.0402024909853935,-0.369456022977829
4.65998046875,0.0718451198313385,1.1857405010215938,9.187647164040804,0.6163190007209778,-0.1191814541816711,-0.3522842526435852
4.67000634765625,0.3319875366844236,1.196269786081463,9.408516358843444,0.4622477293014526,-0.2057231813669204,-0.3125493824481964
4.680032470703125,0.3563707211822271,1.2500244648836552,9.31868645031452,0.3498242497444153,-0.2430298030376434,-0.3293182253837585
4.690058349609375,0.0099168522499501,1.172398642759025,8.696738793075085,0.2991566956043243,-0.1192111149430275,-0.4080939888954162
4.70008447265625,-0.4449125626619905,0.8848205950349569,7.611012763857841,0.3064252436161041,0.2578403055667877,-0.558671772480011
4.7101103515625,-0.7597505924291909,0.3309432883284985,5.988546002304553,0.3539359867572784,0.8558729887008667,-0.7509582042694092
4.72013623046875,-0.5630847685780376,-0.4912067693904042,4.027676722458005,0.3720603883266449,1.4189772605895996,-0.857748806476593
4.730162353515625,0.6793181884512305,-1.375868958993256,1.9864298375606533,0.3547450602054596,1.54980731010437,-0.7293853759765625
4.740188232421875,2.834000606131553,-2.207149540890008,0.3800888659000396,0.23126120865345,1.5074912309646606,-0.3431650102138519
4.75021435546875,4.824451369771361,-3.3325983625561,-1.282725103610754,-0.1282713711261749,1.4770019054412842,0.166179358959198
4.760240234375,5.50521771120429,-4.479174874055385,-3.615677053034305,-0.674476683139801,1.4889848232269287,0.5731891989707947
4.770266357421875,5.35935436528623,-4.620297747448086,-6.890219532462954,-1.267827391624451,1.286361813545227,0.7493221759796143
4.780292236328125,5.586889447718859,-2.2624350825212893,-11.018838509094714,-1.6176975965499878,0.5913276672363281,0.6682837605476379
4.790318359375,5.225129434713721,0.9730446758024394,-15.239145004820823,-1.4782100915908811,-0.3558610379695892,0.3716045022010803
4.800344482421875,3.085865827700496,1.188786517653987,-19.609623357313872,-1.0236833095550537,-0.8858045339584351,0.1594152897596359
4.810370361328125,1.2944165643177925,-0.5739239963699132,-22.44820076984167,-0.7523581981658936,-0.5549858212471008,0.2880370020866394
4.820396484375,1.5540103343121707,-0.0485677046183496,-22.72270627776384,-0.6845349669456482,0.0010308497585356,0.5733824372291565
4.83042236328125,1.2489904456607996,1.2142147542253137,-22.004031938219068,-0.5607002973556519,0.1517061442136764,0.4946851432323456
4.840448486328125,-0.8458648414358496,2.038742793121934,-20.998039370930197,-0.4238814413547516,0.1262242197990417,0.036257117986679
4.850474365234375,-2.060403274657577,3.0509605185359714,-19.105806404936317,-0.2637157440185547,0.2262611836194992,-0.404099553823471
4.860500244140625,-1.379494456014037,3.3284298446998,-16.82054559649229,0.020739410072565,0.5302926898002625,-0.6136988997459412
4.8705263671875,0.4041390190511941,2.8916382638469336,-14.591921452027558,0.4226904511451721,0.8661014437675476,-0.6357991099357605
4.88055224609375,1.960231128073484,2.191288685543835,-12.027544426995515,0.7595217227935791,1.0353373289108276,-0.5419610142707825
4.890578369140625,3.3532015901237724,1.322868897950649,-8.763749551552534,0.8254147171974182,0.8763222694396973,-0.2896041870117187
4.9006044921875,4.941030753538012,0.7186229746837168,-4.843758712309598,0.5600836873054504,0.4330801665782928,0.0567034035921096
4.910630615234375,5.706278628209233,0.603305208350718,-0.9163339236736298,0.0042737741023302,-0.1183433160185813,0.3350061178207397
4.920656494140625,5.141237099540233,0.2631845610279589,2.151571884444356,-0.7715969085693359,-0.6486870646476746,0.5158249139785767
4.9306826171875,3.501230005121231,0.3049425125662237,3.645774085134268,-1.3776286840438845,-1.0310548543930054,0.4903707504272461
4.94070849609375,1.1703965091563762,0.7321973995931446,3.3783459682524204,-1.5510015487670898,-1.2257177829742432,0.2932869791984558
4.9507333984375,-0.8287561779856681,0.635414018664509,2.2124510082989928,-1.3563199043273926,-1.1251730918884275,0.1046438962221145
4.960759521484375,-1.6189330344691872,0.6778630212068557,1.1115519598692656,-0.8988237380981445,-0.8014077544212341,0.0222582127898931
4.970785400390625,-1.5366405357077717,1.037859020214155,0.8408563656240701,-0.322169542312622,-0.4386273324489593,0.0277172960340976
4.980811279296875,-1.3941574798777698,1.0575870723824947,1.3847498923242092,0.2189658731222152,-0.1585994064807891,0.0597753636538982
4.99083740234375,-1.5836803731717168,0.789144736956805,2.687065247067809,0.6105504631996155,0.0002370090223848,0.1026230305433273
5.00086328125,-1.7954395020626484,0.4153775483589619,4.282863781926036,0.8322455883026123,-0.0272002089768648,0.1402244716882705
5.010889404296875,-1.9625705308064816,0.1721135663967579,6.0634676800370215,0.8976660370826721,-0.0999948307871818,0.160475268959999
5.020915283203125,-2.075375802861899,0.0182473120912909,7.679446833136677,0.8339592218399048,-0.1637791246175766,0.1900190412998199
5.030941650390625,-2.197969916873425,-0.2669170986197888,8.862132768893241,0.6618549227714539,-0.2144036591053009,0.2341001033782959
5.040967529296875,-2.2820202190876007,-0.4790026099208742,9.747225751128791,0.409661054611206,-0.2674223780632019,0.2740302085876465
5.05099365234375,-2.3765131509914994,-0.4306990361314267,10.279507165968418,0.1395339071750641,-0.3398992419242859,0.2960002422332763
5.06101953125,-2.61294787145555,-0.238250172388181,10.326150843721628,-0.063298299908638,-0.4007258415222168,0.2788718342781067
5.071045654296875,-2.8876494864717124,-0.139994746145606,9.880108034920692,-0.1536485701799392,-0.3866174221038818,0.2352194637060165
5.081071533203125,-2.9820097319066523,-0.1392227388598024,9.135710640576482,-0.1355127096176147,-0.3290058076381683,0.2167078256607055
5.091097412109375,-2.851719510434568,0.1709312978096306,8.412117549329995,-0.0217565633356571,-0.2499723136425018,0.1719579696655273
5.10112353515625,-2.791874405802786,0.5952333263803273,7.722580456942319,0.1537199169397354,-0.1868282407522201,0.0744460523128509
5.1111494140625,-2.808391533100605,0.6990148225679993,7.085578438434005,0.3830627501010895,-0.1344956755638122,-0.0460074692964553
5.12117578125,-2.512615858134627,0.6168906661108136,6.665346362715959,0.6332622170448303,-0.0461482405662536,-0.1111164316534996
5.13120166015625,-1.8146403154864903,0.5069112651310861,6.681119101387262,0.8329901695251465,0.0347380526363849,-0.1012980416417121
5.1412275390625,-1.0298629799589514,0.4009042018484324,7.218714989247918,0.9455078840255736,0.020672034472227,-0.0644066035747528
5.151253662109375,-0.540601791678369,0.3017154402785003,8.056319075077772,0.9573776721954346,-0.0750428438186645,-0.0397915765643119
5.161279541015625,-0.3038610740050673,0.2152827729724347,8.934269199821353,0.8803247213363647,-0.2086224853992462,-0.0160937048494815
5.1713056640625,-0.2086692000515758,0.1295898181177675,9.597232173538208,0.7266153693199158,-0.2677372694015503,-0.0107943760231137
5.18133154296875,-0.3072146222166717,-0.0392465532392263,9.961578695905208,0.5332626700401306,-0.2276995629072189,-0.03854451328516
5.191357666015625,-0.4557015946365892,-0.277174288740009,9.855221430945395,0.3737810552120209,-0.1620524078607559,-0.0876456350088119
5.201383544921875,-0.6103484048604965,-0.4281682755447923,9.14580299552381,0.3121347427368164,-0.0525171309709548,-0.1532025337219238
5.211409423828125,-0.6757689715370535,-0.534606789047271,7.983889798682927,0.3203968703746795,0.0383489318192005,-0.2297851592302322
5.221435546875,-0.5685492445290088,-0.5718966552607715,6.754557262563705,0.3422102630138397,0.0596195980906486,-0.2686992585659027
5.231461669921875,-0.0634822920903563,-0.5487738460876047,5.5377264806211,0.3237318396568298,0.0513599291443824,-0.227294385433197
5.24148779296875,0.5484747170105576,-0.3867025849513709,4.227405514076352,0.2052414119243621,0.1350114196538925,-0.1932876855134964
5.251513671875,0.509721938637644,-0.5574744544155895,2.654293442800641,-0.04417584836483,0.406053751707077,-0.2818551957607269
5.261539794921875,-0.3265529444150626,-1.3034021270669995,0.0729939245402813,-0.2636741101741791,0.8082981705665588,-0.5535261631011963
5.271565673828125,-1.5662022918872534,-2.85752468958199,-3.996058764401078,-0.3162759244441986,1.131662368774414,-0.8479899168014526
5.281591796875,-1.4493626497492194,-4.861837389835715,-8.615085176739097,-0.2563337683677673,1.3806341886520386,-0.9310544729232788
5.29161767578125,0.9690484457731248,-5.566397863832115,-12.52647945255041,-0.2271396964788437,1.4595670700073242,-0.7277480363845825
5.3016435546875,4.225389498078823,-4.744325693655013,-15.304473509299754,-0.1763311028480529,0.9216505885124208,-0.2776330709457397
5.311669677734375,7.581625925853848,-2.814526674854755,-16.29535969287157,-0.1304520517587661,-0.1647170037031173,0.2235077470541
5.321695556640625,8.777471202912926,-0.8885713258706033,-15.456336972415446,-0.3266136050224304,-1.250231385231018,0.5683910846710205
5.331721923828125,6.200590670138597,-1.6993142927818,-13.867304862952231,-0.8895946145057678,-1.8105491399765012,0.7850939631462097
5.341747802734375,2.9531787742197517,-2.811923214358091,-11.92380114392638,-1.7029975652694702,-1.6977972984313965,0.8528863191604614
5.35177392578125,0.5870047925435006,-1.1403977497991171,-10.411882669281958,-2.3924951553344727,-1.2685434818267822,0.7034924030303955
5.3617998046875,-2.0528169111818078,0.0517643087025731,-11.01051024121046,-2.7178187370300293,-0.6962764263153076,0.3905070424079895
5.37182568359375,-3.7742408905714746,0.3320342984355986,-13.278005091339349,-2.806893348693848,-0.1668360978364944,0.2016802579164505
5.381851806640625,-2.7898686189383266,1.9163642215572296,-15.553896013891697,-2.643453359603882,0.055553562939167,0.0840063616633415
5.391877685546875,-1.3247840839222074,3.5231384700685737,-17.323433159065246,-2.1398279666900635,-0.0076759960502386,-0.1302622556686401
5.40190380859375,-0.8848482136942446,3.6915745900616046,-18.39707828986645,-1.4059278964996338,-0.1937808841466903,-0.3508204817771911
5.4119296875,-0.433966294299066,3.502740409684181,-17.715597078162432,-0.6424685716629028,-0.188754454255104,-0.4963608384132385
5.42195556640625,-0.0390602368868887,2.838289243236184,-15.123271723496911,0.0406903028488159,0.081214964389801,-0.5681266784667969
5.4319814453125,0.1947609400779008,1.6871783031776546,-11.332007801932097,0.6439101099967957,0.3471104800701141,-0.5392366051673889
5.442007568359375,0.8599744692005217,0.9757743930272758,-7.091025597923994,1.1667665243148804,0.5490025877952576,-0.3952533602714538
5.45203369140625,1.4018904122173783,0.4159756969152018,-2.688729965409636,1.4090580940246582,0.606728196144104,-0.2012303620576858
5.4620595703125,1.6529513316661115,-0.4085406150110066,2.0276246022582054,1.2078412771224976,0.3311229348182678,0.0108649041503667
5.472085693359375,1.888926325663924,-0.857277923592925,6.705570821076631,0.6626773476600647,-0.1320675760507583,0.2134861350059509
5.482111572265625,1.2924528630293906,-0.9069408030368388,10.125332503300903,-0.1103120595216751,-0.5496383905410767,0.3521721065044403
5.4921376953125,0.0947561128847301,-0.9703872931614518,11.95878945519924,-0.9256613850593568,-0.9040642976760864,0.3817158639431
5.50216357421875,-1.488910524022579,-0.7768575023137032,12.358953140878675,-1.5059452056884766,-1.0697084665298462,0.2223834693431854
5.512189453125,-3.174841165226698,-0.5880996020428836,11.139001012045144,-1.664683222770691,-0.9754796624183656,-0.0991621911525726
5.522215576171875,-4.488488353584707,-0.5714169089198112,8.36994312594533,-1.319845199584961,-0.7089491486549377,-0.4433991909027099
5.532241455078125,-4.422121445968747,-0.7790507745742797,5.494247404378652,-0.6277546286582947,-0.375009536743164,-0.5723408460617065
5.5422666015625,-2.660755916813016,-0.6279194981906563,3.696456224623322,0.1545153558254242,-0.1033306270837783,-0.473682701587677
5.55229248046875,-0.8559660372767597,-0.4474070828914642,3.44567295307219,0.781461238861084,0.1142515018582344,-0.3007453083992004
5.562318359375,-0.1000738007761538,-0.8530373634137213,4.499707374474406,1.09855854511261,0.1954907029867172,-0.1549241989850998
5.5723447265625,-0.1186218493796884,-1.231030572208762,6.473876865398884,1.1003974676132202,0.090425431728363,-0.0887464359402656
5.58237060546875,-0.4857332333501428,-1.2990242042437194,8.667589855480193,0.8443493843078613,-0.0747835040092468,-0.0886564254760742
5.592396728515625,-0.8286786557700484,-1.3305071377441289,10.252224022245407,0.4395932555198669,-0.2500626444816589,-0.1083240732550621
5.602422607421875,-0.9699983669091016,-1.2126023505926131,11.081188290023803,0.0260421652346849,-0.387234091758728,-0.1419970691204071
5.61244873046875,-1.0732244942363351,-0.9413198963701724,11.057868204712866,-0.2545634806156158,-0.389055848121643,-0.2330152094364166
5.622474609375,-1.3629684147574006,-0.7770541939295827,10.076390485477448,-0.3062386810779571,-0.3117352128028869,-0.3586248159408569
5.63250048828125,-1.4330585806801914,-0.7435077520281076,8.703837226903438,-0.1383008658885955,-0.1934248208999633,-0.4524120688438415
5.642526611328125,-1.0113405772533268,-0.6235477128472179,7.533166138589381,0.1640464961528778,-0.0765288323163986,-0.4577248096466064
5.652552490234375,-0.3571606294509023,-0.4931244030473753,6.860028976860642,0.5354397892951965,-0.011590901762247,-0.4324664175510406
5.66257861328125,0.1231006022289395,-0.4038088737813756,6.779628575456142,0.9007372856140136,-0.028967760503292,-0.3933115601539612
5.6726044921875,0.2432852439459413,-0.2825812623500824,7.397932323235273,1.163047194480896,-0.0188790578395128,-0.3376196324825287
5.682630859375,0.2958819118194282,-0.1460739199288189,8.373532674869894,1.2793474197387695,-0.0257825050503015,-0.2669715583324432
5.69265673828125,0.2432658816583454,-0.0077955492470413,9.584792378681897,1.2292474508285522,-0.045713797211647,-0.1827690005302429
5.702682861328125,0.2455835109509527,-0.0044814562629908,10.667653081595898,1.0320552587509155,-0.0524326860904693,-0.0845090225338935
5.712708740234375,0.1798646189149469,-0.091050536365062,11.319313155531882,0.7137492299079895,-0.05411958694458,-0.0109259728342294
5.722734619140625,-0.1251418257329613,-0.1487451849646866,11.388409488111732,0.3759424090385437,-0.1418188214302063,-0.0368465185165405
5.7327607421875,-0.5694062266845256,0.0673562839794904,10.737232229256628,0.1129352301359176,-0.3857150971889496,-0.1126017421483993
5.74278662109375,-0.7076729799937457,0.6886551219213753,9.476941660293935,-0.0274043027311563,-0.6755727529525757,-0.2030086070299148
5.752812744140625,-0.7396162244822829,1.1053971635665745,7.854150489091872,-0.090646281838417,-0.8140575885772705,-0.2923214733600616
5.762838623046875,-0.971149875031784,1.1946032411087304,6.074223467329144,-0.0908723846077919,-0.6398751139640808,-0.3877273499965668
5.77286474609375,-1.3493135450229048,1.187535494679585,3.870625627571344,0.0009491068776696,-0.0340343527495861,-0.488300085067749
5.782890625,-1.3603392352975905,1.1678388605628165,0.914893661737442,0.2124248743057251,0.6937340497970581,-0.5568996667861938
5.792916748046875,-0.4825425475500524,1.3341735512971875,-2.5207325290948157,0.6481965780258179,1.0812416076660156,-0.5013648271560669
5.80294287109375,1.456388602863252,1.2782177091889082,-6.21360388096869,1.285988211631775,1.1402052640914917,-0.2223513275384903
5.81296875,3.748322313199937,1.195694762672484,-9.78486545369327,1.7781985998153689,1.1454087495803833,0.1949492990970611
5.822994873046875,5.412546441769599,0.3309218071490526,-12.100891402757169,2.051412343978882,1.3548970222473145,0.6336236000061035
5.833020751953125,6.598697423288225,-0.5160492419630289,-13.413977742362022,1.8857234716415403,1.292571783065796,1.0721298456192017
5.843046875,8.028219938796758,0.3209383194036782,-12.724945676887035,1.0803704261779783,0.7294063568115234,1.4408245086669922
5.85307275390625,7.424730313789844,1.162491581250727,-10.150448239856958,-0.1815670132637024,0.053447850048542,1.601765513420105
5.863098388671875,4.078714251255989,-0.3222154997326433,-8.90044408710897,-1.4177744388580322,-0.310725063085556,1.4244471788406372
5.87312451171875,-0.1671445458125323,-2.17585131630674,-10.292123486435411,-2.43011736869812,-0.3720933496952057,1.240134835243225
5.883150390625,-1.5435839251048862,-1.1993921558856964,-13.209829965257644,-2.976846218109131,-0.3123796880245209,1.075164794921875
5.893176513671875,-1.6281898153752088,1.0585145624909549,-17.21528725712299,-3.0271031856536865,-0.209882453083992,0.8736883401870728
5.90320263671875,-1.8946055403441189,2.9900752572014926,-20.99564283118248,-2.6057934761047363,0.0401462838053703,0.5969131588935852
5.913228759765625,-2.030873667182028,4.570568086378276,-22.711439033818245,-1.920985221862793,0.6687490344047546,0.2425817251205444
5.923254638671875,-2.439940498024225,4.049962788546085,-22.23990054923296,-1.14659321308136,1.511462926864624,-0.0314575396478176
5.93328076171875,-2.3275841387800877,2.8748236149072643,-19.95597011260986,-0.2907557785511017,2.1040096282958984,-0.2654708921909332
5.943306640625,-1.5780641407251357,1.9854133539944887,-16.59765921664834,0.4818938076496124,2.0027825832366943,-0.3890535533428192
