seconds_elapsed,ax,ay,az,gx,gy,gz
0.066525634765625,-1.2785386117063462,-0.2117418854951858,-2.7020833679795264,0.41183802485466,1.5967721939086914,-1.2463388442993164
0.0765517578125,-0.3449642148964106,-1.3764319997034966,-5.850820954656601,0.1397489160299301,1.873021960258484,-1.1249773502349854
0.08657763671875,2.2472905587509278,-1.9158846213467415,-9.222219880250096,-0.2087725847959518,2.0202157497406006,-0.7423391342163086
0.096603759765625,5.7907502245754,-1.4365011223495006,-13.901998575192687,-0.4216667711734772,0.9349795579910278,-0.2352544069290161
0.106629638671875,10.083373183971643,2.074630829713493,-16.560243970489502,-0.3672610521316528,-1.0858830213546753,0.1985068768262863
0.116655517578125,11.441145052999255,4.242959057039022,-16.371629278081656,-0.5158095359802246,-2.1833314895629883,0.537778913974762
0.126681640625,7.806564562052488,1.6503012555487453,-15.700183138179778,-0.8911131024360657,-2.2021000385284424,0.8246738314628601
0.13670751953125,3.9409278288096186,-0.0706898853816092,-13.52657185588479,-1.3165456056594849,-1.4252533912658691,0.9582104682922364
0.14673388671875,0.9670815296143292,0.5209494350947439,-11.741185984194278,-1.7940136194229126,-0.3123151957988739,0.8861402273178101
0.156759765625,-0.9926011707961558,0.7296633510708809,-11.513493665373325,-2.2188448905944824,0.626245379447937,0.7179914116859436
0.166785888671875,-0.460644311735779,1.998464997138828,-11.933244679576156,-2.350412607192993,1.1129047870635986,0.3947967886924743
0.176811767578125,1.144614709907025,4.244556555363536,-12.91014909954667,-1.9655861854553225,1.1687843799591064,-0.0124558666720986
0.186837646484375,2.323139580461383,4.488338423720002,-14.178256479740142,-1.1287240982055664,1.1277751922607422,-0.2905740141868591
0.19686376953125,3.513407057388126,3.062548664999008,-13.902418261909483,-0.4041652977466583,1.1863090991973877,-0.2641338109970093
0.2068896484375,5.0792017913877965,1.2262452376283703,-11.414233665198086,-0.1352105140686035,1.0968111753463743,-0.056812584400177
0.216915771484375,5.59518673594296,-0.4894814434351399,-7.282077746611833,-0.2265693545341491,0.8020920157432556,0.1096716001629829
0.226941650390625,4.729844748359918,-1.9206468673124908,-3.427914593541622,-0.5046478509902954,0.3390559554100036,0.2282203584909439
0.2369677734375,3.5643387877240773,-3.2716596174687145,-0.6118716689050198,-0.7463650107383728,-0.1037165969610214,0.4259617030620575
0.24699365234375,2.579087687429785,-4.27901353623867,0.9326455915272236,-0.8267943263053894,-0.374611496925354,0.6698928475379944
0.25702001953125,1.1899360530152916,-4.756376781454682,1.7338596825927497,-0.7770190834999084,-0.5152499675750732,0.8386278748512268
0.2670458984375,-0.837995715495944,-4.816020226034522,2.3819641098737714,-0.6186286211013794,-0.5424120426177979,0.8795438408851624
0.27707177734375,-2.824890247958898,-4.516844094975292,3.0365006160289045,-0.4283329248428345,-0.425991415977478,0.8219242691993713
0.287097900390625,-4.442931009763479,-3.932883930824697,3.747115567758679,-0.2923852205276489,-0.2495721727609634,0.6901026368141174
0.297123779296875,-5.480707539325953,-3.2410718792423605,4.391886466702819,-0.1581785678863525,-0.1837925016880035,0.4911222755908966
0.307150634765625,-6.305144100546836,-2.4063971248626705,4.801473229765891,0.07209512591362,-0.1899665147066116,0.2329264134168625
0.317176513671875,-6.899240458786487,-1.936782594077289,4.916811673560738,0.363113522529602,-0.1409403532743454,-0.0023797024041414
0.32720263671875,-6.804100168889761,-1.698186896187067,5.016106745049357,0.6699179410934448,-0.0324125438928604,-0.1252723485231399
0.337228759765625,-6.11891718005836,-1.4239726262964307,5.473910718792677,0.9216771721839904,0.1016365587711334,-0.1476397812366485
0.3472548828125,-5.159392933955789,-1.0697541147120295,6.349890420246124,1.037513017654419,0.1620144098997116,-0.0887314677238464
0.35728076171875,-4.211078940914571,-0.7034072123080491,7.467548880296945,1.0003089904785156,0.0438681356608867,0.0273416507989168
0.367306640625,-3.4478526351988315,-0.2274056838992983,8.770168770945071,0.8154135346412659,-0.1605225503444671,0.1555898934602737
0.377332763671875,-3.185886290854216,0.327732436523214,9.83727427084446,0.5335859656333923,-0.3876779675483703,0.2285273373126983
0.387358642578125,-3.3900171168237923,0.8257724129345267,10.52022146344781,0.2637930810451507,-0.5545681715011597,0.2095163613557815
0.397384765625,-3.9533252458289274,1.203386632349342,10.664024369704723,0.0393426157534122,-0.5787236094474792,0.0953662022948265
0.40741064453125,-4.430525117176771,1.463932734632492,10.432980402368306,-0.1342558115720749,-0.5284447073936462,-0.0718797817826271
0.417436767578125,-4.504550722852349,1.852145285755396,9.974641591095924,-0.2030693441629409,-0.4287109076976776,-0.2672250866889953
0.427462646484375,-4.170290711191297,2.222252271345257,9.210188666194677,-0.1311155259609222,-0.310026615858078,-0.4583494961261749
0.437488525390625,-3.535746022707224,2.175029040138423,8.249635661566257,0.0370077341794967,-0.2216631323099136,-0.6109097003936768
0.447514892578125,-2.716442148199677,1.949894150715321,7.521661578756571,0.241019457578659,-0.1650462001562118,-0.691440761089325
0.457540771484375,-1.6290769734732806,1.6962468680351972,7.232669280320406,0.4417104125022888,-0.1382008790969848,-0.699863851070404
0.46756689453125,-0.6654546444021165,1.2391679936960338,7.306923434054851,0.5971143245697021,-0.1281453073024749,-0.6742202639579773
0.47759326171875,0.1146868480183184,0.7372721455741673,7.528699222308397,0.6946002244949341,-0.2278103828430175,-0.5965366363525391
0.487619384765625,0.900001505292952,0.3622161592748016,7.963547852399945,0.7297065258026123,-0.3489115238189697,-0.4779312014579773
0.497645263671875,1.5780306768469512,0.1768866990827023,8.446177055320144,0.6651756167411804,-0.3945801556110382,-0.3250010907649994
0.50767138671875,1.934898533896357,0.0528602141804993,8.720328927499056,0.5407447814941406,-0.4232016801834106,-0.2162727266550064
0.517697265625,1.6200331046655774,0.0101595749646425,8.675347045478224,0.3778384625911712,-0.4149346649646759,-0.2277689129114151
0.5277236328125,0.9780383924365044,-0.009357099475339,8.153876947510241,0.2078100442886352,-0.35152268409729,-0.3381710648536682
0.53774951171875,0.5101245280891656,-0.2228629989683627,6.9253142267197365,0.0436239577829837,-0.2606505751609802,-0.4648808538913727
0.547775390625,0.48444925795421,-0.6179591721251606,4.999608614712954,-0.121391624212265,-0.1252317577600479,-0.5624247789382935
0.557801513671875,0.9975684378147124,-0.5323775686904788,2.3698376187503336,-0.2187360525131225,-0.0962326377630233,-0.6000430583953857
0.5678271484375,1.5708591777823864,0.0019833558369427,-0.7568114702373743,-0.1629979610443115,-0.0571560747921466,-0.6092461347579956
0.577853271484375,1.5393718603678046,-0.0370728624619543,-4.575842519649863,0.0248773004859685,0.3761294484138489,-0.5725383162498474
0.587879150390625,1.023312973793596,-1.0807734483111648,-9.260909384128452,0.3194862902164459,1.0753690004348757,-0.4916093945503235
0.5979052734375,0.5792337201505899,-2.6748843954086303,-13.791506402385236,0.6149705648422241,1.6615110635757446,-0.4066741168498993
0.60793115234375,1.287295772527158,-3.283457315029204,-17.321443446552752,0.7609724998474121,1.6743820905685425,-0.2279933243989944
0.61795703125,3.885198342803121,-1.555257557894289,-18.76522069738507,0.6688193082809448,0.9154282808303832,0.0222765486687421
0.627983154296875,6.486533517876267,0.523881104632467,-18.016545187330244,0.3212080597877502,-0.1485564857721328,0.3207457959651947
0.63800927734375,6.664121789357066,-0.5106127499975264,-16.674286529254914,-0.2163074016571045,-0.8591887950897217,0.7563099265098572
0.648035400390625,5.373875642591715,-2.370126372563839,-15.361356841516494,-0.8980217576026917,-0.7075917720794678,1.1810026168823242
0.658061279296875,4.54313501279056,-1.540740226111561,-14.724612597161531,-1.6599664688110352,-0.3083980679512024,1.4914603233337402
0.66808740234375,3.557506603616476,0.8753524364005774,-14.77797243142724,-2.239193916320801,-0.2250549793243408,1.3897850513458252
0.67811328125,1.7722500573940574,3.419212523908913,-15.802885972285267,-2.356461524963379,-0.3433522284030914,0.7492448091506958
0.68813916015625,-0.3352988531894981,5.020000829878449,-17.430309479463098,-1.927226424217224,-0.3454097807407379,-0.015040598809719
0.698165283203125,-0.9880227569647132,5.070370250156522,-18.73481386868357,-1.0048542022705078,0.0791515260934829,-0.4884880185127258
0.708191162109375,0.6967138521492481,4.405784643673896,-18.766320767581465,0.1685899049043655,0.8223755955696106,-0.5622857809066772
0.71821728515625,3.09409998756051,3.1988428030610083,-16.450820303696393,1.340125322341919,1.6103525161743164,-0.3050225079059601
0.7282431640625,4.888065471547842,1.9752134470194576,-12.303847924250364,2.184483766555786,1.893033742904663,0.0880147963762283
0.738269287109375,5.451130731707811,0.9960504344671964,-6.398884460517763,2.472585916519165,1.5722230672836304,0.394562691450119
0.74829541015625,4.686478484842181,-0.0398774715539067,0.1376367848426103,2.2303290367126465,0.9310510158538818,0.5397965908050537
0.7583212890625,3.2882512713074683,-0.9594868367016316,5.604098356673121,1.6265729665756226,0.3178638815879822,0.6282379627227783
0.768347412109375,2.002327956177294,-1.4916405335083602,9.3784070517838,0.7983253598213196,-0.0728543326258659,0.7220349907875061
0.778373291015625,1.049381773290783,-1.6858052612587808,11.656031666260956,-0.1059741899371147,-0.2180056422948837,0.861752986907959
0.7883994140625,0.2747558294214308,-1.6865648474544286,12.483600095766782,-0.9685520529747008,-0.2797470688819885,0.9783653616905212
0.79842529296875,-0.7219552609115839,-1.4086138752534985,12.13244389436245,-1.659212350845337,-0.4222267866134643,0.989909052848816
0.808451416015625,-1.9110875963285563,-0.7071883382819593,10.59810199098587,-2.005084753036499,-0.6612226366996765,0.8806012272834778
0.818477294921875,-2.833929294461012,0.0451688559602946,8.29632960820198,-1.90789258480072,-0.8776816129684448,0.7320140600204468
0.82850341796875,-3.645736091211438,0.2941979042552411,5.876380343326926,-1.3977800607681274,-0.80503249168396,0.6466296315193176
0.838529296875,-3.96815485843122,0.3713891343548893,3.609974457478523,-0.5966590642929077,-0.460365355014801,0.6530418395996094
0.84855517578125,-3.9144022254556416,0.4223199879080057,2.2482617418706417,0.3072108626365661,-0.0633521974086761,0.7225831151008606
0.85858154296875,-3.8366996848329897,0.5322174096927047,2.240273081204295,1.0686243772506714,0.2405228316783905,0.7823567390441895
0.868607421875,-4.086853134047985,0.7289779260899871,3.6628970693707466,1.4917553663253784,0.367836058139801,0.7708550691604614
0.878633544921875,-4.5926451858907935,0.9365836616285144,6.011659166866541,1.5600576400756836,0.3739227652549743,0.6708342432975769
0.888659423828125,-5.087317877826094,1.170096357166022,8.353283083045483,1.3305178880691528,0.3355186581611633,0.5218538045883179
0.898685546875,-5.366996988993883,1.2810402192637325,10.217812049555778,0.8569782972335815,0.2080279886722564,0.3376205861568451
0.908711181640625,-5.537867934918404,1.4631098739422856,11.42379878140092,0.2607969045639038,-0.0253807697445154,0.1268167346715927
0.918737060546875,-5.673277106839418,1.7311660595946012,11.873955455261468,-0.3011179864406585,-0.2253781110048294,-0.0944112837314605
0.92876318359375,-5.646449890190363,1.7841434704139827,11.356425619351864,-0.6633827090263367,-0.2989559173583984,-0.2964400351047516
0.9387890625,-5.395384294566512,1.7778018463023006,9.946169529849293,-0.7281430959701538,-0.209583431482315,-0.4634942412376404
0.948815185546875,-4.864672905522585,1.7456297614939509,8.163846552860736,-0.5271993279457092,-0.0324677750468254,-0.5817974805831909
0.958841064453125,-4.083102257081866,1.7035235810399054,6.596145985239744,-0.1099523678421974,0.1118118166923523,-0.6362683773040771
0.968867431640625,-3.196678610764444,1.5653636491060257,5.544878690463304,0.3906539976596832,0.1494337618350982,-0.6413840651512146
0.978893310546875,-2.4166478852421043,1.3926358232684433,5.326747396191954,0.8510045409202576,0.1435636430978775,-0.6426839828491211
0.988919189453125,-1.9746742255762215,1.2473719045482574,5.898647704714536,1.1763767004013062,0.1953173875808715,-0.6500595808029175
0.9989453125,-1.7969124972246586,0.938299087244272,6.900784765619039,1.3403220176696775,0.2835286855697632,-0.6528711915016174
1.00897119140625,-1.4443448215872048,0.376818758188188,8.007511497288942,1.325640320777893,0.2654780447483063,-0.6081276535987854
1.018997314453125,-0.855162100482732,-0.0930082463040947,9.128366123032569,1.1167763471603394,0.1718096882104873,-0.5346870422363281
1.029023193359375,-0.399882384520024,-0.330051015663892,10.01416813032031,0.7254014015197754,0.116410881280899,-0.5071611404418945
1.03904931640625,-0.2686366158887743,-0.5701878055162728,10.206798488110303,0.2480847835540771,0.0251032952219247,-0.5461886525154114
1.0490751953125,-0.244622556964308,-0.9615426001876592,9.33967020163238,-0.1768856644630432,-0.0717707872390747,-0.6367393136024475
1.05910107421875,-0.0705700583942234,-1.4775482952699064,7.360676067030429,-0.5406997203826904,-0.169534221291542,-0.7316702008247375
1.069127197265625,0.1887798198416829,-1.888906890311092,4.701187393674254,-0.8591647744178772,-0.2573543787002563,-0.800519585609436
1.0791533203125,0.5400856588497758,-1.999252055863291,1.5283914705395698,-1.109142541885376,-0.2242585569620132,-0.8375369906425476
1.089179443359375,0.5127839565567672,-2.5376719734579325,-2.870506920751929,-1.2093578577041626,-0.110693372786045,-0.8561562299728394
1.099205322265625,-0.1256483870156109,-4.078980793237686,-8.455438804662228,-1.1010273694992063,0.1836335062980651,-0.8017113208770752
1.1092314453125,-0.7200261925451457,-6.004301205319166,-14.611619839709997,-0.9110283851623536,0.7287799119949341,-0.6239615678787231
1.11925732421875,0.6902424641780555,-6.203952255526184,-19.960234784317016,-0.6813724637031555,0.7708606719970703,-0.1576735973358154
1.129283447265625,5.296337644881009,-2.811814785547554,-22.482710942208765,-0.4063941538333893,-0.1116949319839477,0.5185685157775879
1.139309326171875,8.963397679150104,0.4628022934872657,-22.675661617994308,-0.2699639499187469,-1.4721729755401611,1.2030251026153564
1.149335205078125,8.497710258680582,0.8186557858623563,-21.281120984017846,-0.3718125522136688,-2.5013415813446045,1.719249606132507
1.159361328125,5.042541747510433,0.6928154564712197,-18.384114763396976,-0.6646623611450195,-2.8078508377075195,1.8317604064941408
1.16938720703125,1.1385811288312078,1.358438516242802,-15.182799432742597,-1.0175844430923462,-2.630054712295532,1.6722333431243896
1.17941357421875,-1.2569848054155706,2.460208794549108,-12.1940419801414,-1.3819572925567627,-2.071805000305176,1.3714476823806765
1.189439453125,-2.653908827397227,3.552286238619685,-9.733362645471097,-1.6252788305282593,-1.1584696769714355,0.9269930124282836
1.199465576171875,-3.3657454298764464,4.0863861010581255,-8.14783649830222,-1.6140137910842896,-0.0637843981385231,0.3986175954341888
1.209491455078125,-2.9298484597757457,4.063553507003188,-7.387793206536769,-1.3250149488449097,1.105526566505432,-0.0432239957153797
1.219517333984375,-0.917130407813564,3.5331560062140226,-7.2321613307982675,-0.7665175795555115,2.1020584106445312,-0.1903848946094513
1.22954345703125,1.7685083866477012,2.610260239806771,-7.231551089945435,-0.1587972790002823,2.464078426361084,-0.1339975148439407
1.2395693359375,4.089021125736832,1.89992366662696,-6.248093595069647,0.12477757781744,2.137232780456543,-0.0688747465610504
1.24959619140625,5.406630495724082,0.9070710052877664,-4.075950047239661,-0.1637636721134185,1.4480504989624023,0.0341626927256584
1.2596220703125,5.692588541030884,-0.681951971020922,-1.877516458377242,-0.8070677518844604,0.3506895005702972,0.1537392288446426
1.2696484375,5.21961154807508,-1.7452761257506906,-0.2450882747799158,-1.3578089475631714,-0.8454604744911194,0.2028902620077133
1.27967431640625,3.918551161828637,-1.9309232005245984,0.5000689980208873,-1.5278401374816897,-1.563353419303894,0.1813274770975113
1.289700439453125,1.733351440809667,-2.4145592423997817,0.173216047745943,-1.311443567276001,-1.6735798120498655,0.1555555313825607
1.299726318359375,-0.4075469277985393,-3.178662184819579,-0.1545633697241544,-0.7700453996658325,-1.2229294776916504,0.2091909945011139
1.30975244140625,-1.5308651671767235,-3.42819808665812,0.1456271990746259,-0.0503655411303043,-0.4498750567436218,0.2941663265228271
1.3197783203125,-2.391177490029484,-3.278747529903054,1.0150269376158714,0.6284412741661072,0.2745321393013,0.3177347481250763
1.32980419921875,-3.3704882404893635,-3.3961768084973096,2.424036241927743,1.0851500034332275,0.6469086408615112,0.2648313045501709
1.339830322265625,-4.034920117715001,-3.5471453685998915,4.3047301612973214,1.2754651308059692,0.6771431565284729,0.148983433842659
1.349856201171875,-4.267680825841427,-3.2416610773071644,6.254023569640517,1.2496601343154907,0.522621214389801,-0.0434278212487697
1.35988232421875,-4.2490974136635655,-3.087441990976036,7.808130496194958,1.0765767097473145,0.3612558245658874,-0.2068278342485427
1.369908203125,-3.7154677990853786,-3.235752437785268,8.773668303498626,0.8465414643287659,0.2364856600761413,-0.2431187331676483
1.3799345703125,-2.6211001982510087,-3.0821397929146883,9.39049145733118,0.6406212449073792,0.1222326606512069,-0.1015282720327377
1.38996044921875,-1.3575987044177948,-2.6945126404643056,9.706961545279622,0.5120928287506104,-0.0144647378474473,0.1744558960199356
1.399986328125,-0.7265574940100312,-2.286112164576352,9.73949077296257,0.4126700162887573,-0.1879592835903167,0.3954037427902221
1.410012451171875,-0.9196494779624044,-1.6704240061230955,9.778054604634642,0.3143519759178161,-0.400063544511795,0.5034119486808777
1.420038330078125,-1.6716460952639578,-0.8208956737436354,9.930200391823051,0.235631838440895,-0.5560070276260376,0.4874964654445648
1.430064453125,-2.7073300364613533,-0.0492347536923363,9.98690252225399,0.2030661702156067,-0.5556980967521667,0.3602964282035827
1.44009033203125,-3.673042615810037,0.5417010216245427,9.730711254179475,0.2573479413986206,-0.4474208056926727,0.1672772169113159
1.450116455078125,-4.209530834689736,1.1061307385381312,9.273095496484636,0.4099659919738769,-0.2885246276855469,-0.0425777435302734
1.460142333984375,-4.187711801591515,1.555841787523031,8.969140606716275,0.6168276071548462,-0.0582699887454509,-0.1844881922006607
1.470168212890625,-3.579848783805966,1.8143810800284144,8.868858862277865,0.8276018500328064,0.1990294605493545,-0.2327446788549423
1.48019384765625,-2.8030285447627303,1.8948216673128304,9.095085200199485,0.9513818025588988,0.4109255373477936,-0.2346115112304687
1.4902197265625,-2.137761678017676,1.9511013345479964,9.493268525716662,0.967082977294922,0.4598888158798218,-0.2226680368185043
1.500245849609375,-1.6482690190687774,1.9152048223890363,9.992400535148382,0.8353440165519714,0.2972745895385742,-0.2170225530862808
1.510271728515625,-1.3005072824083268,1.796571282571554,10.55977489067912,0.5401528477668762,-0.0308526922017335,-0.2132525891065597
1.520298095703125,-1.0731615850679577,1.80722828566432,10.896468851488828,0.1961413472890854,-0.3278081119060516,-0.2302503734827041
1.530323974609375,-1.0336769852891563,1.7682646410197018,10.503230581158398,-0.0839398354291915,-0.4388507306575775,-0.2527346312999725
1.540349609375,-1.0508715734571217,1.499252177555859,9.30841406262517,-0.2680439352989197,-0.3630423247814178,-0.3207649886608124
1.550375732421875,-1.1800104329369965,1.368948950471729,7.563045144024491,-0.3658908605575561,-0.187513381242752,-0.4670090079307556
1.560401611328125,-1.2329952964104711,1.1896096706051378,5.436854369074106,-0.3916254639625549,0.0262525640428066,-0.6358101963996887
1.570427734375,-1.0560128818683323,0.3587857464347034,2.8986978269696237,-0.3876533508300781,0.2077009081840515,-0.7526814341545105
1.58045361328125,-0.3002320698529481,-0.741308196157217,-0.0611696312338113,-0.3964676856994629,0.2153985947370529,-0.7669153809547424
1.590479736328125,1.087786030486971,-1.4177078668132423,-3.0888807916074987,-0.5320044159889221,-0.0726651549339294,-0.5064563751220703
1.600505615234375,2.80295431048274,-1.6195523354113102,-6.046881286895275,-0.6821222901344299,-0.5055527687072754,-0.0488573797047138
1.610531494140625,3.8325434419363735,-1.5050442049607633,-9.657543142116069,-0.622053861618042,-0.9830005764961244,0.3967150449752807
1.6205576171875,3.317818142053485,-1.3366812963344157,-13.29331138154268,-0.3898095190525055,-1.1250635385513306,0.5890112519264221
1.630583740234375,2.0124296634748577,-0.9518834490258246,-16.03128906972408,-0.2102730423212051,-1.1732102632522583,0.6111498475074768
1.64060986328125,2.0728424849919973,1.0004154247436672,-16.39506743681431,-0.1249699592590332,-1.3503553867340088,0.5323268175125122
1.6506357421875,2.4890216320574283,2.786052860042453,-14.850311691451072,-0.1210338026285171,-1.190335392951965,0.3271975815296173
1.660661865234375,1.5405147467926144,1.9070663779884576,-13.644094657981396,-0.1691659688949585,-0.7707595229148865,0.1895836591720581
1.670687744140625,1.1781203083414584,0.3322350451720878,-12.274335414040088,-0.2579368352890014,-0.0789826288819313,0.2119648605585098
1.680713623046875,2.112567031006515,0.073134209793806,-10.901936469244957,-0.4488615691661834,0.7367766499519348,0.4120090007781982
1.69073974609375,3.264848183888197,0.7004908134046942,-9.714464468255638,-0.6434193253517151,1.2448009252548218,0.5521042943000793
1.700765625,3.2281840483576056,1.369486418349296,-8.300175177714229,-0.8270227313041687,1.4911291599273682,0.4671370089054107
1.710791748046875,2.770563614487648,1.8892047042138875,-6.928211117205024,-1.1842066049575806,1.6342719793319702,0.2975367903709411
1.720817626953125,3.39868411514312,2.168633493882417,-5.383644172412157,-1.8117865324020384,1.741522192955017,0.3332755267620086
1.73084375,5.215671870538592,2.216652843903005,-4.630017177429795,-2.5071358680725098,1.5094066858291626,0.600335419178009
1.740869873046875,6.494384815898537,2.179862890035659,-5.491736298340559,-3.0276553630828857,0.7250757217407227,0.7964954972267151
1.750895751953125,5.993800854092836,2.24178012476638,-7.075616431868076,-3.327881336212158,-0.2262717634439468,0.7933799028396606
1.760921875,4.317522422853112,2.4250474647969007,-8.961656972962617,-3.345020532608032,-1.0975849628448486,0.7024572491645813
1.77094775390625,2.3265317071177063,2.6636098449394106,-10.705525423872473,-2.923595905303955,-1.6318271160125732,0.53257155418396
1.780973876953125,0.2687574657894671,2.747981195801496,-12.10280863455534,-2.054540634155273,-1.7449108362197876,0.3383145630359649
1.790999755859375,-1.412326173774898,2.40728895913586,-12.548342909312248,-0.9327702522277832,-1.4378150701522827,0.1383404582738876
1.80102587890625,-2.62642314683944,1.8836980696216223,-11.38439031559825,0.209652304649353,-0.8384007215499878,-0.074646271765232
1.8110517578125,-3.439588080200553,1.10311862417534,-8.6735461335361,1.1947673559188845,-0.2233748137950897,-0.2957096695899963
1.821077880859375,-3.6370883821144697,0.6554783170498907,-4.890007253265381,1.9249576330184937,0.2817607820034027,-0.5162303447723389
1.831103759765625,-3.5188065783441065,0.4425497059881687,-0.7655576712727546,2.368025302886963,0.6131032705307007,-0.7197672128677368
1.841129638671875,-3.2881314443200824,-0.0120851361997425,3.0045845518082377,2.539531946182251,0.748784065246582,-0.8744561076164246
1.851156005859375,-2.855003938932717,-0.6262822523776441,6.272786137777566,2.462935447692871,0.7050187587738037,-0.9754706025123596
1.861181884765625,-2.2698750232636926,-1.214926774952188,8.958225244948267,2.201943874359131,0.5370626449584961,-1.028233528137207
1.8712080078125,-1.6837259707666932,-1.7795256013549865,10.951487558877467,1.8186248540878296,0.3438460528850555,-1.0320134162902832
1.881233642578125,-1.2301835999906063,-2.1514333527565,12.438289127922058,1.4093071222305298,0.2697347402572632,-0.9665210247039796
1.891259765625,-0.8156406758248805,-2.5412340498536823,13.178258768951892,1.0338729619979858,0.3362762331962585,-0.8054405450820923
1.90128564453125,-0.5148614934831858,-3.0224186069235204,13.384244282877445,0.692684531211853,0.4344759285449981,-0.5906879305839539
1.9113115234375,-0.3714695061147213,-3.202489635130763,13.317238200575112,0.417646050453186,0.4642631411552429,-0.3865662217140198
1.921337646484375,-0.5712124723888933,-3.090826080456376,13.037239355933666,0.1757764220237732,0.3664437234401703,-0.220597818493843
1.931363525390625,-0.8706189050726592,-2.897862545189261,12.675033352726697,-0.0484156645834445,0.1844217032194137,-0.081051118671894
1.9413896484375,-1.126414159566909,-2.48269652068913,12.10884791471958,-0.2411912232637405,-0.0446469485759735,0.0388301871716976
1.951415771484375,-1.4290906999625266,-1.980161570946127,11.437678838193415,-0.3696295917034149,-0.2370989620685577,0.1041591241955757
1.96144189453125,-1.9029834925889968,-1.628473746883124,10.644693061769008,-0.4178502857685089,-0.3015086054801941,0.1165588572621345
1.9714677734375,-2.4550258389532567,-1.3739268850147723,9.676108141854405,-0.3827016353607178,-0.2122367620468139,0.0667034164071083
1.98149365234375,-2.944533695471286,-1.0566846436500548,8.567034554797411,-0.1984982341527938,-0.0777499005198478,-0.0802774280309677
1.991519775390625,-3.3507208792239425,-0.792728659858182,7.48068717881143,0.1578257977962494,0.056511502712965,-0.2672622501850128
2.001545654296875,-3.163420192024112,-0.4723546598063781,6.6144596405655145,0.6369236707687378,0.2489121705293655,-0.3753510415554046
2.01157177734375,-2.4359182567708197,0.0527575575236231,6.151380356767773,1.1290054321289062,0.4544930160045624,-0.3857983648777008
2.0215986328125,-1.5663381932266056,0.6069626714123413,6.277167129340768,1.5169427394866943,0.5634087324142456,-0.3543569445610046
2.031624755859375,-0.8782574371270835,0.9766367089450358,6.93828885910511,1.7084258794784546,0.5683861374855042,-0.3187680542469024
2.04165087890625,-0.5277355881035327,1.1892008706085384,7.913379507651925,1.6518748998641968,0.5266979336738586,-0.3267407417297363
2.051677001953125,-0.6303972134158015,1.4149696740210056,8.722377676722408,1.3879066705703735,0.4668635725975036,-0.4419099390506744
2.061702880859375,-0.9437627594776452,1.2714181121766566,8.88438668627739,1.0187864303588867,0.360696941614151,-0.5996240973472595
2.07172900390625,-0.7953339469857513,0.7386391230784356,8.188837786254286,0.6568455696105957,0.2143823355436325,-0.7039310932159424
2.0817548828125,0.0769629743017256,0.35196612954773,6.645715779572725,0.3015842735767364,0.1267926841974258,-0.7135769128799438
2.09178076171875,1.335552292304486,0.3495511773604899,4.436816326275467,-0.05833500623703,0.0770357847213745,-0.6693117022514343
2.101806884765625,2.362360122476518,1.0904730045486242,1.4958417845904826,-0.2800516486167907,0.0065061654895544,-0.6871198415756226
2.111832763671875,2.2260918495081365,1.8570824498966336,-1.9947370626568792,-0.2859119474887848,-0.0901870876550674,-0.8039996027946472
2.12185888671875,1.3632919476233425,1.5789197346411643,-5.934212354570627,-0.106298342347145,0.23976831138134,-1.0097874402999878
2.131884765625,0.1132232052065432,0.6335370458114892,-10.08897641080618,0.1502809822559356,1.1881494522094729,-1.2580997943878174
2.14191064453125,-0.5491494014017284,-0.0709095194816589,-14.315555995452405,0.5278065204620361,1.9688620567321775,-1.4391385316848757
2.151936767578125,1.0228088236637414,0.0560311723668128,-17.227295674824713,1.0281615257263184,2.023607015609741,-1.3296383619308472
2.161962646484375,4.226354543718696,1.0343057116467504,-18.443372423529624,1.4065195322036743,1.42870032787323,-0.8981139659881592
2.17198876953125,6.727032126778364,1.0970835817947984,-17.972846330857276,1.3488378524780271,0.5818318128585815,-0.3175070583820343
2.1820146484375,6.428710274460912,-0.1882001933228224,-16.102455778837204,0.8462547063827515,-0.145486444234848,0.1164214760065078
2.192040771484375,3.811766319106519,-1.959801212223619,-14.264640631729364,0.0788469985127449,-0.5348717570304871,0.242549329996109
2.202066650390625,1.0685850709326563,-2.453931906236708,-13.272878834366798,-0.7114676833152771,-0.6059120893478394,0.0983757302165031
2.2120927734375,-0.7469587692648172,-1.701377801182866,-13.103313710343835,-1.2894515991210938,-0.3590559065341949,-0.1633389741182327
2.22211865234375,-1.523012407849729,-1.1674942118436098,-14.548609549045562,-1.4740562438964844,0.0011915208306163,-0.4550097584724426
2.23214453125,-1.3564964422643184,-0.5412421354085206,-16.79991898804903,-1.2136797904968262,0.3543469309806824,-0.7131606340408325
2.242170654296875,-0.5988695639908314,0.0793674781601875,-18.8735665058136,-0.503038227558136,0.6239395141601562,-0.8819040656089783
2.252196533203125,0.491179004600644,0.5543267309743911,-19.99985133991241,0.5293636322021484,0.8660197854042053,-0.9273471832275392
2.262222900390625,1.834806028419733,0.5606602448448539,-19.309269122385977,1.4682077169418335,0.8201801776885986,-0.8089248538017273
2.272248779296875,3.388069782148301,0.1606645361434668,-15.416683007419108,2.009523868560791,0.6394820809364319,-0.5805854201316833
2.28227490234375,4.15956853390783,-0.1285346099764108,-9.436900157284736,2.101879835128784,0.3974930047988891,-0.305219292640686
2.29230078125,4.305777916784584,-0.5689295490834861,-3.361144073560834,1.887196898460388,0.0344729870557785,-0.0144958477467298
2.302326904296875,4.072850619919598,-1.0693090012930333,2.0515040750175717,1.4455084800720217,-0.2826479077339172,0.290304034948349
2.312352783203125,3.413041726319492,-1.548924847741425,6.291887728610634,0.8213645815849304,-0.5889719128608704,0.5952567458152771
2.322378662109375,2.4744629453510045,-1.7306826599918306,9.422767002514004,0.1243295669555664,-0.8991707563400269,0.8029817938804626
2.33240478515625,1.0369123139485716,-1.4099318259842692,11.461577600175142,-0.5279653668403625,-1.1786590814590454,0.8606908917427063
2.3424306640625,-0.70205798965618,-0.5629471867382526,12.359299177837372,-1.0309168100357056,-1.3929364681243896,0.8047977685928345
2.352456787109375,-2.5148531156674028,0.2857563852548599,12.207847218132018,-1.293156385421753,-1.408270239830017,0.6252208352088928
2.362482666015625,-4.160774110305309,0.6582219166696072,11.189743357288837,-1.240820288658142,-1.21454656124115,0.3564071953296661
2.372509033203125,-5.379187777525186,0.9025528702761976,9.631816580185294,-0.8628458976745605,-0.8541907668113708,0.1062128245830535
2.382534912109375,-5.5248751823544495,0.976093980370462,8.145445219251513,-0.2787188291549682,-0.3989018201828003,0.0208451375365257
2.392560791015625,-4.6421682184726,0.86671473724097,7.250721654361486,0.3281633555889129,0.0928018763661384,0.1143508478999137
2.4025869140625,-3.2826109273329376,0.5915843023534864,7.381597274506092,0.7856585383415222,0.4020681977272033,0.3290099203586578
2.41261279296875,-2.307963200248033,0.2843171462319791,8.663526259303092,0.9826366305351256,0.4397527277469635,0.5272071957588196
2.422638916015625,-2.047965087236464,0.3669580200396478,10.37342346702814,0.8816297054290771,0.2169196307659149,0.6268360018730164
2.432664794921875,-2.3538572286777195,0.6127808927044273,12.078204939174652,0.5261951684951782,-0.0563979297876358,0.5935683250427246
2.44269091796875,-2.985712678077817,0.7525897608891129,13.180225100588798,0.0402085855603218,-0.262578010559082,0.4639476239681244
2.452716796875,-3.5746821948230263,0.8680411635391414,13.54874744733572,-0.4268709719181061,-0.3688972592353821,0.2968518435955047
2.46274267578125,-3.8388434188634153,1.0756377659231424,13.185900808137657,-0.783013105392456,-0.3495720624923706,0.1021563857793808
2.472768798828125,-3.954329454435408,1.413677149992436,12.113238843154909,-0.9649860858917236,-0.2946664690971374,-0.1154161468148231
2.48279443359375,-3.924668183404207,1.6627664771072566,10.634869586890936,-0.9268574118614196,-0.1922043412923813,-0.3187335729598999
2.492820556640625,-3.487699492418766,1.8212775615438817,9.089081575870514,-0.7218550443649292,-0.1102367639541626,-0.4330830574035644
2.502846435546875,-2.6798966706126928,1.796078822879493,7.939736184179782,-0.4206178486347198,-0.0680813491344451,-0.4598488211631775
2.5128720703125,-1.7699498176276682,1.689409277100116,7.334159231504797,-0.1045197919011116,-0.0020671812817454,-0.4288331270217895
2.5228984375,-1.0670403257086871,1.5537413081124425,7.185278583592176,0.1717348992824554,0.0720650106668472,-0.3739914000034332
2.53292431640625,-0.6527817714422941,1.3388736918121575,7.373769357359409,0.363345593214035,0.1540741324424743,-0.3427985906600952
2.542950439453125,-0.4307835726097226,1.0067844483189283,7.684355647966266,0.4449985921382904,0.1932630389928817,-0.3236239850521087
2.552976318359375,-0.0780466778852045,0.6707403297200799,8.049380215725302,0.397692322731018,0.1374972462654113,-0.2747880220413208
2.56300244140625,0.6053041270829737,0.5668332343913615,8.317569380107521,0.2776170074939728,-0.01631985232234,-0.2086390703916549
2.5730283203125,1.192731967344135,0.6475489853553473,8.192167222937941,0.1280392408370971,-0.1984792798757553,-0.15700463950634
2.583054443359375,1.4041957665503024,0.7931088182821869,7.667016975152492,-0.0722386837005615,-0.3541779220104217,-0.1377336680889129
2.593080322265625,1.3079944232933225,1.1520104461815208,6.608296441760658,-0.2520912587642669,-0.5190563201904297,-0.2225279211997985
2.603106201171875,0.8371626256726682,1.2222402397707104,4.910895142993331,-0.335537701845169,-0.4967218935489654,-0.4115511476993561
2.61313232421875,0.482476204315573,0.7358809104114771,2.579982005921006,-0.3004944920539856,0.0322665721178054,-0.569475531578064
2.623158203125,1.083828232771903,-0.1428725666042417,-0.5318336710721254,-0.1652536243200302,0.8586369752883911,-0.5166245698928833
2.633185546875,2.750928939691186,-1.5289157866746186,-4.587427743503451,0.0609848350286483,1.354603886604309,-0.179103285074234
2.64321142578125,4.938525492718815,-2.6635183672636744,-8.553152159917355,0.3110147714614868,1.3689801692962646,0.3949669599533081
2.653237548828125,6.526930410194397,-2.947350506457686,-12.686212918388843,0.523262083530426,1.0783970355987549,1.0044164657592771
2.663263427734375,7.0997671227842565,-2.074676714681834,-16.585750167667864,0.4528098702430725,0.2938114404678345,1.4827508926391602
2.67328955078125,7.418963420826196,0.6910191476389765,-17.658354849505425,-0.0407620519399642,-1.0179716348648071,1.6055742502212524
2.6833154296875,5.626953747081756,2.553576814076304,-16.25613593598604,-0.7678171992301941,-1.889349579811096,1.47091805934906
2.693341552734375,1.230416093572229,0.8341352406755089,-15.509208146381376,-1.5393227338790894,-1.8606806993484497,1.1756514310836792
2.703367431640625,-3.194037448605895,-1.3630083083763718,-15.40246860410571,-2.199364423751831,-1.0336147546768188,0.6998223066329956
2.713393310546875,-5.516536393076181,-0.9634322133265436,-16.609434994637965,-2.356223821640014,-0.0171328391879796,0.3342218995094299
2.723419677734375,-4.170319060502946,1.3898296798065304,-19.171558103263376,-1.9845237731933596,0.9511240124702454,0.0685457736253738
2.733445556640625,-1.3235722239144143,4.117252363964915,-21.64630687981844,-1.276955485343933,1.5103877782821655,-0.1618610620498657
2.743471435546875,1.3405080150157211,6.393993765866756,-22.81109300174713,-0.3947294652462005,1.5553525686264038,-0.5328667759895325
2.753497314453125,2.606517838408053,6.487088229149579,-21.674679572343823,0.3664872050285339,1.5412181615829468,-0.9912095665931702
2.7635234375,3.053445321089029,4.397116184049844,-18.353851727080343,0.8072217106819153,1.4177751541137695,-1.19024920463562
2.77354931640625,4.9465913102746,2.191047131872922,-13.124651097404955,0.8791888356208801,1.0752776861190796,-1.1165062189102173
2.7835751953125,6.893521496617794,0.2626824567247182,-7.5663985461056225,0.6841868162155151,0.6186262965202332,-0.8815159797668457
2.793601318359375,7.3930509809345,-1.6042726409539578,-3.0075369718730447,0.4238587617874145,0.1179381683468818,-0.6002643704414368
2.803627197265625,6.516188066905737,-2.873369908967614,0.2923912932246923,0.2550984919071197,-0.2044384777545929,-0.3501928746700287
2.8136533203125,4.824973347818851,-3.851121301156282,2.5233389122009275,0.202882707118988,-0.2199181020259857,-0.1069099158048629
2.82367919921875,3.23312764223963,-4.713222699382901,4.163406212374568,0.1846069991588592,-0.1327477395534515,0.1861947476863861
2.83370556640625,1.982989780109376,-5.002851542156934,5.821355790719389,0.1327456533908844,-0.1075824499130249,0.4804732501506805
2.8437314453125,0.9138786394760012,-4.55445544822812,7.38169372061789,0.0354331396520137,-0.2102328687906265,0.71918123960495
2.85375732421875,-0.2824237337008118,-3.7408150063097474,8.511705466285347,-0.0764206871390342,-0.2811938524246216,0.9155089259147644
2.863783447265625,-1.631723250198364,-2.7933155445218083,8.882564147025347,-0.1542799621820449,-0.2322783768177032,1.0028029680252075
2.873809326171875,-3.0357074198246,-1.9888642251007256,8.770946769580245,-0.1271314322948455,-0.1578494012355804,0.9678382873535156
2.88383544921875,-4.378398039576411,-1.4337988776534796,8.605372761020064,-0.0236612968146801,-0.0594097487628459,0.8508826494216919
2.893861328125,-5.234658310559392,-0.758519297068566,8.498635556831955,0.075356625020504,0.00488295359537,0.7312047481536865
2.903887451171875,-5.354793925502896,-0.0608957827284932,8.66231980612278,0.1489772051572799,0.0377954877912998,0.7076473236083984
2.913913330078125,-4.802626491454244,0.6316146994467824,8.765393227106332,0.269698828458786,0.133656233549118,0.7851810455322266
2.923939208984375,-4.028941920088231,1.1559993696872144,8.426647009941934,0.4789631962776184,0.2116484344005584,0.85847407579422
2.933965576171875,-3.8195276007577776,1.3090043309882282,7.923932465848326,0.6616605520248413,0.1542163044214248,0.870110273361206
2.943991455078125,-3.9805128202229736,1.4275200896449387,8.321939265754818,0.6630279421806335,0.0249560885131359,0.8542206287384033
2.954017578125,-4.003546782068908,1.92045733608976,9.283521613430976,0.4878430366516113,-0.1915165483951568,0.854617178440094
2.96404345703125,-4.081389023423195,2.4025493633933364,10.168597644531726,0.2618198692798614,-0.4303036630153656,0.7618448734283447
2.974069580078125,-4.577797745370865,2.5933985368549823,10.612506948435303,0.0567798838019371,-0.5832034349441528,0.5640036463737488
2.984095458984375,-5.180243998804688,2.7700232240006324,10.537093103271722,-0.0457462258636951,-0.482033908367157,0.3303990364074707
2.99412158203125,-5.435380204868316,2.85283536272198,9.96291842007637,-0.0349388495087623,-0.2528736889362335,0.0342054553329944
3.0041474609375,-5.765636241585016,2.874158721257746,9.399177452611925,0.0732528418302536,0.1231525763869285,-0.2923643887042999
3.01417333984375,-5.673524359598756,2.7263582697972653,8.55451994113922,0.2061280757188797,0.3999085426330566,-0.5799751281738281
3.024199462890625,-4.818791444313526,2.1773247498601678,7.937174809259176,0.3072246611118316,0.5062330961227417,-0.7356420159339905
3.034225341796875,-3.26616628074944,1.7756714101448654,7.775534633016586,0.4042438864707947,0.5734246373176575,-0.7587825059890747
3.044251708984375,-1.7098492769300937,1.284405311782658,7.574130601662397,0.445749819278717,0.5971806049346924,-0.7337981462478638
3.054277587890625,-0.7101369589544833,0.6530136805020272,7.44189655264616,0.4133159816265106,0.4554066658020019,-0.6924517750740051
3.0643037109375,0.0902436038963496,0.2501937812253832,7.250358081746101,0.358385682106018,0.1969263702630996,-0.6879315376281738
3.07432958984375,0.4101628093853592,-0.0772591807693243,6.912974385106563,0.2645121812820434,0.0494453012943267,-0.6891246438026428
3.084355224609375,0.6415167194537819,-0.7392392809286713,6.221065302890539,0.1950760632753372,0.0434563942253589,-0.6280773282051086
3.09438134765625,0.8419377311199903,-1.3205313949137925,5.279262591439485,0.1331604868173599,0.2144105583429336,-0.5874569416046143
3.1044072265625,1.0050789595752954,-1.7647659852489828,4.170533287775516,0.095548003911972,0.3640958964824676,-0.5635533928871155
3.114433349609375,1.2483525861486793,-2.060842396727204,2.895683447584509,0.018894774839282,0.3972741067409515,-0.528486967086792
3.124459228515625,1.3384572199657558,-2.610036952444911,1.7525380795776844,-0.1780695170164108,0.493895947933197,-0.5240066647529602
3.1344853515625,1.2743126645743843,-3.374248762066662,0.2990250321507454,-0.5363738536834717,0.7259518504142761,-0.5634142756462097
3.14451123046875,1.213967793726921,-4.063618388932943,-1.8895763140052555,-1.0011515617370603,0.8749382495880127,-0.5627849102020264
3.154537353515625,2.615915781350433,-4.067345300501585,-5.212978393670916,-1.368111491203308,0.6484297513961792,-0.326382964849472
3.164564453125,5.947960309416056,-2.6186221176996827,-9.173710408625006,-1.5591423511505127,-0.2541638016700744,0.2740585505962372
3.174590576171875,9.217516232603788,-0.8644105519518256,-12.714440649485589,-1.6279677152633667,-1.26863694190979,0.9757146835327148
3.184616455078125,9.225855021882056,-0.1520670593963936,-15.753952137768268,-1.719998478889465,-2.1332805156707764,1.488213300704956
3.194642333984375,6.76077832903564,0.2530953113531693,-17.288802575188875,-1.8806105852127075,-2.568120241165161,1.7974038124084473
3.20466845703125,4.480924640332162,2.342552136939764,-17.622451176953316,-1.979995846748352,-2.077455520629883,1.7394561767578125
3.2146943359375,0.7187899287484586,5.292633529666066,-18.78059245404005,-1.8746076822280884,-1.361600399017334,1.217196702957153
3.224720458984375,-2.28217044121325,6.995390217986703,-19.759757804679868,-1.623279094696045,-0.7484118342399597,0.5310366153717041
3.234746337890625,-2.4089948862709103,8.099013722944258,-19.98161659504175,-1.2448726892471311,-0.3530384004116058,0.0977334156632423
3.244772705078125,0.0216280405707657,8.108371333876251,-20.068156229853628,-0.6609093546867371,-0.0264348126947879,-0.1368471086025238
3.254798583984375,1.6826069036088882,6.614778789517283,-19.43867759258747,-0.0261553227901458,0.3554185628890991,-0.3562937378883362
3.264824462890625,1.8033080434806643,4.67621398819834,-17.59650074313879,0.4637529551982879,0.5681986808776855,-0.5473490953445435
3.2748505859375,1.811626520623267,3.215871679273248,-14.443865564501284,0.7940618991851807,0.5577998757362366,-0.7681712508201599
3.28487646484375,1.710640281177312,1.7653443696588276,-11.119970148360729,0.9784563779830932,0.1465470939874649,-0.9112956523895264
3.294902587890625,2.243876366393268,0.2610274743256159,-7.251000471302866,0.9951165318489076,-0.22951041162014,-0.8814200758934021
3.304928466796875,2.865335655593872,-1.291012016571313,-3.298922887447476,0.8740130066871643,-0.384122371673584,-0.6849986910820007
3.31495458984375,3.0825369755387304,-2.6205095388814805,0.2481283731281757,0.6920256018638611,-0.4682894349098205,-0.4302012920379638
3.32498046875,2.6158634666413065,-3.2497847625300285,3.189818954128026,0.5000821352005005,-0.4801937639713287,-0.2014843374490738
3.33500634765625,1.7205818294771014,-3.557698326796293,5.034043968278169,0.3639615774154663,-0.5155866146087646,0.0046688294969499
3.3450322265625,1.0549506594642997,-3.5938363926261663,5.892721237275004,0.4095100462436676,-0.5779507160186768,0.2077634632587433
3.355058349609375,0.4998708451002835,-3.501358015415072,6.309889249247312,0.5473931431770325,-0.5621512532234192,0.3591897487640381
3.36508447265625,-0.1781701630219817,-3.1506077644631265,6.603472967126965,0.7129238843917847,-0.5508846640586853,0.4528487920761108
3.3751103515625,-0.7489889599181712,-2.4675293466955424,7.348220490083098,0.8777234554290771,-0.5026159882545471,0.5181958079338074
3.385136474609375,-1.145030012709647,-2.0454769236825405,8.47307558363974,0.9094552993774414,-0.3833614587783813,0.6113982200622559
3.395162353515625,-1.2237928760401904,-1.4506561966910958,9.685971948742866,0.806668221950531,-0.3513452112674713,0.6992253065109253
3.405188232421875,-1.5478366141133009,-0.4703170530315488,11.02910505156517,0.5863602161407471,-0.3262018859386444,0.6806342005729675
3.41521435546875,-2.5078558041259646,0.3484164742421358,11.783655006611346,0.3267667293548584,-0.2920276522636413,0.5103589296340942
3.425240234375,-3.6929625372886656,0.7564922482203692,11.782205392324924,0.1046469211578369,-0.2584786713123321,0.2918696999549866
3.435266357421875,-4.36796461610645,1.1441405165240168,11.42398232127428,-0.0444134026765823,-0.2013773024082183,0.1015266627073288
3.445292236328125,-4.557167629796266,1.7335221212014555,10.802020635509493,-0.1026210188865661,-0.1804897487163543,-0.0918148458003997
3.455318359375,-4.68296463150233,2.2978096166327595,10.072789830636978,-0.0601340197026729,-0.1694647967815399,-0.2920957505702972
3.465344482421875,-4.677518933317065,2.5730864011883736,9.39894189029038,0.0513047352433204,-0.086759015917778,-0.4297374188899994
3.47537060546875,-4.32696245137155,2.6362252866685387,8.808787547674775,0.2139599621295929,0.0545152872800827,-0.5213690996170044
3.4853974609375,-3.87300229357481,2.626974935503304,8.532571144181489,0.4179865717887878,0.1870704591274261,-0.5917409062385559
3.495423828125,-3.4349598358780145,2.509759007398784,8.572867498734594,0.5670522451400757,0.2669258713722229,-0.6533560752868652
3.50544970703125,-3.019274171417952,2.0925752133354543,9.06956146736443,0.580765426158905,0.3037571609020233,-0.7072508335113525
3.515475830078125,-2.3714498762525618,1.6335786688067018,9.838644390153885,0.4748459458351135,0.2457322031259536,-0.7300919890403748
3.525501708984375,-1.6903662855640054,1.2032062342811376,10.429740982055664,0.2989614903926849,0.1650803983211517,-0.7625808715820312
3.535527587890625,-1.1599268453292548,0.5895067654270678,10.463239931553602,0.1292922794818878,0.0967082679271698,-0.7581080794334412
3.5455537109375,-0.4273343089386821,-0.0560792492922395,9.81106781644225,0.0095279728993773,-0.0382930561900138,-0.7147947549819946
3.55557958984375,0.1976240744240582,-0.3751520670849829,8.790963137170673,-0.0165198724716901,-0.1905262619256973,-0.6944559216499329
3.56560546875,0.5300470799162984,-0.5953696661110967,7.604734998762607,0.0498137660324573,-0.2906765639781952,-0.6237945556640625
3.57563134765625,0.9122728117145598,-0.8347055148441344,6.445618154641986,0.1842661201953888,-0.3440167307853699,-0.5482401847839355
3.5856572265625,1.0537561889827252,-0.8614609814312308,5.505873544764518,0.3344351053237915,-0.3045894503593445,-0.5359286069869995
3.595683349609375,0.6497352433532476,-1.0999230430044231,4.771260462331772,0.4682626724243164,-0.0222400277853012,-0.5321298837661743
3.60570947265625,0.4312127578072249,-1.5896908656328916,3.7698195669978856,0.5740299820899963,0.2053608894348144,-0.4286510646343231
3.615735595703125,0.6722986650779843,-1.906732762119919,2.9194425088346003,0.5944098234176636,0.181684598326683,-0.3160771131515503
3.625761474609375,0.8307920677274465,-2.0264948675759134,2.3162808006078004,0.4517433047294616,-0.1075339838862419,-0.2451305985450744
3.63578759765625,0.5879689614005387,-2.126877295909822,1.592896383675933,0.1402205675840377,-0.4079036712646484,-0.2065081000328064
3.6458134765625,0.1096216735832393,-2.456936056488752,0.2468921093314885,-0.2676516473293304,-0.430259495973587,-0.1891010552644729
3.655840576171875,-0.7386962600931525,-3.1349010767653582,-2.315420968908072,-0.726047158241272,-0.0347044542431831,-0.2176810353994369
3.665866455078125,-1.5676434306062756,-3.9324779803723096,-6.0357490675061936,-1.1973531246185305,0.3379769921302795,-0.1685738861560821
3.675892578125,-0.3508231700576841,-2.9448411539852617,-10.033142879903316,-1.5017948150634766,-0.1421848535537719,0.1029028967022895
3.685918701171875,2.2833707569137216,-0.1899271632459014,-13.51263919212222,-1.4585226774215698,-1.1830289363861084,0.3889882862567901
3.69594482421875,2.422287644694745,1.6346256936416028,-17.219254991710184,-1.1593849658966064,-1.594091296195984,0.3390111625194549
3.705970703125,-0.3574023292522877,2.543474522256851,-20.27446439986229,-0.752689778804779,-1.2872382402420044,0.1384811848402023
3.71599658203125,-2.114151231458038,4.27896589770466,-21.1649040038228,-0.2990767657756805,-0.4337461590766907,-0.1725230365991592
3.726022705078125,-2.733747795526684,5.426581396862864,-21.4008684764266,0.0633833706378936,0.3582342565059662,-0.5393581390380859
3.736048583984375,-1.702818793771416,5.821334747931361,-19.99165166684389,0.1673244088888168,0.6908153891563416,-0.7674136757850647
3.74607470703125,1.29521414443627,5.7519268651843065,-16.89296435149312,0.0266433097422122,0.6844772100448608,-0.7565739750862122
3.7561005859375,4.088682687562704,3.960454951578378,-13.722145865911244,-0.3463686108589172,0.6119324564933777,-0.6501479148864746
3.766126708984375,5.420085605102777,1.9037590070061383,-10.784038404095172,-0.8084269762039185,0.5075979232788086,-0.5302238464355469
3.776152587890625,5.738796165454388,0.4137316077828407,-8.74583278658986,-1.1097283363342283,0.4438050985336303,-0.4564444124698639
3.786178466796875,5.300662522342801,-0.7839186728715896,-8.080589592981338,-1.1449792385101318,0.4306698739528656,-0.3838059902191162
3.79620458984375,5.065680046513676,-1.3707804036825897,-7.989623373898863,-0.917959988117218,0.4715853333473205,-0.2374596893787384
3.80623046875,5.093929404920339,-1.5684982938699423,-7.643128150042891,-0.5556279420852661,0.3787896037101745,-0.0377997234463691
3.816256591796875,4.653778576767444,-1.5478082648016511,-6.64311407264173,-0.1194394379854202,0.167684257030487,0.1408160924911499
3.826282470703125,3.485886305516958,-1.5252853212177753,-4.942045483538508,0.2640486657619476,0.0105472579598426,0.2985137104988098
3.83630859375,2.066800574479252,-1.5970960273228585,-2.56031810503006,0.4920046031475067,0.018984418362379,0.4467372596263885
3.84633447265625,0.4160816780403256,-1.4833305319331584,0.2410153262525796,0.570694088935852,0.1816729307174682,0.4923697412014007
3.8563603515625,-1.3995280670002102,-1.4602600374691188,2.7270032897025347,0.545209527015686,0.2650192081928253,0.4362707734107971
3.866386474609375,-2.6571327578797934,-1.306738139621913,4.623693235105276,0.4907791912555694,0.167754665017128,0.3146764934062958
3.876412353515625,-3.266783535864949,-1.229073446791619,6.070469083231687,0.3910126388072967,0.00302404910326,0.2434989809989929
3.8864384765625,-3.076280253231525,-1.2564068593971431,7.239506432864069,0.2591191828250885,-0.1349906176328659,0.2840882539749145
3.89646435546875,-2.5463974239662286,-0.809504072766006,8.043778742456436,0.1543480604887008,-0.2963302135467529,0.3127180337905884
3.90649072265625,-2.756924380713701,-0.1126218965788371,8.319691779088974,0.1612189412117004,-0.3631663620471954,0.2324013710021972
3.9165166015625,-3.651362698921561,0.1180076082051731,7.980956667840481,0.2258735597133636,-0.2886205017566681,0.1231672838330268
3.92654248046875,-4.118794332709908,0.1726418645871803,7.421139595821499,0.3234428763389587,-0.1498190760612487,0.0277860388159751
3.936568603515625,-3.973299820104241,0.305561228986457,7.297347796458006,0.3946768641471863,-0.0228286273777484,-0.0293329078704118
3.946594482421875,-3.4360429549396034,0.6003913667306303,7.407190565446019,0.4689680933952331,-0.0243530720472335,-0.0691579729318618
3.95662060546875,-2.955467469678819,1.049460902941599,7.524574251332878,0.5525580048561096,-0.1257382780313491,-0.1728340238332748
3.966646484375,-2.919707881772518,1.3573676721408965,7.6325898048937315,0.6264315843582153,-0.1899169534444809,-0.2966079413890838
3.976672607421875,-2.622791220077872,1.5815877848066389,7.894350397533178,0.7116596698760986,-0.1609880924224853,-0.3442130088806152
3.986698486328125,-1.9990930659092965,1.7329843610629438,8.244162783113122,0.801225483417511,-0.0343026481568813,-0.37357959151268
3.996724365234375,-1.5619859893664716,1.7259005402818322,8.567988494521378,0.8989871740341187,0.107598029077053,-0.4096196293830871
4.00675048828125,-1.2784564863808452,1.577517028236389,8.87229994264245,0.9724058508872986,0.2014335840940475,-0.4836119413375854
4.016776611328125,-1.0482514540866017,1.387678346991539,9.157345549279452,1.0082851648330688,0.2472519427537918,-0.537226140499115
4.026802734375,-0.4888919165767729,1.0053265045955777,9.631959788048269,0.9719377160072328,0.2735439240932464,-0.4851984977722168
4.03682861328125,0.5396368921689689,0.5640767752900719,10.169163461720943,0.8458484411239624,0.2305517345666885,-0.3604959845542907
4.046854736328125,1.2794263543263078,0.4351797617420554,10.77880108796358,0.6776458621025085,0.118335336446762,-0.2019832730293274
4.056880615234375,1.640875109425187,0.4290945966094732,11.116839449119569,0.4752882122993469,-0.0104133207350969,-0.0689165741205215
4.06690673828125,1.3677683623850343,0.4428293997123837,11.16601410665512,0.2559312283992767,-0.0901605263352394,-0.0498783960938453
4.0769326171875,0.5930914189808071,0.6197672444604336,10.766839432013034,0.110543668270111,-0.0624253042042255,-0.1622749716043472
4.08695849609375,-0.2442319502115249,0.5483253716677426,9.740431853204964,0.0832277983427047,0.0623690597712993,-0.3226639926433563
4.0969853515625,-0.4118266509443521,0.4368912418350577,8.193092521089316,0.1385733634233474,0.1770756691694259,-0.4444498121738434
4.107011474609375,0.0957237888731062,0.2556023622706532,6.59883770854175,0.2518336474895477,0.1927955895662307,-0.4729829430580139
4.11703759765625,0.9446296054400504,-0.1739355941921472,5.135739086645842,0.3888857662677765,0.1912877112627029,-0.3428707420825958
4.1270634765625,1.903129476930946,-0.7808427725575864,3.7828731098383663,0.5157573223114014,0.3083963692188263,-0.1179821193218231
4.137089599609375,2.255082820062339,-1.256849780859053,2.7071453275442123,0.5490084886550903,0.6677020788192749,0.0024521481245756
4.147115478515625,1.5917147726759313,-1.1409170244328677,1.6654332120984792,0.5021155476570129,1.2663350105285645,-0.0670002549886703
4.1571416015625,0.4862810034260153,-1.2923207610823213,-0.0242301858931779,0.3547468483448028,2.040416717529297,-0.1832794547080993
4.16716748046875,0.5762805694334209,-2.3429393826916813,-2.8890274968266487,0.032576035708189,2.4657058715820312,-0.1705997884273529
4.177193359375,2.8894714412018656,-3.0370050584197044,-6.099397071552276,-0.5131349563598633,2.042875289916992,0.1440122127532959
4.187219482421875,7.79177089754641,-1.7163928533546626,-9.014249914509058,-1.0251383781433103,0.4281355738639831,0.8609947562217712
4.197245361328125,12.513868977302312,1.6431176276549695,-11.125272930943964,-1.3357245922088623,-1.143758773803711,1.512008786201477
4.207271484375,11.045060161066054,3.281701995794475,-13.035654132568837,-1.541557550430298,-2.0044734477996826,1.739833116531372
4.217297607421875,4.701057045292854,2.5804022771596906,-14.390131636226176,-1.6301568746566772,-1.930259108543396,1.6295335292816162
4.22732373046875,-1.2175816003099085,2.010616768833995,-15.336366192644832,-1.7467021942138672,-1.0809671878814695,1.286634087562561
4.237349609375,-4.528969709315896,2.61061621363759,-15.931155793845653,-1.7754348516464231,0.0563784018158912,0.8972537517547607
4.247375732421875,-5.087535319969057,3.5665193466335534,-16.891663205766676,-1.4642585515975952,0.9319222569465636,0.4033767879009247
4.257401611328125,-4.001887908945977,4.471701761695742,-17.821634025126695,-0.8928206562995911,1.5211777687072754,-0.1031306236982345
4.267427490234375,-1.8212392753601072,4.525956498974561,-18.02446896606684,-0.3668358325958252,1.766474723815918,-0.3361473083496094
4.27745361328125,1.1114822556339203,3.2933594081014395,-16.54028488604426,-0.2081649750471115,1.4784001111984253,-0.3707473576068878
4.2874794921875,3.344934112516045,1.617708899501711,-13.20155547338724,-0.3838433623313904,0.7380595207214355,-0.2795440852642059
4.297505615234375,4.221699995911121,-0.158088548175618,-9.500205046981572,-0.7570893168449402,0.1050098538398742,-0.1766853630542755
4.307531494140625,3.657670859155058,-1.8841181947298349,-6.609458471277356,-1.0914686918258667,-0.1364142596721649,0.0625947192311286
4.3175576171875,2.980819060817361,-2.7610096042007206,-4.980628019911051,-1.217273235321045,-0.0699955523014068,0.3823356926441192
4.327583740234375,2.091506999582052,-3.017820757739245,-4.310806266340613,-1.091095805168152,-0.0255579613149166,0.6988103985786438
4.337609619140625,0.9999684846937656,-2.9880653786838054,-3.928078868630528,-0.8352959156036377,0.0121105862781405,0.8796515464782715
4.3476357421875,-0.5710505598254502,-2.209448319351673,-3.440585859066248,-0.5694249868392944,-0.0681669116020202,0.8136880993843079
4.35766162109375,-2.3735417339652773,-1.528827523869276,-2.637500128909945,-0.278764396905899,-0.3558697998523712,0.5992445349693298
4.367687744140625,-3.194819538894296,-1.3468094532474877,-1.4670166721224784,-0.000117908231914,-0.6235633492469788,0.4294886589050293
4.377713623046875,-2.8732383915424347,-1.1590792885892092,0.0857639742642641,0.2571626305580139,-0.7159691452980042,0.3794619739055633
4.387739501953125,-2.358923279895633,-1.3047664011575282,1.6351444568186997,0.5081140995025635,-0.6430678963661194,0.3621498644351959
4.397765380859375,-2.24504292595461,-1.6392922241479158,3.174150260353088,0.6814243793487549,-0.4531091451644897,0.3514316976070404
4.407791259765625,-2.015918674634397,-1.7960756080090998,4.777290390145779,0.7417244911193848,-0.4151727855205536,0.3928215503692627
4.4178173828125,-1.3979491272456943,-1.6246388448953628,6.48307899350822,0.713776707649231,-0.5005723834037781,0.4436567723751068
4.42784326171875,-1.0702569496676324,-1.540204804060608,7.9631275811612605,0.5860181450843811,-0.5590218901634216,0.5070096850395203
4.43786962890625,-1.0262582334652544,-1.3546686423152683,9.01006707586646,0.4440116882324219,-0.6271417737007141,0.5710704326629639
4.4478955078125,-1.2110920921601354,-0.5894174797084182,9.75464859460592,0.358098030090332,-0.6615675687789917,0.541068434715271
4.457921630859375,-1.9696474834553896,0.1589293829139322,9.955766210234165,0.3259425163269043,-0.6009116768836975,0.40485280752182
4.467947509765625,-2.7806059928134084,0.5677689808715135,9.816640648138522,0.3079956173896789,-0.4499092996120453,0.2612220048904419
4.477973388671875,-3.0212042626976965,0.9873384279623628,9.777626734611392,0.287966251373291,-0.2560945749282837,0.1371069699525833
4.487999267578125,-2.893882535642385,1.2530857521504164,9.639048285004495,0.2892890572547912,-0.1194719895720481,0.0285040661692619
4.498025146484375,-2.637189747786522,1.1849705395624042,9.3467592831105,0.2861771583557129,-0.078267827630043,-0.0398174673318862
4.508051513671875,-2.252198204536736,1.173147123038769,9.126847535163163,0.2751390933990478,-0.1134808361530304,-0.0954291373491287
4.518078369140625,-2.05101702215299,1.2519983953051268,9.032128101027013,0.2902728021144867,-0.150029256939888,-0.1536114811897277
4.5281044921875,-2.009778856705129,1.2877403014242648,8.870089865377544,0.3264389038085937,-0.1715141832828521,-0.2076690047979354
4.53813037109375,-1.909800625257939,1.2172117440842092,8.742928297320008,0.3752096593379974,-0.1747816205024719,-0.2573084533214569
4.548156494140625,-1.6912718561016022,1.0147799040522425,8.839842611151933,0.3799923658370971,-0.1317576318979263,-0.2505732178688049
4.558182373046875,-1.189919540271908,0.7478936389621347,8.915822858026623,0.3364909589290619,-0.1014894843101501,-0.2107778787612915
4.56820849609375,-0.7788922230117022,0.4537702612478286,8.932046263074874,0.2767756283283233,-0.0446333214640617,-0.1970764100551605
4.578234375,-0.6013029286175966,0.2477311174388974,8.693815014582873,0.2421960532665252,0.0021602811757475,-0.1744978576898574
4.58826025390625,-0.303877586748451,0.0185313166644424,8.033667682808638,0.225313052535057,-0.0049401670694351,-0.1539372205734253
4.59828662109375,0.0151255268089473,-0.1217316519632935,7.106583817061781,0.2561844289302826,-0.1053517237305641,-0.1935666501522064
4.6083125,0.1535303734146058,-0.1031134607329964,6.226127846977114,0.3394452631473541,-0.2662972509860992,-0.1941549628973007
4.618338623046875,0.5179673505440354,0.0476147878076881,5.383330868679285,0.472452312707901,-0.3970566093921661,-0.1942098289728164
4.628364501953125,0.3926581323549151,-0.0049373833369463,4.781014379104971,0.5955237150192261,-0.2993488609790802,-0.2301585376262664
4.638390625,0.114187666324526,0.0816636993385851,4.2685050017058845,0.6604108810424805,-0.0336125157773494,-0.255446046590805
4.648416259765625,0.2649978209950029,0.3845047826461494,3.741843180313706,0.6653258800506592,0.3135139346122741,-0.3196833431720733
4.658442138671875,0.0897936681717634,0.2180492420110851,2.8357202695310115,0.6345884799957275,0.8517259955406189,-0.4994235336780548
4.66846826171875,-0.4185295095838606,-0.6638635027531534,0.947076267939806,0.612794041633606,1.4885575771331787,-0.6842728853225708
4.678494140625,-0.1472920635469257,-2.050132348272949,-1.99065183916986,0.5539916753768921,1.8530982732772827,-0.6866816878318787
4.688520263671875,1.902256785749644,-3.004984949302673,-5.153004109701514,0.395148366689682,1.730710506439209,-0.3827804327011108
4.698546142578125,5.036487854298949,-3.055418959249556,-8.171687329488993,0.1699112802743911,1.0888346433639526,0.0370898135006427
4.708572509765625,7.411226104572415,-2.289207938634604,-10.652482400470973,-0.1244752183556556,0.0737838745117187,0.4626857340335846
4.718598388671875,8.17146754925847,-1.3597472607538104,-11.75320843042135,-0.5382135510444641,-0.6875206828117371,0.8036862015724182
4.728624267578125,7.05876700387597,-1.2099305010348558,-12.011741293185947,-1.0110093355178833,-0.9988297820091248,1.0377436876296997
4.738650390625,4.655881686526537,-1.7188329399831592,-11.958673719865082,-1.433608055114746,-0.8181630969047546,1.207848310470581
4.74867626953125,2.193852252421528,-2.156575391820073,-12.47295361406803,-1.9081251621246336,-0.4665771424770355,1.297925353050232
4.758702392578125,0.6096523854203522,-0.8331869269747286,-12.882629808980226,-2.3102500438690186,-0.2515809535980224,1.168139100074768
4.768728271484375,-0.9610644612818956,0.8946560526117682,-14.01210730164051,-2.322027921676636,-0.0912195593118667,0.7365210652351379
4.77875439453125,-2.5142139409810302,3.2316081775873897,-16.515509341228007,-1.7915059328079224,0.1535356044769287,0.0801512226462364
4.7887802734375,-3.1239135265439746,5.024914905405044,-19.33037270069122,-0.8339875936508179,0.5734381079673767,-0.5763485431671143
4.79880615234375,-2.373741786582023,5.259549590709805,-20.2676909602046,0.1030205562710762,1.1981488466262815,-0.9072644114494324
4.808832275390625,0.1108696278177201,4.345284290003776,-18.81472151813507,0.7334455251693726,1.450734257698059,-0.8476139903068542
4.8188583984375,2.737990547662973,2.755461906945705,-15.640840137851235,1.0124231576919556,1.1608006954193115,-0.6905660629272461
4.828884521484375,3.737529116506874,1.213722440663725,-11.528187376636266,0.8355895280838013,0.4142463207244873,-0.4758813381195068
4.838910400390625,4.23067182239592,-0.3903844518018886,-6.700672527641058,0.3385038673877716,-0.3172183036804199,-0.1228942647576332
4.8489365234375,4.503896642857789,-1.1621201175898312,-2.377606499186158,-0.1688720434904098,-0.7765388488769531,0.2982596158981323
4.85896240234375,3.498381337691843,-1.6458815394103523,0.2778320219963789,-0.4647969305515289,-0.8322377800941467,0.6041622757911682
4.868988525390625,1.2458372423268853,-1.5347456618718802,1.3831249214708805,-0.5264950394630432,-0.6577293276786804,0.6733062267303467
4.879014404296875,-1.182842879883945,-0.8440338266164064,1.5925205361008643,-0.3681959509849548,-0.417659729719162,0.530049741268158
4.889040283203125,-2.80140649651885,-0.116955048678629,1.4526812727779148,-0.0506470836699008,-0.1919074952602386,0.303634762763977
4.89906640625,-3.2850594895288348,0.1770256326293572,1.3535054437547922,0.3828732073307037,-0.0506209395825862,0.1167293041944503
4.90909228515625,-2.6070775181174275,0.1106760049417614,1.7986831601589917,0.8210190534591675,-0.0646046996116638,0.0898940786719322
4.919118408203125,-1.2523928014501928,-0.1822640082068741,3.1039959431529045,1.1341934204101562,-0.2454463839530944,0.1453027427196502
4.929145263671875,-0.5020369370929897,-0.4742734625071287,5.096144158360362,1.298190355300903,-0.4921105802059173,0.161774680018425
4.93917138671875,-0.5814717083357274,-0.7242348962813615,7.393352009707689,1.2946234941482544,-0.6630905866622925,0.1735738217830658
4.949197265625,-0.8145724620714783,-0.8075637523531913,9.524760227045416,1.1955790519714355,-0.6470927000045776,0.2031046897172927
4.959223388671875,-1.1137317881263793,-0.6926525209944695,11.070578048682211,1.089080572128296,-0.3941035270690918,0.2346021682024002
4.969249267578125,-1.516678090261668,-0.7177513794809579,12.051970427721738,0.8979294896125793,-0.1314692795276641,0.2781411111354828
4.979275146484375,-1.6448577493205665,-0.5062034821879119,12.857471986848116,0.6217299103736877,-0.0441863015294075,0.3072095215320587
4.98930126953125,-1.693427134439349,0.0176143479499965,13.472427593243122,0.2721608877182007,-0.0448585264384746,0.2943731248378753
4.9993271484375,-1.88698542072922,0.5613809603348374,13.568242421400546,-0.1054202318191528,-0.0689755827188491,0.2482788860797882
5.009353515625,-2.174970734079927,1.1471503658644857,12.872310659539698,-0.3755750656127929,-0.1560883522033691,0.1443386375904083
5.01937939453125,-2.628775555184484,1.6212025868363678,11.623400147247311,-0.5209636688232422,-0.2987219393253326,0.0173314213752746
5.029405517578125,-2.743813846988976,2.1161226776614783,10.090701919424534,-0.4665378034114837,-0.4207167327404022,-0.0681131333112716
5.039431396484375,-2.679035085347295,2.623306183862686,8.641367034465073,-0.2463279515504837,-0.4601629674434662,-0.1188218519091606
5.04945751953125,-2.629972071492672,2.8438100524842738,7.592318584781885,0.053909882903099,-0.4069153964519501,-0.1653133630752563
5.0594833984375,-2.781135569645464,2.9302964958041904,7.232253685256838,0.3467537462711334,-0.2293925434350967,-0.2355446517467498
5.06950927734375,-3.0106191557973623,2.857942914994061,7.558864058947563,0.5639843940734863,0.0342374928295612,-0.3726454377174377
5.079535400390625,-3.105816728839278,2.399083586978912,8.18465260952413,0.6976180672645569,0.2400455027818679,-0.4704817235469818
5.089561279296875,-2.3048443375751373,1.7765717199854552,9.046562284570932,0.7646405696868896,0.3819234073162079,-0.4294152855873108
5.09958740234375,-0.906512202361226,1.2318274216748772,9.976762236511709,0.7024040818214417,0.4629290401935577,-0.276191383600235
5.10961328125,0.3084125998295843,0.8036303584270179,10.80352870198488,0.4693157374858856,0.4092312753200531,-0.0386952720582485
5.1196396484375,1.0835163903437557,0.9111256875060498,11.458604721844196,0.080658808350563,0.166445791721344,0.1294031888246536
5.12966552734375,0.9487146827965974,1.0189467414081097,11.588285579246282,-0.3614928126335144,-0.1147060319781303,0.1595242470502853
5.13969140625,0.2739357452102005,0.7546312035888433,10.576120460802317,-0.6969704031944275,-0.326185792684555,0.1200966835021972
5.149717529296875,-0.3775916422568261,0.2782414795801043,8.575791277226806,-0.796551525592804,-0.3115844428539276,0.0442696548998355
5.159743408203125,-0.8966597936496138,-0.2231034566607326,5.908087733232975,-0.6377520561218262,-0.0037552420981228,-0.0122514106333255
5.16976953125,-1.1930115149378775,-0.917584435191378,2.9757179382860657,-0.2956012487411499,0.559651255607605,-0.0150165325030684
5.17979541015625,-1.296031452168524,-1.713679356612265,0.2431377252340316,0.0136476820334792,1.242429494857788,0.0482210256159305
5.189821533203125,-0.6275584828585385,-2.5130028116256,-2.014457662171125,0.0926877483725547,1.5727479457855225,0.2175816893577575
5.199847412109375,0.7757451571576297,-2.854033340334892,-3.570190728622675,-0.1060533076524734,1.5860037803649902,0.4376930296421051
5.209873291015625,2.192770010142773,-3.062145344895124,-5.5981315572232,-0.5390858054161072,1.1506924629211426,0.7292578816413879
5.2198994140625,3.795547297972441,-2.794632472339272,-8.116399742031097,-1.1190193891525269,0.3775990903377533,1.0530927181243896
5.22992529296875,4.974613289666175,-1.0735196777906268,-10.960503224503992,-1.635572910308838,-0.5293099880218506,1.1923449039459229
5.239951416015625,4.187922521732747,0.7127809706572443,-14.137999288153647,-1.8858983516693115,-1.1820417642593384,1.102913498878479
5.249977294921875,2.12468066264838,1.3816529492221772,-17.825139987421036,-1.785904884338379,-1.3183408975601196,0.9789388179779052
5.26000341796875,-0.0145363287441432,0.9232130156628788,-21.3241862187624,-1.3913580179214478,-0.6998603343963623,0.9135838150978088
5.270029296875,-1.030003849734366,0.5513844669774174,-24.36958734960556,-0.7837092280387878,0.0518432594835758,0.9014013409614564
5.28005517578125,-0.5337232842110097,1.637831503945589,-25.64755327599049,-0.0589091703295707,0.5709841251373291,0.7483087182044983
5.290081298828125,-0.2405509236112236,2.4906527403905985,-25.280749423599243,0.5615345239639282,1.0143580436706543,0.4651702046394348
5.300107177734375,0.0526432104289531,2.7436697623431683,-22.85131979819536,0.8174757361412048,1.4474951028823853,0.2405171245336532
5.31013427734375,0.9505186634786428,2.094014013966918,-19.29870564279556,0.6973845958709717,1.4917197227478027,0.1591109186410904
5.320160400390625,2.903559880048036,1.0118805293489248,-15.749143860703706,0.3130653798580169,0.9862008094787598,0.2331867516040802
5.3301865234375,5.136099152129888,-0.3413066422369331,-12.75106328396201,-0.1127448752522468,0.2893342673778534,0.4772738516330719
5.34021240234375,6.600478461486101,-1.22216870890446,-10.629551606738566,-0.4012738764286041,-0.1806188821792602,0.7934733629226685
5.350238525390625,6.68498454464376,-1.47426825068593,-9.247166689980029,-0.4157453179359436,-0.382793128490448,1.0275553464889526
5.360264404296875,5.582660431846976,-1.3285776309862731,-8.049913884210586,-0.2810617983341217,-0.482016921043396,1.1833361387252808
5.37029052734375,4.272719989052415,-1.0446311446975916,-6.195328219565749,-0.1205379515886306,-0.700725793838501,1.3300089836120603
5.38031640625,3.225729640942812,-0.5411754999130964,-3.631854865375161,0.0614305138587951,-0.9820946455001832,1.4104516506195068
5.39034228515625,1.4546436588920653,-0.3553421087868511,-0.9971756391048432,0.2401969581842422,-1.0816525220870972,1.4414732456207275
5.400368408203125,-0.7142484859265387,-0.4263179715029895,1.4139239643603565,0.4062687456607818,-0.8901031017303467,1.4154314994812012
5.410394287109375,-2.681666018372774,-0.084881565406546,3.4437025297820565,0.5713056325912476,-0.5238813161849976,1.2824208736419678
5.42042041015625,-4.467821120870113,0.2418778613660484,5.001441090837121,0.7116286754608154,-0.1798808127641677,1.079783320426941
5.430446533203125,-5.355974659720063,0.3936446591742336,6.206724642848968,0.8266385197639465,0.069023922085762,0.9341056942939758
5.44047265625,-4.955096103769541,0.4754983281269669,7.403444364655018,0.8499976396560669,0.2542235851287842,0.9161852598190308
5.45049853515625,-3.9480172025486815,0.4576175843257457,8.510430039522051,0.7670974731445312,0.190189391374588,0.9499459862709044
5.460524658203125,-3.238721224462986,0.7095036294870078,9.745136669895052,0.6072620153427124,-0.0094800386577844,0.937663197517395
5.47055029296875,-3.3282249697774646,1.0816158174194397,10.6428798748672,0.3979845345020294,-0.1918491423130035,0.861591100692749
5.480576171875,-3.894613821402192,1.2721825206778945,10.994466284382344,0.170838177204132,-0.2749551832675934,0.7170165777206421
5.4906025390625,-4.454224557194113,1.5408312653958796,11.002101309305427,-0.0054753231815993,-0.2139022350311279,0.5658869743347168
5.50062841796875,-4.614995549386739,1.783204289867729,10.596942299556732,-0.096368208527565,0.0091393673792481,0.4286004602909088
5.510654541015625,-4.319739222119749,1.9424585938870904,9.8489132707119,-0.1153423488140106,0.2923499643802643,0.3457417786121368
5.520680419921875,-3.422592521736026,2.1251308906339106,9.093418143770098,-0.0579091496765613,0.4971718192100525,0.3431672751903534
5.53070654296875,-2.1060122025355694,2.1691785605445504,8.475379768928885,0.0548133179545402,0.528929591178894,0.380943089723587
5.540732421875,-1.020688032117486,2.12404163409248,8.134144657558203,0.1631416529417038,0.3529620468616485,0.3978964984416961
5.55075830078125,-0.5147723538950085,2.135200010836124,8.27309194047749,0.261452704668045,0.1273273378610611,0.3541212677955627
5.560784423828125,-0.6870078661710024,2.038524181935191,8.812932976916432,0.312411218881607,0.0504653118550777,0.300231397151947
5.570810302734375,-1.0720927867926655,1.732394870737195,9.662705054923892,0.2905656397342682,0.0975931957364082,0.2694345116615295
5.58083642578125,-1.2163665254317224,1.5694187697157262,10.560774423110484,0.2222046852111816,0.1484217643737793,0.2484756857156753
5.590862548828125,-1.318294429641962,1.555619961465895,11.326003593081236,0.1163031533360481,0.1807405650615692,0.2481376230716705
5.600888671875,-1.3895225135535,1.320683662866056,11.71239009782076,-0.0354501530528068,0.3128296136856079,0.2952792942523956
5.61091455078125,-1.3729852202504873,0.9938101081945,11.69185233670473,-0.2299967259168625,0.4551111161708832,0.2610347867012024
5.6209404296875,-1.8675423229821024,0.7814503830619156,11.502817957580088,-0.4308550059795379,0.5675705671310425,0.1358212083578109
5.630966552734375,-2.218313616722077,0.7091717671841382,10.655912374919652,-0.5403867363929749,0.5731420516967773,-0.0372841320931911
5.640992431640625,-2.3356313977658747,0.3872403450898826,9.255182823175192,-0.5798760652542114,0.5531928539276123,-0.1580438315868377
5.6510185546875,-1.6817596391297875,0.2365468025363981,7.815690117794275,-0.520819365978241,0.4495138525962829,-0.1527525186538696
5.66104443359375,-0.5732357949100434,0.2444737961433827,6.672930534234642,-0.3752527832984924,0.2936108112335205,-0.0831619948148727
5.671070556640625,-0.0080053195402026,0.2578644619837403,5.746637526604533,-0.1871281862258911,0.2299045175313949,-0.0427616648375988
5.681096435546875,-0.3859090964861214,0.1356885733842849,4.771373859578371,0.0209296755492687,0.3535667955875397,-0.1018942221999168
5.691123779296875,-1.3842111092723903,-0.0931454628176987,3.787991768026352,0.2123105376958847,0.6794489622116089,-0.2957768738269806
5.7011494140625,-2.2560075336918235,-0.2847594831719994,2.8312165283709763,0.3557899594306946,1.2071441411972046,-0.4772912859916687
5.711175537109375,-2.1586345163069662,-0.9372603918462992,1.6752239537507294,0.3252760767936706,1.7476030588150024,-0.5744467377662659
5.721201416015625,-0.9239625188559292,-1.7013010826848447,0.428707058596611,0.1756910979747772,1.9712893962860107,-0.610531747341156
5.731227294921875,1.0263076255649328,-2.032219236572087,-0.9755313780516386,-0.0176773518323898,1.818891286849976,-0.5414589643478394
5.74125341796875,3.19257205222845,-2.636699333921075,-2.7561913902640343,-0.2935605943202972,1.6181161403656006,-0.319979578256607
5.751279296875,5.40243772020936,-3.4671816050469872,-5.366224835577607,-0.5839163064956665,1.241184949874878,0.0146701280027627
5.761305419921875,7.628540821763873,-2.9448838240832087,-7.672304560166597,-0.8643122911453247,0.5463855862617493,0.4163443446159363
5.771331298828125,9.358844273179768,-1.1553571993261575,-9.401023372739552,-1.1082497835159302,-0.3111534714698791,0.8418207168579102
5.781357666015625,9.175182819265126,-0.0297632701009511,-10.596334396791455,-1.3359663486480713,-0.9318172931671144,1.183640718460083
5.791383544921875,6.67910834608674,-0.4687715040899813,-11.724829892677068,-1.5377633571624756,-0.6621003746986389,1.3659776449203491
5.801409423828125,3.686549747636914,-1.083150625771284,-14.032009102940558,-1.5667529106140137,-0.1023963391780853,1.3325248956680298
5.811435546875,2.2125176437944174,1.0013386040031909,-16.643725386774538,-1.108781099319458,0.1699414104223251,1.1067627668380735
5.82146142578125,0.9584344050392508,2.9765166874483224,-19.58495185739398,-0.4819842576980591,0.4248557090759277,0.8420575857162476
5.831487548828125,0.526383004450798,3.4909202080309387,-21.37502325655222,0.0156537517905235,0.7021462917327881,0.5636163353919983
5.841513427734375,0.7568719682529568,3.4107232202440496,-20.245642794525622,0.2294014692306518,0.9027047157287598,0.3532329797744751
5.85153955078125,1.0305822341442108,1.8193921861886977,-17.595518746364117,0.2233475446701049,0.8653519749641418,0.0754998996853828
5.8615654296875,0.7325248779818415,-0.0125794955879449,-14.394111061251165,0.0090485801920294,0.7554422616958618,-0.1855436712503433
5.87159130859375,1.054733801843226,-1.8683854958079755,-11.545720695239304,-0.3562154769897461,0.4385489523410797,-0.1987017095088958
5.881617431640625,2.7424209313258525,-3.082466832911968,-8.98457315364778,-0.6878424286842346,-0.0470888465642929,-0.0600879043340683
5.8916435546875,4.006092082637548,-3.553099600829184,-7.271382749596237,-0.9667776226997375,-0.4291281700134277,0.1330036967992782
5.901669677734375,3.7804414987772703,-3.666362699654698,-6.009873452493548,-1.2011985778808594,-0.6594032049179077,0.2912140786647796
5.911695556640625,2.56563316257298,-3.184935273739695,-4.953680976274609,-1.203646898269653,-0.7642789483070374,0.266234278678894
5.9217216796875,0.4683773902058601,-2.4177184370830656,-4.076272118800878,-0.9222346544265748,-0.7300285696983337,0.1582558751106262
5.93174755859375,-1.2876426862686872,-1.872395900493115,-3.6043536949872967,-0.3698745965957641,-0.5975808501243591,0.0455552451312541
5.941773681640625,-2.0668118265256283,-1.0665441396895796,-3.3174884717077013,0.3109481334686279,-0.4707286357879638,0.0014564925804734
