seconds_elapsed,ax,ay,az,gx,gy,gz
0.0729033203125,-0.2481643942896276,-0.3362694883199408,-2.0448013625085357,-0.0578851737082004,-0.7393913865089417,0.0449399389326572
0.082882080078125,0.0271134131792932,-0.5599212630458176,-2.035637228322029,-0.0523934699594974,-0.5737171769142151,0.0481676906347274
0.092862060546875,0.2044285668071359,-0.6193282685212791,-1.808994126293063,-0.0073705865070223,-0.2773201465606689,-0.0214852932840585
0.102841064453125,0.3187397864460945,-0.478181502796337,-1.636818527510762,0.044254258275032,0.0283428281545639,-0.1296306848526001
0.112821044921875,0.3715610568556934,-0.2316477784484624,-1.5625538523823022,0.1019559502601623,0.2596768140792846,-0.2105084806680679
0.122801025390625,0.303372632900998,-0.0167694215584546,-1.290356621402502,0.1610192656517028,0.5163754224777222,-0.2277612388134002
0.132780029296875,0.0523116403870284,0.1948907770026475,-0.9619137715876102,0.169691264629364,0.8129763603210449,-0.185672640800476
0.142760009765625,-0.1891351360853761,0.5061444089444354,-0.9038257397562264,0.0933815911412239,1.0621694326400757,-0.1179689541459083
0.152740234375,-0.2612661967186257,0.7502852833390236,-0.9253764773070812,-0.0642307177186012,1.1947109699249268,-0.0596866086125373
0.16271923828125,-0.0939909006658941,0.732690005415678,-0.8543553141444921,-0.2696424722671509,1.168400764465332,-0.016946867108345
0.17269921875,0.3030272169968113,0.5222333008928224,-0.4942138422518968,-0.4599375128746032,1.1177043914794922,-0.0133639834821224
0.18267822265625,0.4660442710831761,0.3693593090277165,0.0122878191649913,-0.6051636934280396,1.1223636865615845,-0.0190687421709299
0.192658203125,0.4416475695166736,0.3221908402154222,0.2664963889896869,-0.730328381061554,1.1392052173614502,-0.0204525180160999
0.202638427734375,0.5484070220692083,0.1603401995599269,0.3179121034502983,-0.8434165716171265,1.0916461944580078,-0.0089053185656666
0.2126171875,0.7537219797894358,-0.2468929130490869,0.266087808188796,-0.9155693650245668,0.8935328125953674,0.0247418545186519
0.222597412109375,0.8342421351160854,-0.5290150334548205,-0.011299977171421,-0.8898413181304932,0.5839922428131104,0.0528219603002071
0.232577392578125,0.8004493903033435,-0.4340058956570923,-0.0117787005990743,-0.7870044112205505,0.3766122460365295,0.0654374808073043
0.24255615234375,0.7015569082662463,-0.2474175945103168,0.0840437263429164,-0.6391470432281494,0.3237892687320709,0.1009382158517837
0.252536376953125,0.2702715236142277,-0.0670928838029503,0.12823767285645,-0.4901798069477081,0.3911501467227936,0.1561837643384933
0.262515380859375,0.1524311434684321,0.1548809112407267,0.0249304431170225,-0.3618183732032776,0.478804349899292,0.1977035105228424
0.2724951171875,0.1932085230041295,0.2014898099415004,0.0118932668894529,-0.2470842897891998,0.5244311094284058,0.2224625200033188
0.282475341796875,0.1647812872799113,0.0411846086297184,0.0417734413683414,-0.1173936575651168,0.4616129696369171,0.2266852259635925
0.2924541015625,0.2499230745252221,-0.0141242408119142,-0.0896814399689436,0.0209410227835178,0.4206247329711914,0.2063698321580886
0.30243408203125,0.3867831028416753,-0.1648101115155965,0.2434691491454839,0.166840448975563,0.5171220302581787,0.1809678077697754
0.312414306640625,0.0475046054314821,-0.0832069101925939,0.5458820701688528,0.2974628508090973,0.6484876275062561,0.1385841369628906
0.32239306640625,-0.4063238888096064,0.0846685802429914,0.3820224643111228,0.3847775161266327,0.6742436289787292,0.0809871479868888
0.332373291015625,-0.3863631238639354,0.0968931979786604,0.4164543107450008,0.4346386790275574,0.6933451890945435,0.0266860965639352
0.3423525390625,-0.1212568740583956,-0.1021717229034751,0.6644868222832679,0.4768724143505096,0.7104535698890686,-0.019000431522727
0.352332275390625,0.2330071571681648,-0.2691374050177633,0.5775462054550647,0.5182190537452698,0.7004259824752808,-0.0539911687374115
0.362312255859375,0.3988906700689345,-0.4076840712469071,0.2984048544257879,0.5608981251716614,0.6938309073448181,-0.0231962408870458
0.37229150390625,0.2401059563226997,-0.4616818380899727,0.0919201588064432,0.5906268954277039,0.7163842916488647,0.080975703895092
0.382271240234375,0.2141480698540806,-0.3822340612351894,0.062900985071063,0.5808113217353821,0.7715466618537903,0.1854022443294525
0.392251220703125,0.2787906378954649,-0.1357788089510053,0.0122346276730298,0.5137800574302673,0.8204142451286316,0.2495198398828506
0.402230224609375,0.1769458819240331,0.1493135594371706,-0.2897071687072515,0.3903225064277649,0.7636292576789856,0.2435431778430938
0.412210205078125,0.2266127068907022,0.5441319020332768,-0.8511445354044437,0.2342979609966278,0.696842610836029,0.1620836108922958
0.422189208984375,0.2303667987272143,0.7867155370485037,-0.9823685305953024,0.0414549969136714,0.7778778076171875,0.058612871915102
0.432169189453125,-0.1727361552745103,0.6715685972377657,-0.6524971092820168,-0.1857549846172332,1.003932237625122,-0.034644104540348
0.442149169921875,-0.2850603658147156,0.1061326624237,-0.4444815508335829,-0.4206910729408264,1.2070086002349854,-0.0991535857319831
0.452128173828125,-0.0456678184583783,-0.63430949148871,-0.5227478628188371,-0.5755001902580261,1.2195918560028076,-0.1712440252304077
0.4621083984375,0.2909770425125956,-0.7565127064865083,-0.2202197909832,-0.5755382776260376,1.209174394607544,-0.2829679250717163
0.47208837890625,0.1940862556867301,-0.3689620533384382,0.4122106818258762,-0.4408558011054992,1.1997162103652954,-0.4218519032001495
0.4820673828125,0.1538398777551949,0.0389723394077271,0.6964432185143232,-0.2919957637786865,1.2497183084487915,-0.539982795715332
0.49204736328125,0.1197485153220593,0.0891284091960638,0.8569868316918611,-0.202266052365303,1.2645113468170166,-0.5993584990501404
0.5020263671875,-0.4408721281647682,0.0035051585767418,0.5448755234748125,-0.1981780976057052,1.1210598945617676,-0.5980676412582397
0.512006103515625,-0.9506026885002852,0.0015201222393661,0.2848860321611166,-0.2365347295999527,0.875973641872406,-0.5792987942695618
0.521986328125,-0.7921154233306645,0.0547022618506103,0.1377186179071664,-0.2732378840446472,0.5982781052589417,-0.5446776747703552
0.53196533203125,-0.3887427124768495,0.1417372058987617,-0.1211456687688827,-0.3078129589557647,0.4509814977645874,-0.4814812541007995
0.541945068359375,0.1546396498307585,-0.0186631263505667,0.0015051438659429,-0.353587657213211,0.5445950627326965,-0.3621487319469452
0.55192529296875,0.1892722795337438,-0.3686129476398229,0.0476344423562288,-0.331763207912445,0.1721233278512954,-0.1232731789350509
0.561904296875,-0.071789517186582,-0.5666751942854374,1.223395547285676,-0.1420457512140274,-0.7492212057113647,0.1975961923599243
0.57188427734375,0.0418386155590414,-0.908415551764518,3.150323394563794,-0.0081480741500854,-0.8208547830581665,0.4545555412769317
0.58186328125,-0.4979299401655793,0.0360563058305531,1.6255419312149286,0.0369102172553539,-0.5400987267494202,0.6109406352043152
0.591843505859375,-0.4361434922076761,0.0080256316758692,0.9735270524919032,0.0304373260587453,-0.334604263305664,0.8073940277099609
0.6018232421875,-0.8816390423893928,-0.6831593740493058,0.7540981196254491,0.000458386610262,-0.2045200318098068,0.9552985429763794
0.611802490234375,-1.1502262661784886,-0.92371183203049,0.9500924008905888,-0.0434575453400611,0.0432649627327919,1.0159518718719482
0.6217822265625,-1.0732187220826743,-1.1921664424158631,0.9871639481782912,-0.0752317234873771,0.2084299623966217,0.956707239151001
0.63176220703125,-0.5756409563556313,-1.5884658538825809,1.0084300235688686,-0.0541428662836551,0.2592059373855591,0.8352330923080444
0.641741455078125,-0.2467231825053691,-1.9229861239150168,1.3946318193912506,0.0309110395610332,0.1541863083839416,0.6550025939941406
0.65172119140625,0.106428284369409,-1.5029016399741173,2.0781758088439704,0.1401901543140411,-0.0624913312494754,0.4884598553180694
0.6617001953125,-0.0028647417813539,-1.3241386256255208,2.685128726047277,0.2547785341739654,-0.1190443485975265,0.3959386944770813
0.671680419921875,-0.6766323103681207,-1.223213980173692,3.089891429954767,0.3321192860603332,-0.1408309638500213,0.3323950171470642
0.68166015625,-0.575427021344006,-0.8201157754123211,3.301647928497195,0.3134633302688598,-0.1760723143815994,0.2714219391345978
0.69163916015625,-0.550721326893568,-0.3890671221256256,3.1967987300127745,0.2169222086668014,-0.2938830554485321,0.1699459105730056
0.701619384765625,-0.5522416683286429,-0.1798221680127084,3.439450133034587,0.0468173287808895,-0.159540444612503,0.0491558499634265
0.71159814453125,-0.9851011704295872,0.0533440521746873,3.082767277163267,-0.163504272699356,0.1023025289177894,-0.0411712452769279
0.721578369140625,-0.6512623067900538,0.2736791401006281,2.983194557777047,-0.2952103912830353,0.364275574684143,-0.1189222335815429
0.73155810546875,0.0396080800279974,0.5330899547435343,3.626083296236396,-0.3293724954128265,0.5380094647407532,-0.2079979181289672
0.741537353515625,-0.2459390463903546,0.2090380333639681,4.21547425326407,-0.2613897323608398,0.640836775302887,-0.3409634232521057
0.751517333984375,-0.5530953625485301,-0.1339856419239193,4.445706904217601,-0.1669997870922088,0.6506218910217285,-0.4661962985992431
0.7614970703125,-0.6707295160651207,-0.1276730247110128,3.898406783944368,-0.1191347911953926,0.6894100308418274,-0.5799798965454102
0.771476318359375,-0.5359770544871687,0.0612191694639623,3.1885417737990616,-0.1189989447593689,0.7363487482070923,-0.6704074740409851
0.781456298828125,-0.3735226392522454,0.0778540048573166,2.6122107893526554,-0.1510743349790573,0.7242861986160278,-0.7207886576652527
0.79143603515625,-0.4923255442872643,0.0659957362160086,1.9676883122116329,-0.2306469678878784,0.5859171748161316,-0.7318571209907532
0.801415283203125,-0.6802014010265469,0.0829538852795958,0.983800024703145,-0.3880898356437683,0.4771619439125061,-0.6853545904159546
0.81139501953125,-0.8761252474039792,0.12424655739367,-0.1620434963464737,-0.5628347396850586,0.4618567526340484,-0.5903767347335815
0.821374267578125,-0.7230980012059212,-0.0315134747691452,-1.1879951480805873,-0.6904717683792114,0.3843355774879455,-0.4727954864501953
0.8313544921875,-0.4934118782192468,-0.1414190798602998,-1.8176000420749183,-0.7257059216499329,0.2870407402515411,-0.3709401190280914
0.841334228515625,-0.2923682046100497,-0.0759613960437476,-2.1210820536345243,-0.6588461995124817,0.1931126564741134,-0.2779963314533233
0.8513134765625,0.0859527748346328,-0.1713150364302098,-2.444770402398705,-0.5033031702041626,0.1308145970106125,-0.1773969978094101
0.86129345703125,0.3617985914498567,-0.4046425846591591,-2.5905291188985107,-0.2716755270957947,0.0002786824479699,-0.0843189880251884
0.871273193359375,0.5023761059194803,-0.3275894478559494,-2.459511459934711,-0.0262523535639047,-0.1906821131706237,-0.0248925443738698
0.88125244140625,0.6100105512082576,0.1760524402156472,-2.3912784661859274,0.1440048664808273,-0.309687852859497,0.0040376409888267
0.891232421875,0.915865429379046,0.7542278834849595,-2.492334702128172,0.2004819363355636,-0.4012919068336487,0.0133915981277823
0.901211181640625,1.27596276986897,0.9601835867941378,-2.619453015565872,0.1468245685100555,-0.4535878598690033,0.0119233978912234
0.911191162109375,1.4318649869814517,1.0700776475779712,-2.655959330186248,0.0197994373738765,-0.478971391916275,0.0207959841936826
0.921171142578125,1.817901655369997,1.2661799192622305,-3.1959611101448533,-0.1661006659269333,-0.4593329727649688,0.0421103276312351
0.931150146484375,1.8579168548941607,1.3670846179045737,-3.606929682955146,-0.3248317539691925,-0.4286827445030212,0.0992572382092475
0.941130126953125,1.83433578055948,1.5350487364716827,-4.01949926122129,-0.4283322989940643,-0.3895625174045563,0.1925991773605346
0.951109130859375,2.195935050044953,1.894472415483743,-4.852444123068452,-0.5079692602157593,-0.3465381562709808,0.2837961912155151
0.96108935546875,2.824276499974728,2.229405504100769,-6.143401632973552,-0.6115121841430664,-0.3666253387928009,0.3786042034626007
0.9710693359375,3.434303125534952,2.256583433883637,-7.543455477413534,-0.7924627065658569,-0.4285981655120849,0.5043301582336426
0.98104833984375,3.907160876025259,2.080025674494356,-8.91047740534544,-1.0112085342407229,-0.4531037807464599,0.6309762597084045
0.9910283203125,4.275765932619572,2.0382145314641296,-9.973450335484742,-1.1630183458328247,-0.4533904790878296,0.7259183526039124
1.00100830078125,4.590751919490098,2.2067042813405395,-10.71391915820837,-1.1551110744476318,-0.4887103736400604,0.77786785364151
1.0109873046875,4.655813005204498,2.647836814007163,-11.063061097180842,-0.9948461055755616,-0.4431130886077881,0.8005647659301758
1.02096728515625,4.771279751554132,3.2392642452985045,-11.317127043664454,-0.727982223033905,-0.4228190183639526,0.782853901386261
1.030947021484375,4.861850249317288,3.4584003326982256,-11.438445730912685,-0.4286003112792969,-0.3947528898715973,0.736968457698822
1.04092626953125,4.569404011034965,3.240151841787993,-11.251498094934224,-0.1813526898622512,-0.3848872184753418,0.667694091796875
1.05090625,4.302287736581266,2.884149661657214,-11.47103633339405,-0.0238358955830335,-0.3841374218463897,0.5823421478271484
1.06088525390625,3.8796325253695247,2.565423611475527,-11.558155813920497,0.0954942256212234,-0.4076994657516479,0.4994602799415588
1.070865478515625,3.469239122098684,2.469280574277043,-11.152432156026364,0.2292683571577072,-0.4443724751472473,0.4090217649936676
1.080845458984375,3.1275521753072737,2.58321908814609,-10.613605849587916,0.3382196128368377,-0.4740840196609497,0.2886300981044769
1.09082421875,3.2037101168364286,2.6560300573349,-10.024541055774687,0.4012066125869751,-0.476416528224945,0.1144624203443527
1.100804443359375,3.3110482095271347,2.5462822731539605,-9.397439084511994,0.4206761717796325,-0.3882312774658203,-0.084574781358242
1.110784423828125,3.4558138233363627,2.4888866075009104,-8.736082961469888,0.3767096400260925,-0.2893787622451782,-0.3080165386199951
1.12076318359375,3.642850598903,2.121277868467569,-7.956405579429864,0.3040439784526825,-0.1519031971693039,-0.5289443731307983
1.130743408203125,3.4864521227061744,1.3394384860880673,-6.716065327084064,0.2346419543027877,-0.0400680191814899,-0.7250385284423828
1.14072216796875,3.0484602261528373,0.4875808339782059,-5.059862884667515,0.2122591435909271,0.0781454369425773,-0.8803575038909912
1.1507021484375,2.3319798895210027,-0.3536336974337696,-3.1636843959182497,0.2575375437736511,0.15708889067173,-0.993626832962036
1.160682373046875,1.6181402766562998,-1.0688764550946652,-1.2758330060094594,0.3448442220687866,0.1622881889343261,-1.0846158266067505
1.1706611328125,0.8731045844085514,-1.6648684178225694,0.5757125602871179,0.4597457647323608,0.1169201731681823,-1.142561674118042
1.18064111328125,0.1486314954571425,-2.2676718141309915,2.5944144358992576,0.6048435568809509,0.0158215165138244,-1.1734520196914673
1.190620361328125,-0.4606948728792369,-2.7127824566483496,4.700200720724463,0.7655637264251709,-0.141696348786354,-1.1771782636642456
1.200599365234375,-0.9367883904203772,-2.8791543375879525,6.617405630889534,0.912832260131836,-0.3399953246116638,-1.1690330505371094
1.21057958984375,-1.2434043160915371,-2.824182391950488,8.214331708472967,1.0150771141052246,-0.5678823590278625,-1.1560466289520264
1.220558349609375,-1.6163693214610215,-2.655834242501854,9.384544531625508,1.0086967945098877,-0.5205894112586975,-1.0620077848434448
1.230538330078125,-1.9055507127285003,-2.364538489428908,9.96312417178154,0.8671082854270935,-0.2814285159111023,-0.8850701451301575
1.240518310546875,-1.7140972897633908,-2.281760545238108,10.369558608293532,0.6463186740875244,-0.111556127667427,-0.7068641781806946
1.250497314453125,-1.6726329143442211,-2.445376843859256,11.165483360779286,0.4017020165920257,0.0665248706936836,-0.5239813327789307
1.260477294921875,-1.63579678324759,-2.7110946496918795,11.76716213697195,0.1567985117435455,0.2037727385759353,-0.3379579186439514
1.27045703125,-1.638557626263052,-2.9146885923057795,11.812584163975714,-0.1020793616771698,0.302225798368454,-0.1656339466571808
1.280436279296875,-1.7765875020764768,-2.946884350250661,11.655976721203327,-0.3525507152080536,0.3610022962093353,-0.0199462547898292
1.290416259765625,-2.047325766419619,-2.916657262030244,11.300279953759908,-0.5602468252182007,0.3693906962871551,0.1192035153508186
1.300395263671875,-2.2698520807795224,-2.897134230914712,10.861506259179114,-0.700837254524231,0.3555710315704345,0.2452480047941208
1.310375244140625,-2.333640077818185,-3.0315657899752257,10.414033709836003,-0.7703650593757629,0.3193033039569855,0.3560482859611511
1.32035546875,-2.3882567802771923,-3.282209653055668,10.044169300830363,-0.7802006602287292,0.2916242778301239,0.4558132290840149
1.33033447265625,-2.445766281568259,-3.5161885048002004,9.662602179071309,-0.7495214939117432,0.2344901859760284,0.5436480045318604
1.340314453125,-2.5841379565566776,-3.71330097644031,9.157167854624984,-0.7005031108856201,0.1375418007373809,0.6248677968978882
1.35029443359375,-2.7995442097783085,-3.8461750769257534,8.728186655262112,-0.6303359866142273,0.0429825372993946,0.7128458023071289
1.3602734375,-2.964214255236089,-3.913848390965164,8.349103751534223,-0.570737898349762,-0.0254620350897312,0.8065472841262817
1.37025341796875,-2.906859506115317,-3.976865988153219,8.025308435264229,-0.4820641875267029,-0.1341590881347656,0.8783805966377258
1.3802333984375,-2.7643220897495744,-4.035950045284628,8.05123081202805,-0.3770413696765899,-0.2240498214960098,0.9282512068748474
1.39021240234375,-2.536504683244228,-4.070787842170894,8.058041076564788,-0.2829447984695434,-0.260587215423584,0.9576622247695924
1.4001923828125,-2.4555364188238977,-4.182814677199721,7.899926151838899,-0.2043245434761047,-0.2661257982254028,0.9848024845123292
1.410171142578125,-2.504818336126208,-4.193357990784943,7.800249387556314,-0.1261058896780014,-0.2681399285793304,1.01124107837677
1.4201513671875,-2.5204613109380007,-4.104887387910485,7.799521657803655,-0.0439207330346107,-0.2101554572582245,1.012229084968567
1.430131591796875,-2.416026392342895,-3.967355817008018,7.834707537475228,0.0535587482154369,-0.1058771163225174,0.9760921001434326
1.440110107421875,-2.213620636600256,-3.8894016397118567,7.987830060741305,0.1764553785324096,-0.0408467166125774,0.899698793888092
1.45009033203125,-2.190640743029117,-3.875300049123168,8.22111333143711,0.3192718029022217,0.0125017603859305,0.7565944790840149
1.460070556640625,-2.260591354350745,-3.74562152980864,8.346753389015793,0.4592059850692749,0.0470272451639175,0.5783371329307556
1.47004931640625,-2.425675241306424,-3.4619866667523977,8.255717611828446,0.5887622833251953,0.0895726159214973,0.4079491794109344
1.480029296875,-2.580228674158454,-3.093091395039856,7.980380329257249,0.6655036807060242,0.1358117461204528,0.2656077444553375
1.49000830078125,-2.5043816982746123,-2.709954247485101,7.418634919524193,0.6904481053352356,0.1571662425994873,0.1672021895647049
1.49998828125,-2.2508733856737613,-2.5122943710953,6.587510843363404,0.68556147813797,0.1545118689537048,0.1205263063311576
1.50996826171875,-1.9639280828952788,-2.3845897822022435,5.30569934746623,0.7022386193275452,0.1774061620235443,0.1499984413385391
1.519947265625,-1.5867400530032814,-1.8241726984634996,3.435236899253726,0.7170751094818115,0.2060375362634658,0.2251664251089096
1.52992724609375,-1.0253481328830123,-0.5823525828234851,0.9855272868871688,0.682250440120697,0.3456230461597442,0.3196652233600616
1.5399072265625,-0.5820866253636777,0.9754727797321976,-1.8066975397884848,0.5600757598876953,0.5425443053245544,0.4320746064186096
1.54988623046875,-0.5945889640621841,2.641051976172626,-5.09855414211154,0.3556989133358001,0.6237562894821167,0.5940696597099304
1.559866455078125,-0.6777709590092301,4.240490621098876,-8.564130065527557,0.162492424249649,0.4634484052658081,0.7618972659111023
1.569846435546875,-0.3735945354446768,5.678643017786741,-11.25592760181427,0.0284693371504545,0.1028229668736457,0.8889502882957458
1.579825439453125,0.3142494892895222,6.978973920714855,-13.757267448174952,-0.0951383560895919,-0.3849693238735199,0.965670883655548
1.589805419921875,1.3586995052665471,7.990835672298073,-16.07448406832814,-0.2719515860080719,-0.786852240562439,1.0057556629180908
1.5997841796875,2.5913115014478563,8.579830908006429,-18.04398264483213,-0.5470707416534424,-0.9458967447280884,0.9947631359100342
1.609764404296875,4.290983960017561,8.281404426270722,-19.21696376365423,-0.8925238251686096,-0.9560263752937316,0.8529302477836609
1.619744384765625,5.738595089924335,7.22838941104412,-19.62214030905962,-1.243457317352295,-0.7835177183151245,0.6103775501251221
1.62972314453125,6.88686963751316,6.802877349096536,-20.510426534378528,-1.5374407768249512,-0.5612974166870117,0.2818931043148041
1.639703369140625,7.514445656028389,6.730179777154326,-21.270288624358177,-1.6114691495895386,-0.4015892446041107,-0.0868202224373817
1.649683349609375,7.496571561163663,6.175422911134362,-20.78731922969818,-1.4090051651000977,-0.2300708591938018,-0.433743417263031
1.659662109375,7.423942962804436,5.531590754345059,-19.428824891614912,-1.0256692171096802,-0.022356541827321,-0.7375627160072327
1.669642333984375,6.97407854988873,5.033751707333326,-17.659703926026822,-0.5951027274131775,0.2374149709939956,-0.9784144759178162
1.67962109375,6.27326427668333,4.231992841866612,-15.789114636564252,-0.2939490377902984,0.4412368237972259,-1.1569167375564575
1.689601318359375,5.44264639647901,3.3177897927418347,-14.1109335865736,-0.1513232439756393,0.5883188247680664,-1.2780944108963013
1.69958154296875,4.404872205004096,2.8010744880855083,-12.244910582113263,-0.0803590640425682,0.6152375340461731,-1.328388214111328
1.709560302734375,3.2657401642918584,2.589969146928191,-10.32499232133627,0.0019707032479345,0.512519359588623,-1.2850207090377808
1.719540283203125,2.013234403986484,2.2742792495720088,-7.963819070556759,0.1322647929191589,0.3203360736370086,-1.1459490060806274
1.7295205078125,0.8604780348084866,1.8089276369281115,-5.132525385296344,0.3152566254138946,0.037083089351654,-0.9430771470069884
1.739499267578125,0.0218218095771968,1.3620586064361035,-2.266720943146944,0.4966197609901428,-0.3200604021549225,-0.7294772267341614
1.749479248046875,-0.3299215440653264,0.9590971067316828,0.0299427183210849,0.5865767598152161,-0.6324223279953003,-0.5545802116394043
1.759458251953125,-0.4055753354646265,0.3442531440176069,2.129590938782692,0.5917611718177795,-0.8170220255851746,-0.4259881675243377
1.769438232421875,-0.4421557382345199,-0.4501948139138519,4.208475772678852,0.5152772665023804,-0.8370593190193176,-0.3324940502643585
1.779418212890625,-0.4307058311983943,-1.1404584670104083,5.9787722117871045,0.3838065862655639,-0.7299930453300476,-0.2741191387176513
1.789397216796875,-0.3543951833255588,-1.7846600416339933,7.454090263786911,0.2273176610469818,-0.5601581931114197,-0.247748389840126
1.799377197265625,-0.4407287741713225,-2.397178484009951,8.71026989029944,0.0790813192725181,-0.3463964164257049,-0.2352288663387298
1.809357421875,-0.694972999831289,-2.874683914175629,9.842663562667369,-0.0255134031176567,-0.117335021495819,-0.2148792594671249
1.81933642578125,-1.0553136475577949,-3.1894667796894907,10.649524719709158,-0.0732644125819206,0.0835576057434082,-0.186478778719902
1.82931640625,-1.5188212397702037,-3.3678847799926994,11.05355677125454,-0.0805992111563682,0.2023656368255615,-0.1568997204303741
1.83929638671875,-2.0136359705246982,-3.4021611436039207,11.1847749212265,-0.0649046748876571,0.254931628704071,-0.1268531382083892
1.849275390625,-2.4211707694940268,-3.422850880411267,11.12530215703845,-0.0545275248587131,0.2516106963157654,-0.0961696505546569
1.85925537109375,-2.629895499125123,-3.463262678037584,10.913927351289988,-0.0579004175961017,0.223911702632904,-0.0986458584666252
1.869234130859375,-2.5902052937716245,-3.466267997333407,10.693921495318412,-0.0664186999201774,0.2057313323020935,-0.1363484859466552
1.87921435546875,-2.4451471267566083,-3.5431688661843537,10.41991750717759,-0.087927721440792,0.2122941613197326,-0.1894436627626419
1.8891943359375,-2.2440895707525312,-3.729814888867736,10.161513239228723,-0.0968028604984283,0.2100181728601455,-0.2301399707794189
1.899173095703125,-2.103934957870096,-3.975715064552426,9.950790759909152,-0.1024104133248329,0.1979980021715164,-0.2494255155324936
1.9091533203125,-2.1446455923125147,-4.267064739769697,9.619342298537491,-0.0914010927081108,0.1842623800039291,-0.2211013287305832
1.919133544921875,-2.3137917602710423,-4.465480402962863,9.481939906972649,-0.0481324456632137,0.1863145977258682,-0.1549233794212341
1.9291123046875,-2.4024488256283103,-4.486372092083096,9.466876193353531,0.0496955066919326,0.1249576807022094,-0.0728891044855117
1.93909228515625,-2.578039055159688,-4.3188218150138855,9.340112100180985,0.1744193285703659,0.0220936145633459,0.0162338484078645
1.949072509765625,-2.7535084347903727,-4.0952743409127,9.08746537284553,0.2867641448974609,-0.1023201644420623,0.1104310601949691
1.95905126953125,-2.8026088580459354,-3.8689392819195993,8.841083551123738,0.3528843224048614,-0.2010786980390548,0.1911498755216598
1.96903125,-2.691572203098237,-3.64703840598166,8.528587627503276,0.3587718904018402,-0.2572258412837982,0.2533629238605499
1.97901025390625,-2.4334448523946106,-3.483130284807086,8.299840246671438,0.3335927724838257,-0.3203571438789367,0.2798035740852356
1.988990234375,-2.127869814078509,-3.4582290677845475,8.336732345739007,0.3101977407932281,-0.3491948843002319,0.2493372857570648
1.99897021484375,-1.7358680998057123,-3.454992570081353,8.360321311119199,0.3144079148769378,-0.3653938174247741,0.1807893812656402
2.00894921875,-1.4979937019273637,-3.3588550858408213,8.136002852645516,0.3270647227764129,-0.3134025037288666,0.1039053797721862
2.01892919921875,-1.3442172447971998,-3.173728527809679,7.738486466604471,0.3330217003822326,-0.1890608370304107,0.0231918934732675
2.0289091796875,-1.0249982965320348,-3.102426501879096,7.360494280722737,0.3558586537837982,-0.0796841382980346,-0.1124872416257858
2.03888818359375,-0.6500374411702156,-3.1342557645991445,7.209454993471502,0.4472649991512298,0.016156367957592,-0.3007418513298034
2.048868408203125,-0.3157159085802734,-3.0770667274340986,6.995496016448736,0.6058293581008911,0.1622776389122009,-0.5141228437423706
2.05884765625,0.0173494864687323,-2.721030645033717,6.365003233703971,0.8001940846443176,0.3541871607303619,-0.7232411503791809
2.068827392578125,0.3936706703983247,-1.9256329851619896,5.069826060277223,0.9483734369277954,0.5502245426177979,-0.9356809854507446
2.078807373046875,0.9789683667629956,-0.7190529635988175,2.9480642076849937,0.9498913884162904,0.7835102677345276,-1.1325559616088867
2.0887861328125,1.4315052137583493,0.7762484305046499,-0.3275497003674507,0.7214370965957642,1.1357158422470093,-1.2089300155639648
2.098766357421875,1.0146288782089947,2.4307021295577287,-5.00769138340354,0.2397609949111938,1.4780126810073853,-1.0258357524871826
2.108746337890625,0.1476332782000303,4.446004133598506,-10.38590300937295,-0.3586725294589996,1.542485237121582,-0.6019980907440186
2.11872509765625,-0.5526056793354451,6.426053037950396,-14.337723403596875,-0.7926735281944275,1.223151445388794,-0.0839032605290412
2.128705322265625,-0.4121735646858811,7.538455477169156,-16.05499844661355,-0.8317569494247437,0.4313524961471557,0.2644385993480682
2.138685302734375,0.6136550451904534,7.4459846987426275,-16.39321333338022,-0.5123614072799683,-0.3981404304504394,0.4036700129508972
2.1486640625,1.957893917297572,7.221774961340427,-16.650929034543037,-0.04004992172122,-0.904232382774353,0.4155997633934021
2.158644287109375,3.608060732811689,7.674897499269247,-17.180985174548624,0.373607188463211,-1.1834487915039062,0.2456599920988083
2.168623046875,5.361590161514282,7.820597763580083,-17.33163166308999,0.539205014705658,-1.2265528440475464,-0.0556898675858974
2.178603271484375,6.504174388507008,7.099317040929198,-17.617326089024544,0.3478366136550903,-0.9545996189117432,-0.2598829567432403
2.18858349609375,6.544509321504831,6.360999258759618,-19.04354196420312,-0.1165487319231033,-0.5119516849517822,-0.2062984257936477
2.198562255859375,5.779110640186072,5.48108572498858,-20.04125185631513,-0.5775224566459656,-0.2817097008228302,0.0585683956742286
2.208542236328125,4.524463630068302,4.130516334685683,-19.249612818324565,-0.7924306988716125,-0.2762356996536255,0.4230296909809112
2.2185224609375,3.456182656648755,3.3956881481975314,-17.777594976913928,-0.7399120926856995,-0.3788470327854156,0.7406390905380249
2.228501220703125,2.8079095948025583,3.309076032671332,-16.12661289949417,-0.503655195236206,-0.5445777177810669,0.9324815273284912
2.238481201171875,2.09256586098522,3.2053046925514934,-14.591560217499731,-0.2174080163240432,-0.6719870567321777,0.9977835416793824
2.24846142578125,1.506536781606078,2.956223841004073,-12.834998289233445,0.0325520932674407,-0.7859688997268677,0.9384151697158812
2.258440185546875,1.1319527967326342,2.6855793924242257,-10.913479607522486,0.2004337608814239,-0.9193967580795288,0.7560427188873291
2.268420166015625,0.9859636324778198,2.502496615180373,-8.706044966080784,0.3185979723930359,-0.9900901913642884,0.4748890399932861
2.2783994140625,0.9616511751286684,2.105400792638957,-6.104376613530516,0.39420086145401,-0.931691586971283,0.1359296143054962
2.28837939453125,1.0580419034779072,1.3699715715177356,-3.337107364413142,0.466431200504303,-0.775780200958252,-0.2345296591520309
2.298359375,1.252539516444504,0.3661813365787267,-0.3322691301047801,0.5647518634796143,-0.5781489014625549,-0.6171138286590576
2.30833837890625,1.2202832604840397,-0.6794776167966425,2.7226562004089354,0.6933611035346985,-0.3265911340713501,-0.972900688648224
2.318318359375,0.9403019514992832,-1.510275237482041,5.437552872732281,0.8199917674064636,-0.0769993960857391,-1.2608187198638916
2.32829833984375,0.4233200317960232,-2.081991275478899,7.631859737053513,0.9183066487312316,0.0899309515953064,-1.4406208992004397
2.33827734375,-0.2790884517982602,-2.451450756945461,9.37426629871726,0.9557896256446838,0.1836968511343002,-1.4762827157974243
2.34825732421875,-1.12014362793006,-2.6511083830237387,10.75286000649929,0.9197090268135072,0.2060286998748779,-1.3610601425170898
2.3582373046875,-1.7678706732660532,-2.6037013196825978,11.754466321527955,0.8015991449356079,0.1411629021167755,-1.1474363803863523
2.36821630859375,-2.2696936753474173,-2.417508301463723,12.309109790301322,0.6103397607803345,0.0417171493172645,-0.8774528503417969
2.3781962890625,-2.66240777567327,-2.2184992024220525,12.611660658490656,0.3749107420444488,-0.0869196578860282,-0.5761025547981262
2.388175048828125,-2.867618213573098,-2.0520354054152965,12.724651077854633,0.1493229418992996,-0.2094468921422958,-0.3032377660274505
2.3981552734375,-2.912700633358955,-1.83180012460202,12.760045047318934,-0.0419956184923648,-0.2561771273612976,-0.0753715559840202
2.408135498046875,-2.6852789481729267,-1.5952521530218422,12.593720512652396,-0.1804066002368927,-0.2737376689910888,0.0808135122060775
2.4181142578125,-2.2957839560240507,-1.6187942105203863,12.269444134867191,-0.2938567399978637,-0.2761992514133453,0.1550941467285156
2.42809423828125,-1.9851218237020076,-1.9146888356909155,11.880734740138053,-0.3920425176620483,-0.2435449957847595,0.1789083778858184
2.438074462890625,-1.7726362802326678,-2.2708562893860043,11.42114972819686,-0.4541802108287811,-0.1925840824842453,0.1760593205690384
2.44805322265625,-1.6251242903247474,-2.587371239389479,10.78596265015602,-0.4818770587444305,-0.1331863850355148,0.1387443244457245
2.458033203125,-1.5373668041557074,-2.8742914077267048,10.190983663862944,-0.4617025554180145,-0.0575973540544509,0.0833236798644065
2.468013427734375,-1.598008758253604,-3.102715255692601,9.723288995224236,-0.3992616534233093,0.0685396417975425,0.0342052653431892
2.4779921875,-1.6567478013396262,-3.2125264604985717,9.246095261356237,-0.301330029964447,0.1656006723642349,-0.0161670986562967
2.48797216796875,-1.6234829528585075,-3.394138872928917,8.886258909890055,-0.1596525311470031,0.1712505668401718,-0.0885621979832649
2.497951416015625,-1.6772161504812535,-3.701330552661419,8.80862797319889,0.0218243245035409,0.1299744993448257,-0.1692328155040741
2.50793115234375,-1.79233612921983,-3.9695974584549663,8.79277690859437,0.2209631353616714,0.0536364242434501,-0.2285186499357223
2.517911376953125,-1.7954758885502815,-4.144413927134871,8.94068841921389,0.4418742060661316,-0.0057075908407568,-0.2578467130661011
2.52789013671875,-1.5671737672679125,-4.286488986685872,9.306023368096351,0.6427706480026245,-0.0172812640666961,-0.2649602890014648
2.537870361328125,-1.3532127444185316,-4.323163351349533,9.34584275278747,0.7850625514984131,0.0308620296418666,-0.247207909822464
2.547850341796875,-1.1086913097411393,-4.202680530403554,9.047509210032224,0.8418021202087402,0.1260462403297424,-0.2096613198518753
2.557829345703125,-0.7321061411131173,-4.136365937496722,8.65996944360435,0.8355197310447693,0.1482609808444976,-0.1882902532815933
2.567809326171875,-0.4889161742351949,-4.227153877402841,8.30235369079709,0.7933409810066223,0.1682005226612091,-0.1694637238979339
2.577789306640625,-0.2643596692219376,-4.334844144532084,7.753862899434566,0.7132323384284973,0.2254078835248947,-0.1395596116781234
2.587768310546875,0.0981470704972743,-4.360234898637235,6.695047088974714,0.6260555386543274,0.2971711158752441,-0.1119580864906311
2.597748291015625,0.5314142035510391,-4.400089354641735,5.6697144459217785,0.5872311592102051,0.4032996892929077,-0.0968973785638809
2.60772705078125,0.9510760051004588,-4.38162635397315,4.224641310060024,0.5784956216812134,0.5183025598526001,-0.0873966738581657
2.617707275390625,1.3109130872189998,-4.029707936024666,2.135547801360488,0.590259850025177,0.6407738924026489,-0.0768958255648613
2.627687255859375,1.913652478380501,-3.324753494274616,-0.2119675109446048,0.6539820432662964,0.7605971097946167,-0.0658716633915901
2.637666015625,2.200887265624851,-2.106242504160106,-2.895585832428932,0.7366518974304199,0.9455475211143494,0.0388030782341957
2.647646484375,2.077634833835065,0.0147841294927522,-6.064287179726362,0.7792221903800964,1.0098261833190918,0.328107476234436
2.65762646484375,1.6297222856394946,2.406484072493761,-9.50938671682477,0.6722928285598755,0.8189562559127808,0.8517506718635559
2.667605224609375,0.7594502943083643,4.228120676608383,-12.688808195579051,0.3251273930072784,0.3457511365413666,1.5336978435516355
2.67758544921875,0.2300562714733183,5.176446360087394,-15.716545074915883,-0.2789355814456939,-0.2750138640403747,2.200971841812134
2.6875654296875,0.2057828309603035,5.8423845502227545,-18.962231462216376,-1.009941816329956,-0.922053039073944,2.6638920307159424
2.697544189453125,0.8236344510577619,6.265567876961827,-21.003706895172595,-1.498745083808899,-1.494636058807373,2.7381112575531006
2.7075244140625,2.380840074279904,5.877973749998212,-20.321092880046365,-1.4636417627334597,-1.7820707559585571,2.3367760181427
2.71750439453125,4.537377179916203,5.015464355492592,-18.73356065375209,-1.0308184623718262,-1.565108060836792,1.5400841236114502
2.727483154296875,6.328995516255498,4.39269632178098,-17.93539484434128,-0.4976444840431213,-0.9249320030212402,0.541492223739624
2.73746337890625,6.960864263528585,3.921474940320849,-17.915464985990525,-0.0904298350214958,-0.150061547756195,-0.3780539333820343
2.747442138671875,6.2284565821856255,3.6376211738169193,-17.731603625589607,0.1152466312050819,0.5195817351341248,-0.9804353713989258
2.757422119140625,4.8151934198215605,3.820453191170096,-17.071340558481214,0.1804234981536865,0.8937937021255493,-1.2092409133911133
2.76740234375,3.127879799826443,4.262664458984136,-16.193896045172213,0.0993653535842895,1.0325250625610352,-1.055717945098877
2.77738134765625,1.4432773384861648,4.599244438025355,-15.387288570630547,-0.1063249558210372,0.8619791269302368,-0.6420640349388123
2.787361328125,0.1819870909616351,4.318735598035157,-13.990047445523738,-0.3793919384479522,0.4133376181125641,-0.1394279301166534
2.79734130859375,-0.6009342414356768,3.7629838757589456,-12.128081022977828,-0.646644115447998,-0.0853371694684028,0.3254995346069336
2.8073203125,-0.6160562611132859,3.421099945090711,-10.284366880959272,-0.8549211621284485,-0.4508636593818664,0.6482385993003845
2.81730029296875,-0.2040088070251047,3.206115132151544,-8.58242092449963,-0.9826151728630066,-0.6260219216346741,0.8045538663864136
2.8272802734375,0.290473623035103,3.011732669997215,-6.9163517525851725,-1.019963264465332,-0.6613824367523193,0.7917940020561218
2.83725927734375,0.7177681114200503,2.697194426894188,-5.116212548398972,-0.9947950839996338,-0.6201444268226624,0.6330767869949341
2.8472392578125,0.8907201744675636,2.041828776438534,-3.1729923224896197,-0.9211827516555786,-0.5134044885635376,0.4081152975559234
2.85721923828125,0.8121898777838796,1.1498566291484982,-1.0373884070277213,-0.8048606514930725,-0.3598567247390747,0.1875424534082412
2.8671982421875,0.5526872201390564,0.3122062199588865,1.1696212870001792,-0.6346921324729919,-0.2084636837244033,0.0022846153005957
2.877178466796875,0.2160671282831579,-0.2437223201889544,3.19678879314065,-0.4486348927021026,-0.0875620320439338,-0.14523746073246
2.8871572265625,-0.2044058435186743,-0.5626791834518313,4.873548870417475,-0.2951442003250122,-0.0004450641572475,-0.2398498654365539
2.897137451171875,-0.7493481486193835,-0.8633328397177159,6.127005793967843,-0.2348241508007049,0.0335927978157997,-0.2753588557243347
2.907117431640625,-1.3034092874601482,-1.2478903754644095,7.243689271506667,-0.2646748125553131,-0.0055374475196003,-0.2529056072235107
2.91709619140625,-1.828741029292345,-1.7982457916550336,8.320283899763226,-0.3658040761947632,-0.1197260692715644,-0.1737644523382187
2.927076416015625,-2.1974989383608103,-2.492669048649073,9.509577270960808,-0.4900963902473449,-0.2445572614669799,-0.0585001818835735
2.937056396484375,-2.2352774648740885,-3.253935160207748,10.773444529366492,-0.5847538709640503,-0.3446734845638275,0.0621383488178253
2.94703515625,-1.998715903159976,-4.023967346546054,11.765967374229431,-0.6471794247627258,-0.3955738544464111,0.1687919646501541
2.957015380859375,-1.6302140146791937,-4.620885191947221,12.290583953529596,-0.6628888845443726,-0.3854336142539978,0.2538045942783355
2.966995361328125,-1.2846598710656163,-4.946310155245661,12.367950101804732,-0.6147240996360779,-0.2592167556285858,0.3216321170330047
2.97697412109375,-0.9771975576981902,-5.02216239182651,12.3365308811903,-0.4737145006656647,-0.0830079168081283,0.3828720450401306
2.986954345703125,-0.9684695499066264,-4.909897364127636,12.405130370163915,-0.2501891851425171,0.0981174856424331,0.4482194483280182
2.9969345703125,-1.2119712861474603,-4.6082019437238575,12.494708349758383,-0.0099060153588652,0.2112024873495102,0.5078175067901611
3.006913330078125,-1.487372062408924,-4.156088582837581,12.219114462077616,0.1720923483371734,0.2142118066549301,0.5540661215782166
3.0168935546875,-1.8449553742513056,-3.774159642028808,11.903444584596157,0.2613543272018432,0.1726651638746261,0.6215311884880066
3.026872314453125,-2.25469908144176,-3.418752212920785,11.741716730070111,0.2628592550754547,0.092784583568573,0.6878852844238281
3.036852294921875,-2.346771362069994,-3.047118456155061,11.49693883641362,0.1929680556058883,-0.0375268161296844,0.7216776013374329
3.04683251953125,-2.256602576975524,-2.809694432392716,11.193899307924507,0.068651333451271,-0.1533224284648895,0.7024741172790527
3.056811279296875,-2.083171863565594,-2.7606623981982468,10.86371458287835,-0.0788161531090736,-0.2216618061065673,0.642156183719635
3.066791259765625,-1.8160823309883476,-2.80636791831851,10.532200655055046,-0.1876264363527298,-0.2523932456970215,0.5435798168182373
3.076771240234375,-1.5739283560946582,-2.886240496456623,10.222967532622814,-0.2150546014308929,-0.2662491500377655,0.4067835807800293
3.086750244140625,-1.4101932533994317,-2.964703207796812,9.840821149671076,-0.1692736893892288,-0.2210768461227417,0.2367888540029525
3.096730224609375,-1.2166630241602658,-2.94011617128998,9.325214975300431,-0.0867162346839904,-0.1238395124673843,0.0477744564414024
3.10671044921875,-0.9660578125897794,-2.922555672419071,8.716353594127296,0.0068792020902037,-0.0184343382716178,-0.1668490320444107
3.116689208984375,-0.7928940064877271,-2.9376778382271524,8.070876008218526,0.1078654676675796,0.0335162132978439,-0.3977932631969452
3.12666943359375,-0.5610332428757101,-2.8839842419624326,7.495314839100837,0.219991385936737,0.0423534922301769,-0.6304370164871216
3.136649169921875,-0.2948931199777871,-2.7328485085994005,6.823733674642443,0.3188663125038147,0.1429605334997177,-0.8296369314193726
3.14662841796875,0.1260104983262717,-2.4403093313366173,5.811476201739907,0.3923554122447967,0.3204224109649658,-1.0206202268600464
3.1566083984375,0.8584224905181675,-2.1810009541548787,4.750659572851657,0.4591474831104278,0.5544982552528381,-1.2220873832702637
3.16658740234375,1.7462665980927643,-2.005008719693869,3.566428161218762,0.5183839797973633,0.8379050493240356,-1.4073659181594849
3.1765673828125,2.348447916980088,-1.7905705808520316,1.4950760609149931,0.5232951045036316,1.1927305459976196,-1.5058834552764893
3.186548095703125,2.415519757995009,-1.3849461455486711,-1.341581197205186,0.4823558628559112,1.4918231964111328,-1.482019066810608
3.19652685546875,2.163625602592528,-0.8624301917895674,-4.46928184107244,0.4119711816310882,1.6167442798614502,-1.333707571029663
3.206507080078125,1.318088239545375,0.1201046352833509,-7.819525750434398,0.323203831911087,1.4827710390090942,-1.0521965026855469
3.216487060546875,0.2575416597701609,1.736418573295325,-11.318934385347363,0.2322909832000732,1.0325995683670044,-0.6867227554321289
3.2264658203125,-0.4839278644286096,3.518131455561518,-14.16527892474532,0.2353682816028595,0.2450486123561859,-0.3155632615089416
3.236446044921875,-0.5360432515911757,5.256688356059789,-15.861282047152518,0.3390246331691742,-0.5978477001190186,-0.0033033681102097
3.246426025390625,0.6083320966020226,6.991770273923874,-16.958400407999754,0.4422566592693329,-1.2374415397644043,0.1783931702375412
3.25640478515625,2.829070748513937,7.980071701699495,-17.76112315006256,0.3815887570381164,-1.5270843505859375,0.173378437757492
3.266385009765625,5.460279668325185,7.692432571437955,-18.247597337973115,0.1047746017575264,-1.4554849863052368,-0.0838060826063156
3.27636474609375,7.857649437123537,6.692981388616562,-18.39666795549989,-0.3205210268497467,-0.9957422018051147,-0.52178955078125
3.28634375,9.421183532714844,5.651749750164151,-18.59987348331809,-0.7537282109260559,-0.2287437170743942,-0.9675506353378296
3.296323974609375,9.742445531114935,4.75149427011013,-18.87926910136938,-1.0765941143035889,0.5840410590171814,-1.2838735580444336
3.306303955078125,8.86940714381039,4.244646571734547,-19.3431374897182,-1.230152249336243,1.162507176399231,-1.404200553894043
3.316282958984375,7.0256690363943575,3.6289702498495577,-19.28642249980569,-1.1498645544052124,1.440940499305725,-1.2949525117874146
3.326262939453125,4.572243033853173,2.785938293752074,-17.47934151365757,-0.849990963935852,1.4058574438095093,-0.9749081134796144
3.336241943359375,2.3158393404506143,2.6619647080808875,-14.939028085780144,-0.5051512718200684,1.0657262802124023,-0.5439642071723938
3.346221923828125,0.6150292561531067,2.9362475131630896,-12.483096237897872,-0.2820183336734772,0.5744591355323792,-0.104335717856884
3.356201904296875,-0.3616944004230201,2.8076982901394367,-9.867803849142788,-0.2067872434854507,0.1291482746601104,0.2861849069595337
3.366180908203125,-0.7389661630757153,2.328163546103239,-7.088745962554216,-0.2378172427415847,-0.1898964047431945,0.5839899778366089
3.376160888671875,-0.8523083184868097,1.659942067336291,-4.234988516551256,-0.3134446144104004,-0.361200749874115,0.7825357913970947
3.386140625,-0.9879166662417352,0.990127035767585,-1.4480582891523837,-0.3953101933002472,-0.3898158967494964,0.8813818097114563
3.396119873046875,-1.092454314558953,0.3006424042195081,1.081520394220948,-0.4655505120754242,-0.3498847186565399,0.8780544400215149
3.406099853515625,-1.2273106749027969,-0.5297169711790979,3.2930221389710903,-0.5221337080001831,-0.2817522287368774,0.8027056455612183
3.416079833984375,-1.4828559001587331,-1.5443516946069895,5.157258260014653,-0.5521536469459534,-0.2034100294113159,0.6898137331008911
3.42605908203125,-1.7818934995301068,-2.448436377560347,6.669128803864121,-0.529504120349884,-0.1093305051326751,0.5704953074455261
3.4360390625,-2.1782588158398863,-3.0522067192047837,7.859174454733729,-0.4433865547180176,-0.0132630914449691,0.4862771332263946
3.446018798828125,-2.797427071493864,-3.4145150137424465,9.02086611777842,-0.2651789784431457,0.0645178705453872,0.4712908267974853
3.455998046875,-3.7495468865588304,-3.5463895817965265,10.342454328268763,0.0008071630727499,0.0668630450963974,0.5502423048019409
3.46597802734375,-4.784214344190061,-3.3161604379743337,11.465986064267158,0.2895462214946747,-0.0322116874158382,0.7039397358894348
3.475956787109375,-5.665531022757292,-2.711431626561284,12.073272743469476,0.5056361556053162,-0.1975471079349517,0.9250271320343018
3.48593701171875,-6.118150287339091,-1.9768192747808992,12.084496732795238,0.5685504078865051,-0.4439407885074615,1.1534404754638672
3.495916748046875,-6.025173312956095,-1.4600748901605605,11.855292840367555,0.4482173323631286,-0.7340804934501648,1.3295385837554932
3.505895751953125,-5.510559656754136,-1.2970507122136652,11.51557222521305,0.151217371225357,-0.9736339449882508,1.4228794574737549
3.5158759765625,-4.796227438066899,-1.420277278909832,10.913163965702056,-0.2903001308441162,-1.1282069683074951,1.4425662755966189
3.52585595703125,-3.978602310426533,-1.6924631117127835,10.158440992176532,-0.771075963973999,-1.215690851211548,1.3687405586242676
3.535834716796875,-3.011046149037778,-2.072774826583266,9.605440029913186,-1.1628735065460205,-1.2078152894973757,1.1931405067443848
3.545815185546875,-2.202184173567593,-2.4832658450096843,9.239615836209058,-1.38361656665802,-1.0817736387252808,0.9532474279403688
3.555794921875,-1.519752237010002,-2.917994063591957,8.94186447725594,-1.4189563989639282,-0.8751481771469116,0.6633498668670654
3.56577392578125,-0.8792534624271094,-3.4533915646255013,8.456803663274645,-1.304964900016785,-0.6334574818611145,0.3366362452507019
3.575754150390625,-0.5600657130178064,-4.124807309389114,7.822846419289708,-1.060705065727234,-0.3460869789123535,0.0091015035286545
3.58573388671875,-0.560831509758532,-4.708261277583241,7.243877487555146,-0.7261443734169006,-0.0953836813569068,-0.2909896373748779
3.595712890625,-0.7827951487343758,-4.977199214506149,6.751440591847897,-0.338645339012146,0.0659349039196968,-0.5432463884353638
3.60569287109375,-1.099380752821267,-4.901672848878801,6.446345299872756,0.0477748923003673,0.1104507967829704,-0.746380090713501
3.6156728515625,-1.2457378736056386,-4.728464399917423,6.121736329132318,0.3890784382820129,0.0257441624999046,-0.934287965297699
3.62565185546875,-1.0556749551508575,-4.758187338007986,6.128059102413058,0.6533799171447754,-0.0779693126678466,-1.089895486831665
3.635631591796875,-0.6385184874858707,-4.947288644888997,6.243748259341716,0.8488916158676147,-0.1016567945480346,-1.2295467853546145
3.64561083984375,-0.0924481282033026,-4.876865739880502,6.298989669570326,1.0064003467559814,-0.0302063673734664,-1.3477938175201416
3.655591064453125,0.3915191914528608,-4.478091754993796,6.405147028043865,1.1579169034957886,0.0854038521647453,-1.4478530883789062
3.66557080078125,0.7199800153158604,-4.0355777048408985,6.366630542644858,1.2978184223175049,0.2016200274229049,-1.5064482688903809
3.675550048828125,0.8687412015672773,-3.571993978652358,6.070928517436981,1.3872926235198977,0.3583177924156189,-1.512582302093506
3.685530029296875,0.9372861838746817,-3.093692283542454,5.391406623107194,1.415103554725647,0.5097643136978149,-1.4564239978790283
3.695509765625,0.9916084334317594,-2.729067236495018,4.118622483274341,1.3528112173080444,0.5898711681365967,-1.3394737243652344
3.705489013671875,1.0416898305486888,-2.3246103836663066,2.2404028450638056,1.1999235153198242,0.654637336730957,-1.1658517122268677
3.71546875,1.169124224198237,-1.6877461661934852,-0.2711351547062396,0.9948617219924928,0.719264566898346,-0.9545653462409972
3.72544873046875,1.2587079759463666,-0.7189455577015876,-3.4169238284498453,0.8135296106338501,0.8219341039657593,-0.6895376443862915
3.735427978515625,1.2179856510661542,0.7940883308388292,-6.804834328383207,0.747492790222168,0.8505764007568359,-0.3640280067920685
3.74540771484375,1.2497688826873898,3.0484219399690624,-10.09818613770008,0.8352192640304565,0.6784212589263916,-0.0014503571437671
3.7553876953125,1.4401431321136653,5.714129341709613,-12.870559431958196,1.006218433380127,0.2889358699321747,0.3970259130001068
3.765366943359375,1.8221550750307736,7.76487821444571,-15.002095659589768,1.0349067449569702,-0.1029174774885177,0.8324155807495117
3.775346923828125,2.13925483918488,8.171905940675735,-17.134242128074167,0.6665111184120178,-0.324305772781372,1.3281371593475342
3.785326904296875,2.443139294065535,7.5451283790618175,-19.55557495626211,-0.0249251462519168,-0.5238787531852722,1.7449263334274292
3.79530615234375,2.799368268689513,7.051181078791618,-20.77777048010826,-0.6690231561660767,-0.7419668436050415,1.9859695434570312
3.805285888671875,3.2204248125329613,6.65005234747231,-20.43268278496265,-0.9991353750228882,-0.8773004412651062,2.065868854522705
3.815265869140625,3.6872798154771327,6.059499945449828,-19.649061049211024,-1.0537632703781128,-0.8930966854095459,1.9834650754928589
3.825244873046875,4.108684442105889,5.459054510444402,-18.965912781077623,-1.0105581283569336,-0.7463667392730713,1.7354869842529297
3.835224853515625,4.419783650670945,4.9369092896938325,-18.591242433094976,-1.004699468612671,-0.4751238226890564,1.3636212348937988
3.845203857421875,4.131709928384423,4.306808721137046,-17.959121756887434,-0.9389110207557678,-0.1299238950014114,0.964631199836731
3.855183837890625,3.2391122696071863,3.751346629457176,-16.066508851665258,-0.6988469958305359,0.1652845740318298,0.5922629833221436
3.865163818359375,2.4382483071535823,3.736961545751989,-13.3455372433424,-0.3489324748516083,0.3827187418937683,0.2585708200931549
3.875142822265625,1.79209355263561,3.9273248353928327,-10.57655885221958,-0.0751126408576965,0.5267030596733093,-0.0008482218836434
3.885123046875,1.1544773477517067,3.6833313701123,-8.166866777464747,-0.0157688595354557,0.5273340940475464,-0.1681950092315673
3.89510302734375,0.4676146622050553,3.095624420648813,-6.038216334402561,-0.1526105999946594,0.4276050627231598,-0.2745318412780761
3.90508203125,-0.119165820063278,2.329114563217759,-3.914071386066079,-0.37571781873703,0.2472914308309555,-0.3697021603584289
3.91506201171875,-0.387952000490576,1.349652567718923,-1.3815911360323427,-0.5515077710151672,0.0695656612515449,-0.4720461070537567
3.9250419921875,-0.4117924564138054,0.178616299354285,1.1321832444876432,-0.6187745928764343,-0.0889842733740806,-0.5787906646728516
3.935020751953125,-0.4031519807752222,-1.1506639269433916,3.176781777900457,-0.5574723482131958,-0.2095799297094345,-0.6712145805358887
3.945000732421875,-0.4119913399867713,-2.413386106967181,5.098960384824872,-0.3720725178718567,-0.2190635502338409,-0.7458573579788208
3.95498095703125,-0.3275421746481209,-3.2349341071397064,6.704737292861938,-0.1089074462652206,-0.1219196841120719,-0.8265950679779053
3.964959716796875,-0.3113608551759272,-3.7214950965508815,7.906084089946746,0.1872771233320236,-0.0163044948130846,-0.8982828259468079
3.974939697265625,-0.5224563325263559,-4.0128959174335,8.963163285872339,0.4723038077354431,0.0799714401364326,-0.9338570833206176
3.984919921875,-0.9763833917710928,-4.086019021311402,9.833163912916184,0.7082034349441528,0.1264764368534088,-0.920750379562378
3.994897705078125,-0.9705760206665844,-4.017765569296479,9.846958629512786,0.870846688747406,0.085132710635662,-0.8558635115623474
4.004876953125,-1.5371058151319623,-3.881713423296809,10.519219592928886,0.9298954010009766,-0.0707816332578659,-0.7554494738578796
4.014856689453125,-2.137986718945205,-3.543667171095312,10.929497845387456,0.8806873559951782,-0.3216221034526825,-0.6387451887130737
4.0248369140625,-2.600566528788209,-3.0518782179027792,11.035548820877075,0.7290347814559937,-0.4997819066047668,-0.5131666660308838
4.03481591796875,-2.772338807466626,-2.5841388333395123,10.96562012912631,0.515773594379425,-0.5508251786231995,-0.3719637095928192
4.0447958984375,-2.59288065046072,-2.2092658023916183,10.820456455910206,0.2986617386341095,-0.5450783371925354,-0.2545875608921051
4.05477587890625,-2.0426190500333905,-2.064523569457978,10.595104562735555,0.1176927611231803,-0.5007057785987854,-0.1723222583532333
4.064755126953125,-1.4482473819836974,-2.1195336551487443,10.62572532644868,-0.0199026893824338,-0.4147552251815796,-0.1256335526704788
4.07473486328125,-0.9229396055489778,-2.221403691691905,10.685721822249889,-0.1406333744525909,-0.2881583869457245,-0.1144080534577369
4.08471484375,-0.5092702858800068,-2.289381541635841,10.398139390611648,-0.2477713525295257,-0.13977912068367,-0.1367896646261215
4.09469384765625,-0.2437037250863388,-2.3468710230521856,9.924839157050847,-0.3555808961391449,0.0429451614618301,-0.1850530803203582
4.104673828125,-0.1356178097030148,-2.359623244858533,9.407918392950297,-0.4487452208995819,0.2205997705459594,-0.2611958980560303
4.11465380859375,-0.021109679252468,-2.349016072256863,8.841891360375284,-0.5220474600791931,0.3822307586669922,-0.3531114459037781
4.1246328125,0.1116814191246405,-2.433711394376308,8.334235852748154,-0.5513898730278015,0.5366480946540833,-0.4296817481517792
4.13461279296875,0.1075319347623735,-2.690594005715847,7.901662181851267,-0.5132017135620117,0.6448094844818115,-0.4732582569122314
4.144593017578125,-0.0217378576207906,-3.0721982446148988,7.60810476745665,-0.3958035707473755,0.7500587701797485,-0.4777615070343017
4.154572021484375,-0.3046491556428373,-3.42825361623764,7.517253699186444,-0.2297163158655166,0.8164598941802979,-0.4239437878131866
4.164552001953125,-0.6073811525527387,-3.593503215149045,7.534713952553272,-0.0623050965368747,0.7637572288513184,-0.3292422294616699
4.17453076171875,-1.076292722700536,-3.658984864363074,7.324781746828555,0.0850968733429908,0.587820291519165,-0.2126436978578567
4.184510986328125,-1.5005312575809655,-3.661406246291101,7.178301730316877,0.2051937580108642,0.3662372827529907,-0.0709713771939277
4.194490966796875,-1.737761950728297,-3.8063118530929088,7.304172089520096,0.3143884241580963,0.1577879339456558,0.0751876905560493
4.2044697265625,-1.8741274004608397,-4.009327995818853,7.4196999184072014,0.4317693710327148,0.0519798845052719,0.2126577794551849
4.214449951171875,-1.766616727682203,-3.9943604360505938,7.409760123673081,0.5624890923500061,0.0272252690047025,0.2839223742485046
4.224429931640625,-1.3790239158928397,-3.715246849811077,7.264696403700113,0.7193047404289246,0.0464938282966613,0.2526509165763855
4.23440869140625,-0.7432918442551046,-3.4373578369304534,6.9012044523358345,0.8673248291015625,0.1586693674325943,0.1609891653060913
4.244388916015625,-0.2330344105012714,-3.2228000172317026,6.464384229910373,0.9294549226760864,0.3314084410667419,0.040376853197813
4.254368896484375,0.2385848111700266,-2.9210967057824133,5.466698887717723,0.8295437693595886,0.5169132947921753,-0.0354752987623214
4.26434765625,0.5282783166781068,-2.430460722017288,3.575176700341701,0.5849827527999878,0.6884319186210632,0.0246491394937038
4.274327880859375,0.3245349556561559,-1.9368617967933413,0.7713643117249012,0.2570802867412567,0.778264045715332,0.2099569588899612
4.28430810546875,-0.1665903459958732,-1.3490152927286925,-2.447657940533757,-0.1099705770611763,0.7732768058776855,0.4697670638561249
4.294286865234375,-0.1286620357483625,-0.5548793233558535,-5.860590068998932,-0.5051850080490112,0.6828761100769043,0.7563357353210449
4.304266845703125,0.2567258133426308,0.4980662798963486,-9.732325119116902,-0.8900921940803528,0.4440764188766479,0.9774330258369446
4.3142470703125,1.1798787693813442,1.5637183661170302,-14.092633375251292,-1.163853645324707,0.1823300272226333,1.1501840353012085
4.324225830078125,2.0140511271968484,2.006973736156523,-18.10803689159155,-1.241013765335083,0.0009535746648907,1.2910783290863037
4.334205810546875,2.239748472808301,1.836178485816717,-20.949322978556157,-1.0710769891738892,-0.2859066724777221,1.2527192831039429
4.344184814453125,2.6191443880081176,1.8720402189232408,-22.729287994241712,-0.6251166462898254,-0.5239585638046265,0.9977313280105592
4.354164794921875,3.2928537966668605,2.285911381307244,-24.0823065312624,0.0873881056904792,-0.5003232359886169,0.5884031653404236
4.364144775390625,4.01793157351315,2.8769278937101364,-24.089299751150605,0.873443067073822,-0.2787337005138397,0.1350639462471008
4.374123779296875,4.687975737662613,3.411180900883674,-22.33900506658554,1.400863766670227,0.0371835306286811,-0.2959752976894378
4.38410400390625,4.983506205695868,4.292881318071484,-20.568212368392945,1.5286790132522583,0.3562662303447723,-0.6682403683662415
4.394083984375,4.97024048140943,5.364443797379732,-19.71975312654972,1.3804876804351809,0.5925935506820679,-0.9046137928962708
4.40406298828125,4.313718062134087,5.848754669776558,-18.3523635343492,1.148097276687622,0.7331400513648987,-0.9606847763061525
4.41404296875,3.1660160537362096,5.881936223888397,-15.945516327631472,0.9280535578727722,0.7573471069335938,-0.8650932312011719
4.42402294921875,1.9402612299732864,5.790666637945175,-12.995740639853476,0.7049275040626526,0.6461750268936157,-0.7080932855606079
4.434001953125,0.8856604068599641,5.399208821290731,-10.314365713381768,0.4692396819591522,0.4830923676490783,-0.5629914402961731
4.44398193359375,-0.0272357974499464,4.762987431766092,-7.86271607286334,0.2616786360740661,0.3326006829738617,-0.4817245602607727
4.4539619140625,-0.56831397446841,4.226124826616049,-5.413175387322903,0.1130183190107345,0.2070297300815582,-0.5095255970954895
4.46394091796875,-0.7500472367994487,3.792537594762445,-2.812836237549781,0.0366481356322765,0.070699967443943,-0.624263346195221
4.4739208984375,-0.7643696305319666,3.130172002416849,-0.4902367553144693,0.0543163456022739,-0.0705242678523063,-0.7403258085250854
4.483900634765625,-0.9263554053418338,2.105019684366882,1.581274919465184,0.1982164531946182,-0.1912136226892471,-0.8128400444984436
4.4938798828125,-1.120386569840461,1.0324838299818335,3.949506272062659,0.4458323717117309,-0.2810550928115845,-0.8390612602233887
4.503860107421875,-1.2269573314204811,0.1426448222629726,6.3767404332488775,0.7301064133644104,-0.3673956990242004,-0.8179472088813782
4.5138388671875,-1.351920220389962,-0.4412536017630249,8.375085165008903,0.9832377433776855,-0.4966351985931396,-0.7707527875900269
4.523819091796875,-1.4967871026165782,-0.6735437697682529,9.811091197317838,1.136813402175903,-0.6401820182800293,-0.7126408815383911
4.533799072265625,-1.70129596811831,-0.6040405368879437,10.73172837114334,1.158646821975708,-0.7229288220405579,-0.6415759921073914
4.54377783203125,-1.872696344744414,-0.3185516434628516,11.356947012877464,1.0438134670257568,-0.7408273220062256,-0.538453996181488
4.553758056640625,-1.9629184674613176,-0.1548014162637293,11.84321778717041,0.8171175122261047,-0.7105724811553955,-0.4142468273639679
4.563738037109375,-1.953470694027841,-0.1806738894712179,12.224040812563896,0.5155524611473083,-0.6647314429283142,-0.2967280745506286
4.573716796875,-1.777673397617042,-0.2566897921811789,12.401270187604426,0.1978242993354797,-0.5751850605010986,-0.1816041320562362
4.583697021484375,-1.6166194968298078,-0.3875089694308117,12.32425825959444,-0.0878779366612434,-0.4554386734962463,-0.0620531253516674
4.5936767578125,-1.441554898607731,-0.4082413032708689,12.066744803005456,-0.3142218589782715,-0.3728644549846649,0.064769797027111
4.60365576171875,-1.2075553694013506,-0.3851945550085976,11.631326264071465,-0.4786093831062317,-0.4137082099914551,0.2127598226070404
4.613635986328125,-1.1480564478587358,-0.3870833278972655,11.1336760176301,-0.6169618964195251,-0.4973684847354889,0.3475416004657745
4.623615966796875,-1.272967533575743,-0.4400158035963773,10.638402437192202,-0.7541714310646057,-0.5838640928268433,0.4606291353702545
4.633594970703125,-1.2809212690591811,-0.6126701988715678,10.051314496409892,-0.909932553768158,-0.4697260558605194,0.5643342137336731
4.643575927734375,-1.433624105608463,-0.8861457792241125,8.50011731982231,-1.042298674583435,-0.3210330307483673,0.651760458946228
4.653554931640625,-1.171945053772628,-1.1089726839657872,7.834557899871468,-1.118278980255127,-0.1757802218198776,0.7050894498825073
4.663534912109375,-0.8633531518533826,-1.5718496501244603,7.400987034630775,-1.1231995820999146,-0.105073794722557,0.6929143071174622
4.673514892578125,-0.2515166273269802,-2.263904716682434,7.338141579139232,-1.0815967321395874,-0.0283771492540836,0.5787160992622375
4.683493896484375,-0.0498204080931842,-2.968724718397856,7.461237797453999,-1.0003780126571655,0.0041314400732517,0.3996764123439789
4.693473876953125,0.0339874636672437,-3.3691876792848108,7.425216636002063,-0.9272343516349792,-0.0263971742242574,0.1789461523294448
4.7034541015625,-0.0231879102986305,-3.423024483412504,6.973143314865231,-0.926592230796814,-0.1073757112026214,-0.0860102474689483
4.713432861328125,-0.097832963046804,-3.26331322940588,6.078943481588364,-1.0733015537261963,-0.2838282287120819,-0.3880393505096435
4.7234130859375,0.0393693028360605,-3.056739101937413,4.976511232241988,-1.4217932224273682,-0.5825140476226807,-0.712800920009613
4.73339306640625,0.1201297697246074,-3.00838452861309,4.406956610062718,-1.8944613933563232,-0.7944231033325195,-0.9667910933494568
4.743371826171875,-0.0720205859960988,-3.503089953774213,5.399735475513339,-2.1361517906188965,-0.825900137424469,-1.0681854486465454
4.75335205078125,0.2815449415722861,-3.828107213054597,7.292561731225252,-1.9034132957458496,-0.7109327912330627,-1.1188480854034424
4.763331787109375,1.1256476321738214,-3.551900454172492,7.441054256603121,-1.3543225526809692,-0.2657485604286194,-1.0857973098754885
4.773310791015625,2.076280350486189,-3.008796032023429,5.441760845816135,-0.6785656809806824,0.682016134262085,-0.9702063202857972
4.783291015625,2.936250143511593,-3.0804817965745923,2.218693117558956,-0.1962892413139343,2.1432254314422607,-0.95301353931427
4.793270751953125,3.6611321055248376,-3.676627488559484,0.9105804747134446,0.616913378238678,3.386641025543213,-1.024763107299805
4.803249755859375,4.351190006916225,-4.693122745162248,-1.0085440053373576,1.3783189058303833,3.876960039138794,-1.1317667961120603
4.81322998046875,3.260733734306693,-3.801278535100818,-6.05597294036746,1.9637248516082764,3.981870412826538,-1.175530195236206
4.8232099609375,1.5011390142157672,-1.601677217633277,-9.583276128900051,2.2798101902008057,3.385852813720703,-0.9910805225372314
4.83318896484375,-0.4591641561806202,0.497799884045124,-12.775520848870276,2.2551674842834477,2.404979705810547,-0.5496301651000977
4.843169189453125,-2.0275525599353013,3.299064634005725,-15.285801542055609,1.867132544517517,1.186557650566101,0.0484109595417976
4.85314794921875,-2.793224943628907,6.526072332060337,-17.065633286750316,1.3576836585998535,-0.0248379819095134,0.6212846040725708
4.8631279296875,-2.366121813097596,7.24776748073101,-16.684323939144612,0.7773554921150208,-1.092186689376831,1.002861261367798
4.87310791015625,-1.2603227176666258,5.571861389935016,-15.307440542411804,0.3251625001430511,-1.6639615297317505,1.2005338668823242
4.8830869140625,1.200981470903754,3.543110998517274,-12.841433875238897,0.0620171763002872,-1.795203685760498,1.0784400701522827
4.89306689453125,3.672269001089037,1.7888734215453266,-10.629574987614154,0.0694665759801864,-1.3771164417266846,0.7016847133636475
4.903046875,4.487916691176593,1.2509312044650316,-8.433342123666405,0.3685971796512604,-0.6427361369132996,0.3502023220062256
4.91302587890625,3.5651164940983056,2.811404743441939,-7.284577162212133,0.742403507232666,-0.0591049343347549,0.1206956431269645
4.923005859375,1.9462223303347823,5.012440039235353,-7.418181330537796,0.8807221055030823,0.0807679817080497,-0.0045239138416945
4.932985595703125,0.3143035575643181,6.502739971789717,-8.061633548098802,0.6489986181259155,-0.1279684454202652,-0.0088763190433382
4.94296484375,-0.7950107063807547,7.195194997450709,-8.89408507347107,0.1756258457899093,-0.5272687673568726,0.0950999706983566
4.952945068359375,-1.1522270846068858,7.171791325509548,-9.477515076267718,-0.3668571412563324,-0.926142394542694,0.2325403988361358
4.9629248046875,-0.6810219236291944,6.3712850904524325,-9.510622980621456,-0.8441455960273743,-1.2128278017044067,0.3670215606689453
4.972904052734375,0.1508953487358987,5.012233118486404,-9.306551191362738,-1.1919517517089844,-1.4705981016159058,0.4924798905849457
4.9828837890625,1.1080495047062635,3.9029885587766766,-9.256903655618428,-1.4299672842025757,-1.644621729850769,0.5965078473091125
4.99286376953125,1.9220589260675007,3.49250309330821,-9.06803060453534,-1.5480198860168457,-1.8210660219192505,0.6572638750076294
5.002843017578125,2.196861517240107,2.9566859055578707,-7.930035458898544,-1.535402536392212,-1.8548564910888672,0.657749593257904
5.01282275390625,2.073099820753932,1.4819763408452271,-5.498444856068492,-1.4018652439117432,-1.7005980014801023,0.6180402636528015
5.022802734375,1.891153061802685,-0.0598345832377672,-3.3846699105769398,-1.1618523597717283,-1.4661048650741575,0.5604546666145325
5.032781982421875,2.1375196859553456,-1.1245251309499145,-1.16674777739048,-0.8329708576202393,-1.2226696014404297,0.4422451853752136
5.04276171875,2.1391902495160697,-1.8313547189220785,1.072460304930806,-0.4889050424098968,-0.840969979763031,0.3541163802146911
5.052740966796875,1.8440027497015887,-2.01549825726524,2.8977450562894345,-0.1943162977695465,-0.4884329438209533,0.3335613012313843
5.06272119140625,1.5592109716951843,-1.9636649019144476,4.122125522959232,0.0005581934237852,-0.3321898579597473,0.3228664398193359
5.072700927734375,1.187932311977446,-1.9234302144207056,5.413823037576675,0.1016712337732315,-0.3029755055904388,0.3349566757678985
5.082679931640625,0.8679858531553297,-1.7507663937300442,6.535906328332424,0.1026863977313041,-0.3090662360191345,0.3623963892459869
5.092659912109375,0.7154267359256744,-1.6377702752776444,7.258997315275669,0.0219819694757461,-0.2935525178909302,0.3910996913909912
5.102639892578125,0.6628796793475746,-1.7803236198648809,7.8367428426951165,-0.0931314900517463,-0.2388321459293365,0.420509397983551
5.112618896484375,0.5488676618508994,-2.1274770153686404,8.409262744420767,-0.1837684512138366,-0.1789594888687133,0.4581374526023865
5.122598876953125,0.3367275342857465,-2.485928634478152,9.00589125148654,-0.2049054056406021,-0.1303646564483642,0.4974814355373382
5.132578857421875,0.0430448495436459,-2.639685656255484,9.57568611216247,-0.1720499992370605,-0.1180368736386299,0.5483310222625732
5.142557861328125,-0.2508100864928215,-2.6483839264959097,9.921561158293486,-0.1495859622955322,-0.1201879754662513,0.6051408052444458
5.152537841796875,-0.4728733864508569,-2.7373247772306204,9.89570541702509,-0.1728449463844299,-0.1296232938766479,0.6657021045684814
5.162517822265625,-0.5565086050581187,-2.9516935040980576,9.786180627945065,-0.233016699552536,-0.1504623293876648,0.6932390928268433
5.17249658203125,-0.4450118217853829,-3.057690411312878,9.623210664403436,-0.3254166543483734,-0.2027444392442703,0.6732443571090698
5.18247705078125,-0.4355974026322364,-3.084990213909745,9.098950643455982,-0.4345283508300781,-0.2282401025295257,0.6235330104827881
5.19245654296875,-0.4866673723950981,-3.192290312677622,8.304267999985814,-0.5464855432510376,-0.1967578083276748,0.5563196539878845
5.202435302734375,-0.4619612395532429,-3.459822474455833,7.855364541056752,-0.6069459915161133,-0.045084424316883,0.4781633615493774
5.21241552734375,-0.3071896339058876,-3.751837920105457,7.681110382434725,-0.5570309162139893,0.1551591902971267,0.3604335486888885
5.2223955078125,-0.0117433187584392,-3.8994969172686336,7.454507612416148,-0.4036285579204559,0.2848015427589416,0.1862766593694687
5.232374267578125,0.2115104696257971,-4.068237865427136,7.303106506115197,-0.1965693980455398,0.4236459732055664,-0.0272406786680221
5.242354736328125,0.4053420016327873,-4.231756987284124,6.983366018193959,0.0023119780234992,0.589546263217926,-0.2468810379505157
5.252333740234375,0.5604525569109245,-4.239322161841392,6.395891123920679,0.1679696440696716,0.8158854246139526,-0.4849849641323089
5.2623134765625,0.7912981886636465,-4.17617684662044,5.937463465321064,0.277037650346756,1.176762580871582,-0.7664328813552856
5.272293701171875,1.091041379021108,-4.170163285419345,5.388428484079242,0.3345022797584533,1.7433586120605469,-1.1038562059402466
5.2822724609375,1.1441913699284196,-4.250249798569083,4.980242235463857,0.3675298690795898,2.5187599658966064,-1.4753128290176392
5.29225244140625,1.342787650385499,-4.381647396761179,4.42172397108376,0.4013320207595825,3.1628406047821045,-1.865471720695496
5.302232421875,1.160520208112523,-4.530118879351019,3.0755916864454744,0.4220927655696869,3.6417059898376474,-2.239269733428955
5.31221142578125,0.2946953323833644,-4.634290324704349,1.4834049123436213,0.4214946031570434,3.955188274383545,-2.4716145992279053
5.32219140625,-0.7599468456536531,-4.744423016549646,-0.2023503722935914,0.4690335392951965,3.927239656448364,-2.565255641937256
5.33217138671875,-1.858195379574597,-4.371408326819539,-1.8119108905225991,0.6141728758811951,3.570758819580078,-2.5668625831604004
5.342150390625,-2.3979393853798507,-3.454718137054145,-3.496366198477149,0.8823237419128418,3.2823519706726074,-2.5416860580444336
5.35213037109375,-2.4338188002735377,-2.0142410968109963,-5.271618214166164,1.3227823972702026,3.025073766708374,-2.4959867000579834
5.362110595703125,-2.708747502043843,0.1933122025743126,-6.237231424793601,1.8685718774795528,2.7260727882385254,-2.3712873458862305
5.372089599609375,-3.3560976038262247,2.3694573872610927,-6.170802265596389,2.2990646362304688,2.416590929031372,-2.13221287727356
5.382069580078125,-3.7899393949627873,3.701903384113312,-5.741858475634455,2.4012606143951416,2.095801830291748,-1.7706297636032104
5.392049560546875,-3.564281796839833,4.375573629805445,-5.661664994978905,2.1875970363616943,1.690874457359314,-1.3771634101867676
5.402028564453125,-2.7096774763703344,4.725965276578068,-5.712957375320792,1.783387541770935,1.160049319267273,-1.0781621932983398
5.412008544921875,-1.7138164269953966,5.38796495822072,-6.224422212103009,1.2852046489715576,0.6447769403457642,-0.9097696542739868
5.421988525390625,-0.530907496137917,5.853578144410252,-7.638698058640957,0.7875843048095703,0.205243170261383,-0.8757232427597046
5.431967529296875,1.0021762238711118,5.060811563694477,-8.794763113975524,0.4129521548748016,-0.1498043984174728,-0.9112762212753296
5.441947509765625,2.5236434481054544,4.16495110372901,-9.693071551615,0.2283239364624023,-0.3830545842647552,-0.9328811168670654
5.451926513671875,3.741503865356743,3.849508605262637,-10.327690474379065,0.2189016789197921,-0.4812256395816803,-0.8613390326499939
5.461906494140625,4.402489401520788,3.849309867820144,-10.693375551873444,0.2949336469173431,-0.515977680683136,-0.6492273211479187
5.47188671875,4.457188959957659,3.9732553964406248,-11.00509873755574,0.3474922180175781,-0.5722401738166809,-0.2881271243095398
5.481865234375,4.235249505575001,4.10991486068368,-11.330351266896724,0.2994663119316101,-0.6861571073532104,0.1208035051822662
5.491845703125,4.00616339430809,4.266899027813971,-11.50452943767309,0.1527879238128662,-0.8748010396957397,0.5009018778800964
5.50182568359375,3.720190735954046,4.1604485316127535,-11.381249094963072,-0.030801597982645,-1.120639681816101,0.8385075926780701
5.511804443359375,3.5253380259394644,3.641998365987837,-10.613587144887449,-0.233332872390747,-1.3041969537734983,1.042481780052185
5.52178466796875,3.5073908658385275,3.026523704154789,-9.669767832916977,-0.4538501501083374,-1.3458715677261353,1.1205428838729858
5.5317646484375,3.4100752777293324,2.4717700530052182,-8.354576629987358,-0.6225965619087219,-1.0946534872055054,1.1004292964935305
5.541743408203125,3.5609488530248403,1.9148159692019224,-6.737710757181048,-0.6789703965187073,-0.6750242710113525,0.8820369243621826
5.5517236328125,3.527267240436375,1.798006283810735,-4.762920504009723,-0.6461602449417114,-0.1796928197145462,0.4871048033237457
5.561703369140625,3.238373433938622,1.7022195127040147,-3.109608522337675,-0.6073009371757507,0.3627941310405731,0.027793550863862
5.571682373046875,2.629470259450376,1.3260371527232229,-2.055356074270606,-0.6441164612770081,0.8445000648498535,-0.4213616251945495
5.58166259765625,1.6779560090631245,0.8567942317292093,-1.0837906772404908,-0.7938960194587708,1.1667931079864502,-0.7799445390701294
5.591642578125,0.7825690118283033,0.0598830985546112,-0.0740858114302158,-1.0281040668487549,1.2274460792541504,-0.9822960495948792
5.60162158203125,-0.0032440964877605,-1.127895338035375,0.6112450614392757,-1.2555869817733765,1.0601801872253418,-0.995789110660553
5.6116015625,-0.5357981907889247,-2.407670067407936,1.538991775009036,-1.3305608034133911,0.8647196292877197,-0.8627492785453796
5.62158154296875,-0.6037967912599445,-3.376889924225211,2.789700861155987,-1.205896019935608,0.7384360432624817,-0.6966097354888916
5.631560546875,-0.3537619999885559,-3.9653544140577313,4.37575132445991,-0.914405345916748,0.7218027710914612,-0.5624018907546997
5.64154052734375,0.0199231363490223,-4.243601446595788,5.601314278912544,-0.5867435932159424,0.6984562277793884,-0.5756415128707886
5.6515205078125,-0.1668243008822202,-4.624190370972454,6.0133075185954565,-0.3569585978984833,0.4312426447868347,-0.5390326380729675
5.66149951171875,-0.7684858336791396,-4.895507019725442,5.657971401157975,-0.3320438861846924,0.2237172126770019,-0.5573344230651855
5.671479248046875,-1.3840776921510696,-5.36657379514575,5.962454698714613,-0.4363892078399658,0.093967467546463,-0.6134565472602844
5.68145849609375,-0.5555848412767053,-5.010553787097335,5.749021791392565,-0.5108535289764404,-0.6623052358627319,-0.7336046099662781
5.6914384765625,0.8929933800965547,-3.778526020544767,5.0457081025868655,-0.565873920917511,-1.2833000421524048,-0.8195791840553284
5.70141845703125,1.077889344242215,-3.647459261742234,4.882946228837967,-0.6327871680259705,-1.847763538360596,-0.8722060918807983
5.7113974609375,0.413488446676731,-5.520906278723478,4.606861342769861,-0.7701178789138794,-2.115767240524292,-0.8897362947463989
5.721377685546875,0.5470262717679143,-6.824066267597675,5.365698181355,-0.9243236780166626,-2.1668951511383057,-0.7630112171173096
5.731357421875,0.4210293635755777,-7.317309803512692,5.606261672186851,-0.9797542095184326,-2.389167308807373,-0.4597211480140686
5.741336669921875,0.7459070682547986,-7.2782923828542225,5.773324458000063,-0.8842944502830505,-2.714804410934448,-0.0911672338843345
5.751316650390625,1.2498017620436843,-6.257917654469609,6.58757397172749,-0.7556885480880737,-2.897907257080078,0.1378726065158844
5.76129638671875,2.3965204584926365,-4.913233815073967,6.362303911617398,-0.6827141046524048,-3.0848093032836914,0.1925755888223648
5.771275634765625,2.363155802898854,-4.439939134471119,5.782629461961984,-0.6320219039916992,-3.1959826946258545,0.2214873880147934
5.78125537109375,3.1184716277509925,-4.172187192462385,6.050597677069902,-0.6154013276100159,-2.3879196643829346,0.2584514617919922
5.7912353515625,2.8505419910877943,-4.072031704752147,6.43255525945127,-0.5929069519042969,-1.597350835800171,0.3448758423328399
5.801214599609375,1.7074398777008055,-4.210217647910118,6.237590321233868,-0.4223223328590393,-1.0302973985671997,0.4721331894397735
5.8111943359375,1.1270055495887994,-4.4485152396366,5.8450943937033415,-0.034951951354742,-0.7004750370979309,0.6513210535049438
5.821174560546875,1.297075992785394,-4.802934534490108,5.42311985823214,0.6149944067001343,-0.6408398151397705,0.8603668212890625
5.83115380859375,1.6826381755299866,-4.934844758379459,5.461923928400874,1.4323302507400513,-0.6871636509895325,1.0413200855255127
5.841133544921875,1.535371830946207,-4.541556219166517,6.235839678174257,2.2512247562408447,-0.5480926036834717,1.17523455619812
5.851113525390625,1.4920266102164983,-4.088470798377693,7.084985733237862,2.978945732116699,0.0340177007019519,1.2948373556137085
5.8610927734375,1.6376961871281266,-3.57782809163332,7.515439927762746,3.5206689834594727,0.8825940489768982,1.3365978002548218
5.871072509765625,1.215375541632995,-2.3898683071270583,6.790031311526894,3.7564756870269775,1.827133297920227,1.268735647201538
5.881052490234375,0.92622513002567,-1.0830984571926294,5.862827618792653,3.851593017578125,2.712038040161133,1.1035820245742798
5.891031494140625,0.7867100571557879,0.6218097100734711,4.159190055984259,3.848269939422608,3.1310994625091557,0.7887830138206482
5.901011474609375,0.5289017092734575,2.7486361525788903,0.9808318225473164,3.7972471714019775,2.67402720451355,0.3863330483436584
5.910991455078125,-0.1576886621378362,3.9536046472921966,-2.96368087901175,3.802114725112915,1.446853756904602,0.098866119980812
5.920970458984375,-1.049040997029096,3.397947617562115,-4.0292946790486575,3.850864887237549,0.5306375026702881,0.1826753765344619
5.93095068359375,-1.6554925405815242,2.1679421506173906,-2.596836694610119,3.886579990386963,0.3424776792526245,0.5456544160842896
5.940929443359375,-1.8531408726640044,2.145053296330571,-2.544916537758708,3.8175318241119385,0.4448913633823395,0.8767590522766113
5.950909423828125,-1.5839076060563324,3.602542846173048,-5.424443800312281,3.5385613441467285,0.3281548917293548,0.9152476191520692
5.9608896484375,-0.944563992857933,4.848423196989297,-9.162076084932684,3.081662893295288,0.0870203152298927,0.7116883993148804
5.97086865234375,-0.6590206658318638,4.563665759643912,-11.221492248249051,2.5423903465271,0.0014798492193222,0.4649062752723694
5.980848388671875,-0.8844733890324831,3.146951872304082,-11.687945392394065,1.982245922088623,0.189025729894638,0.2915299534797668
5.99082861328125,-0.8528498780176043,1.718550762040913,-11.308485472047328,1.4703168869018557,0.4762484431266784,0.1868792027235031
6.000807373046875,-0.9365719711907208,0.8353428628996014,-11.096702670019864,0.938097894191742,0.8546459078788757,0.1215100362896919
6.010787353515625,-1.223638123869896,0.9647130469173192,-11.78143148534298,0.2102352380752563,1.4544434547424316,0.0937937200069427
6.020767578125,-1.8818559488862752,2.0887743597477675,-12.770360689628124,-0.6271600127220154,2.0313992500305176,0.1248535215854644
6.030746337890625,-2.2563410034298896,3.3263930781751867,-12.283092720991371,-1.3651055097579956,2.414600133895874,0.1985668838024139
6.040726318359375,-1.7560329359561204,3.614532559174299,-10.322606302982567,-1.890216827392578,2.450769186019897,0.2610744833946228
6.050706787109375,-0.613665274323523,3.379929730312526,-8.470100951743126,-2.1845486164093018,1.904369115829468,0.2349832206964492
6.060685546875,0.5954527412846684,3.224386409640312,-7.233382397025823,-2.316335678100586,0.9286587238311768,0.1623916625976562
6.07066552734375,1.6242928079366683,3.0190105520457027,-5.647411428698897,-2.396275281906128,0.0059735355898737,0.0335796177387237
6.0806455078125,3.138986884774268,2.861707820485532,-4.222240094137192,-2.404590606689453,-0.8038454055786133,-0.2080589681863784
6.09062451171875,3.498749294221401,2.6703414912819863,-3.2441695529967545,-2.256723642349243,-1.413896560668945,-0.3933492004871368
6.1006044921875,2.430527649773657,2.676090556327998,-2.3187702793359755,-1.9457967281341555,-2.040329694747925,-0.4075181484222412
6.11058447265625,1.243403147047758,2.516912678545713,-1.9921260033756492,-1.5872390270233154,-2.7297940254211426,-0.2080638855695724
6.1205634765625,0.0072699910029768,2.076092865090072,-1.5535042844861744,-1.3121572732925415,-3.447369337081909,0.1172036603093147
6.13054345703125,-0.543541060000658,2.0564906312584874,-3.007549246832728,-1.5758248567581177,-4.295082092285156,0.448537141084671
6.1405234375,-0.290781373810023,1.5788642050616442,-2.1425772616058585,-1.879293441772461,-4.483035087585449,0.7632960081100464
6.15050244140625,0.1754538898006081,1.201025383110717,0.7160732171356677,-2.132869005203247,-4.215513229370117,0.9392566680908204
6.160482421875,0.3907683000203222,1.0516913654074072,2.2032821979373693,-2.250302791595459,-3.654400825500488,0.9438809752464294
6.170462646484375,0.5036123697161674,0.814670807879418,3.236150497192144,-2.160017490386963,-3.006760597229004,0.8580068349838257
6.180441650390625,0.3351954293476417,0.5552578743446618,3.956176835867762,-1.8852275609970093,-2.436466932296753,0.7579221129417419
6.1904248046875,0.2651970333615318,0.1624006392210721,4.446486656418442,-1.509268045425415,-1.966348648071289,0.6738432049751282
6.200404052734375,0.3043337330181151,-0.3113901543356478,4.910136433580518,-1.1273789405822754,-1.6203175783157349,0.6401429772377014
6.210384033203125,0.4233446913132443,-0.8239834106259047,5.1532794195115565,-0.8162205219268799,-1.4203847646713257,0.6937771439552307
6.22036376953125,0.5827206489508971,-1.330331196655333,5.009280698421597,-0.6135857105255127,-1.3958826065063477,0.8108307719230652
6.230343017578125,0.7236608227204531,-1.84587585009709,4.637669738009572,-0.487030416727066,-1.5672786235809326,0.9738969802856444
6.240322998046875,0.86623228748627,-2.55019126329124,4.033846935525537,-0.2888656258583069,-1.902420163154602,1.1567463874816897
6.250302978515625,1.1038567291915415,-3.228309428302944,4.50648899743855,0.0504876710474491,-2.004673480987549,1.285204529762268
6.260281982421875,1.4119059025362133,-3.379700305470824,5.960411210188269,0.4809144139289856,-1.7630523443222046,1.3077988624572754
6.270261962890625,1.388148302590847,-3.131399498385191,6.866753316679596,0.880031168460846,-1.3265633583068848,1.245777606964111
6.280241943359375,1.095800117855519,-2.868530944503844,7.149341593292355,1.1960300207138062,-0.808587908744812,1.1338114738464355
6.290220947265625,0.8820311104469001,-2.8041642707943915,7.185418284323811,1.4156230688095093,-0.2961927354335785,0.996433973312378
6.300200927734375,0.7674468460202216,-2.9004321034163234,7.016924004402756,1.5522727966308594,0.1663987189531326,0.8532984852790833
6.310180908203125,0.768942418340221,-3.0268782166808843,6.81359397342205,1.6400766372680664,0.5656294822692871,0.7108132243156433
6.320159912109375,0.9101739397391676,-2.994981149421632,6.695746761676669,1.6942732334136963,0.8354570269584656,0.5443565249443054
6.330139892578125,1.3219897770285605,-2.6652853769361973,5.797972577044368,1.5544475317001345,0.6715264320373535,0.3065149188041687
6.340119873046875,1.976908268238604,-2.0934524345614016,4.303806616711617,1.2343933582305908,0.2830418050289154,0.0355542488396167
6.3500986328125,1.8611719111673533,-1.7181499261550603,5.305785856705904,0.9416901469230652,0.1603515595197677,-0.1532132625579834
6.3600791015625,1.300352822498977,-1.5430537637509405,6.605320640820264,0.6560622453689575,0.1303554624319076,-0.2369638085365295
6.37005908203125,0.9132248517423868,-1.53175743984133,6.090590080240369,0.3582134842872619,-0.0740250945091247,-0.2338383346796035
6.380037841796875,0.6139494250271469,-1.8291208223901687,5.031746212729812,0.1160328611731529,-0.3949246108531952,-0.2045174837112426
6.39001806640625,0.6757306853532791,-2.167052508301288,4.52437361369729,-0.0152636468410491,-0.6092659831047058,-0.216611698269844
6.399998046875,0.8155608885869383,-2.285056225782633,3.977128438481688,-0.0328758358955383,-0.6973024606704712,-0.2676281332969665
6.409976806640625,0.6492079315435141,-2.1513592646069823,3.040513943323493,0.0459563955664634,-0.667656421661377,-0.3097662627696991
6.419956787109375,0.2578334092583507,-1.7117824369497596,2.154671604025364,0.187152549624443,-0.5408970713615417,-0.3227199912071228
6.42993701171875,-0.0582848695777356,-1.1190388815585524,1.4558523040294646,0.4167647063732147,-0.2915818095207214,-0.3378534018993377
6.439915771484375,-0.5507666273400187,-0.7245088909171521,0.4536678968518972,0.667838990688324,-0.1129094436764717,-0.3003099262714386
6.449895751953125,-1.2533088933818042,-0.4843900751128792,-1.318792442291975,0.8971437811851501,-0.1090140342712402,-0.1863005459308624
6.459876220703125,-2.022339647592604,-0.2441934265657327,-3.0946254727393385,1.0562089681625366,-0.1729153543710708,-0.0090564852580428
6.469854736328125,-2.8170386576756834,0.0959328650465235,-4.1963896135658025,1.1135947704315186,-0.3192161023616791,0.1883434057235717
6.4798349609375,-3.241737065152824,0.5482726916324346,-5.527868518951535,1.0072935819625854,-0.6969547867774963,0.3449212610721588
6.48981396484375,-3.324645649985969,0.7984536864414811,-7.468758840608596,0.6876468658447266,-1.2843976020812988,0.483391523361206
6.4997939453125,-3.044074266153574,0.5651344311168417,-8.707602132394909,0.4558912515640259,-1.706030011177063,0.5218245983123779
6.50977392578125,-2.308147763034701,0.2344012418750673,-8.850698351687193,0.3182550966739654,-2.0305631160736084,0.4422511756420135
6.5197529296875,-2.061828631285578,-0.0462133965771645,-10.157782820528745,0.2440817654132843,-2.144554615020752,0.3177438676357269
6.52973291015625,-2.6177833287879824,-0.0595883533917367,-10.928726276493071,0.183189108967781,-1.9726303815841677,0.2239082008600235
6.539712890625,-3.337120808416605,0.4452822727572172,-12.007037061017751,0.1025811061263084,-1.607254147529602,0.1618390679359436
6.54969189453125,-3.898191972149908,1.1569895497683436,-12.550198181790114,-0.0384564436972141,-1.1363625526428225,0.1288619488477707
6.559671875,-4.415470463646948,1.763039453717321,-13.646982196116449,-0.2871677875518799,-0.826059877872467,0.1641743928194046
6.56965185546875,-4.587798038120567,1.852275195745379,-13.962246415406463,-0.5142478346824646,-0.5877513885498047,0.308251142501831
6.579630859375,-4.416507113218307,1.2754112734660503,-13.175249650263783,-0.626835286617279,-0.409429669380188,0.535275399684906
6.589611083984375,-3.6988030800104137,0.6194577401198447,-12.071122871959208,-0.6265825629234314,-0.3226154148578644,0.7374117374420166
6.599591064453125,-2.77856045846045,0.1617426502363756,-10.976239722818136,-0.5510983467102051,-0.2850823402404785,0.8621336817741394
6.609570068359375,-1.7376050066009163,-0.1460837472030892,-9.208934866741298,-0.4519948661327362,-0.0687921121716499,0.8581927418708801
6.619550048828125,-0.8428264966532587,-0.0141737973083741,-6.964468425500392,-0.3591960966587066,0.3122625946998596,0.7562431693077087
6.629530029296875,-0.4696192069604992,0.3899959639409557,-4.883776249921322,-0.2942045629024505,0.7141091227531433,0.5926854014396667
6.639509033203125,-0.1550292336702346,0.7965983408983797,-3.141556150740385,-0.2502038776874542,0.998429238796234,0.4253081083297729
6.649489013671875,0.1885042177706956,0.8795222694311291,-1.59196933195889,-0.196623221039772,1.0961686372756958,0.3160114288330078
6.65946875,0.5880018407568335,0.6627468467481434,-0.3345738999158144,-0.1016581133008003,0.920353889465332,0.2665603160858154
6.669447998046875,1.4230980354189873,0.3722358873773366,0.4781704699456691,0.0450756698846817,0.5225204825401306,0.2750965654850006
6.679427978515625,2.165653016766905,0.1069068160008173,1.3353273975074291,0.2027337849140167,0.0366264171898365,0.3821026086807251
6.68940771484375,2.455224868656695,-0.3195828862067312,2.034305687457323,0.3238021433353424,-0.4649690389633178,0.6050674915313721
6.699386962890625,2.6586513457492,-0.9224998989574612,2.568820560437441,0.4179255962371826,-0.8746449947357178,0.8710588812828064
6.7093671875,2.9364421589523557,-1.5146706959620118,3.109932931986451,0.5048652291297913,-1.1097526550292969,1.0689934492111206
6.719346923828125,3.1587033926352857,-1.918193921202421,3.492004496136308,0.5844895243644714,-1.1797012090682983,1.1288025379180908
6.729325927734375,3.381958605791628,-2.084940772934258,3.6113854933202254,0.617855429649353,-1.122663497924805,1.0300184488296509
6.73930615234375,3.6161931858628975,-2.179388842783123,3.461439846524596,0.5713672041893005,-0.980881690979004,0.821042537689209
6.749285888671875,3.5720188208326693,-2.377518090250343,3.4979940919399257,0.4655385315418243,-0.710258960723877,0.5770525336265564
6.759264892578125,3.2954666095137592,-2.524026017682254,3.821706406101584,0.3322057723999023,-0.2979010939598083,0.3641775250434875
6.769244873046875,2.989264525340497,-2.3866084285482763,4.26097811333239,0.2090550661087036,0.1990682035684585,0.1878328472375869
6.779224853515625,2.8584716150432823,-2.065925545210391,4.62090681925714,0.1119190379977226,0.6952135562896729,0.0513043887913227
6.789203857421875,2.79436563809663,-1.814023791023344,4.995453833121061,0.0655121207237243,1.1428422927856443,-0.0317430943250656
6.799183837890625,2.6498016843393444,-1.7255561107583344,5.365639729166031,0.0615917071700096,1.4917421340942385,-0.0579539909958839
6.8091640625,2.6449972066670653,-1.649329049515724,5.692826441439986,0.1040299758315086,1.7146260738372805,-0.0728514492511749
6.81914306640625,2.738642289569974,-1.5292834509432316,6.086404903510212,0.1940533816814422,1.8230137825012207,-0.0862269327044487
6.829123046875,2.7537176936268803,-1.410726775754243,6.491262884485721,0.2997584939002991,1.8003485202789309,-0.0866080299019813
6.83910302734375,2.5206097794979807,-1.4337284427657722,6.646357000085711,0.407358169555664,1.6273709535598757,-0.0585412345826625
6.84908203125,2.061345231682807,-1.5055197135180234,6.625232378992438,0.4952544569969177,1.3609120845794678,-0.0237726010382175
6.85906201171875,1.6411802298516034,-1.4700870194785296,6.576040185800195,0.5740325450897217,1.074179768562317,-0.0227162577211856
6.869041015625,1.466248171968013,-1.378854696805775,6.581441752582788,0.6502271890640259,0.8458166122436523,-0.0590393804013729
6.879020751953125,1.3651606641046703,-1.2494288370780646,6.471833961394429,0.7287177443504333,0.6759546995162964,-0.109648123383522
6.889000732421875,1.2064005733430383,-1.099420061918348,6.118588094234466,0.7906290292739868,0.5892975926399231,-0.1458159834146499
6.89897998046875,1.044594831275195,-0.931915889013186,5.517981331187486,0.8051862120628357,0.5790171027183533,-0.1544962674379348
6.908959716796875,0.9036794631533324,-0.6881764715589582,4.430126473248005,0.7540460228919983,0.5900793671607971,-0.1433267146348953
6.918939697265625,0.7942896986298262,-0.4528356838114559,3.115520376729965,0.6379144191741943,0.5943230986595154,-0.1276449412107467
6.9289189453125,0.7149411443658172,-0.3101937841579318,1.7834288924038408,0.4861449003219604,0.5810679793357849,-0.1188666149973869
6.93889892578125,0.6795632492534815,-0.3168413324136286,0.4566635715365409,0.379679411649704,0.4956010282039642,-0.1269486546516418
6.94887890625,0.5582742264911532,-0.220762154231593,-0.5885948382139206,0.3434023857116699,0.3248399496078491,-0.1337871253490448
6.958858154296875,0.1215674013122916,0.145437667851895,-1.4521312376797195,0.3779775202274322,0.0376704484224319,-0.0666641369462013
6.968837890625,-0.5853961883030832,0.2919850505113601,-2.1635171737819907,0.4746968746185303,-0.3137078285217285,0.0983312129974365
6.97881787109375,-1.3134068037308753,0.2434114276088774,-2.826163336634636,0.6138603687286377,-0.6072542071342468,0.3116080462932586
6.988796875,-1.805482903301716,0.2113661840505898,-3.2245132508903738,0.7514203786849976,-0.7317471504211426,0.4620889127254486
6.99877685546875,-1.886871731221676,0.2891768612228333,-3.391351580297947,0.8549631237983704,-0.6321292519569397,0.488536387681961
7.0087568359375,-1.9559609034083785,0.4404758223235607,-3.61619084777534,0.8889341354370117,-0.397905558347702,0.3923150300979614
7.01873583984375,-2.16242309493497,0.7226753918796778,-4.323929367285967,0.8433865904808044,-0.1423328518867492,0.2095695585012436
7.0287158203125,-2.652029589521885,1.035491779626161,-5.133499783286452,0.7154024839401245,0.1050122305750846,0.0426085330545902
7.038696044921875,-3.2330671442240475,1.253708852484822,-5.69306083471775,0.5309115648269653,0.3229458928108215,-0.0417994111776351
7.048675048828125,-3.490714748586714,1.3230153206840156,-6.087834644052386,0.30185067653656,0.497709184885025,-0.0468250624835491
7.058655029296875,-3.269455969944596,1.1834158574663105,-6.645245823973417,0.047171015292406,0.5526319742202759,-0.0346730686724185
7.068635009765625,-2.5991595845997333,0.7162538343995809,-7.513745983326435,-0.1985921561717987,0.4509564936161041,-0.0537524856626987
7.078614013671875,-1.5958553796119987,0.025706249795109,-8.561423729178308,-0.4338140785694122,0.2127657234668731,-0.1145889163017273
7.088593994140625,-0.5699212635345756,-0.385806366764009,-9.251552357718348,-0.6777923703193665,-0.0296386592090129,-0.1803218573331833
7.098573974609375,-0.2439760757543146,-0.4106972085230052,-9.132048610937597,-0.8965416550636292,-0.1839655488729477,-0.1404783129692077
7.108552978515625,-0.82143723327443,-0.134293319633603,-8.436115095511079,-1.0815777778625488,-0.2416765093803405,0.0184167884290218
7.118532958984375,-1.5804092425465583,0.4935976100496947,-5.869376602044701,-0.6026694774627686,0.4488185048103332,0.1257033199071884
7.128512939453125,-0.968013695897907,1.7273150832548736,-1.3403764975905417,-0.1313350051641464,0.540965735912323,0.0328684486448764
7.138491943359375,-1.2489381309516727,1.4320220772393046,-4.234814329028129,0.3588367998600006,0.7033279538154602,-0.0489459969103336
7.148471923828125,-1.072969423496723,0.8118027050971984,-3.1446932797223326,0.6177029609680176,0.6402121186256409,-0.0694267675280571
7.1584521484375,-1.618969713217765,-0.0185660226516425,-4.580609295660257,0.6364809274673462,0.2396424561738968,0.0367220267653465
7.16843115234375,-1.441729962913692,-0.7284848088108002,-4.984460729941725,0.4454241693019867,-0.214090421795845,0.1441968232393264
7.1784111328125,-0.4672075427088886,-0.869630770818144,-4.280497637316584,0.1778916120529174,-0.442369133234024,0.1244894489645958
7.18838818359375,0.1067826507650315,-0.4954226335197687,-3.1488743647992607,-0.0892785787582397,-0.4636131525039673,0.0129717132076621
7.198366943359375,0.3218023888871073,0.0784929603479802,-2.100972747063637,-0.3039092421531677,-0.3817307949066162,-0.1183129474520683
7.20834716796875,0.2868627390615642,0.1675178361043333,-0.9741659349173308,-0.4263515472412109,-0.1924500614404678,-0.1634338200092315
7.218326171875,-0.0333642172023654,-0.1097377011783421,0.3447486724495887,-0.4626854956150055,0.0898946300148963,-0.1217559948563575
