seconds_elapsed,ax,ay,az,gx,gy,gz
0.07480126953125,-0.1808610095411539,0.1643070573642849,0.7376455819964408,-0.3415290713310241,-0.1412023603916168,-0.0474362708628177
0.0847822265625,-0.1304932697635143,0.2186648166261613,0.68727323910892,-0.3438508212566376,-0.1436836272478103,-0.0423914454877376
0.09476220703125,-0.1413164232034236,0.2746053150348365,0.6045423489302396,-0.3421302139759063,-0.1182669848203659,-0.0433531031012535
0.104742431640625,-0.1558108125019818,0.3166409144707024,0.4901169283270835,-0.3331899642944336,-0.0535473711788654,-0.0535972192883491
0.11472216796875,-0.1732658051718026,0.3161960933126509,0.2825239792048931,-0.3310677707195282,0.0262090470641851,-0.0805628895759582
0.124703125,-0.2186840327832847,0.2975689881235361,0.0310439575612544,-0.3341008424758911,0.1071054935455322,-0.1061683893203735
0.13468310546875,-0.3174402481548488,0.1929246645614504,-0.0849070651739835,-0.3326223790645599,0.1847203522920608,-0.1242849826812744
0.144663330078125,-0.3455129348203539,0.0885085967972874,-0.2019920603752136,-0.3333126902580261,0.2369204461574554,-0.1486478447914123
0.154643310546875,-0.2572362470827997,0.035173896972835,-0.3291255713820457,-0.3461775779724121,0.2163820415735244,-0.1754354685544967
0.164624267578125,-0.1383482941128313,-0.0202964997060596,-0.4829688101381063,-0.3734669685363769,0.1539556831121444,-0.1967953592538833
0.174604248046875,-0.0247941764514893,-0.06022095220685,-0.4676040677458047,-0.399087131023407,0.0928318202495575,-0.2101590633392334
0.184584228515625,-0.0396740579362958,-0.053491936212778,-0.4455512258917093,-0.4135680496692657,0.0243329219520092,-0.219937115907669
0.19456396484375,-0.0035207945372909,0.001601882238686,-0.6137672733932733,-0.4223968684673309,-0.0451510958373546,-0.243937999010086
0.204545166015625,0.1896014384228736,-0.0171399353712797,-0.7232493923753499,-0.4350759088993072,-0.08998753875494,-0.2748700976371765
0.214525390625,0.452323131179437,-0.1124146653026342,-0.952186158299446,-0.4338342249393463,-0.144899696111679,-0.3245338797569275
0.22450537109375,0.7057158545766026,-0.1729629497677087,-1.0371440768778324,-0.4365458786487579,-0.24235700070858,-0.362604558467865
0.234485107421875,0.3796919024717062,0.0091861998878419,-1.1527554923951626,-0.4962454438209533,-0.4688080847263336,-0.3803173899650574
0.244465087890625,0.438550041892752,-0.4394517399728297,-0.4382821116715669,-0.5376096367835999,-0.4113996624946594,-0.3507001101970672
0.2544462890625,0.2989524053059518,-0.7895907271586358,-0.5105798706412316,-0.5351526141166687,-0.3605139255523681,-0.2884275913238525
0.26442626953125,0.1715828205209225,-0.4034143580384552,-0.7093991461992263,-0.4920845031738281,-0.2999373972415924,-0.2361348420381546
0.27440625,0.0401351726420223,0.0259017723672091,-0.4965642047703266,-0.4318863153457641,-0.2331990450620651,-0.1978895366191864
0.28438623046875,-0.1731714779518544,0.2662308699212968,-0.3593360007286071,-0.354416012763977,-0.2059253454208374,-0.1641443520784378
0.2943671875,-0.2598174957476556,0.2726065424330532,-0.2501695235669612,-0.2719017565250397,-0.2214425504207611,-0.1222775876522064
0.304347412109375,-0.2451353287920355,0.0722051122501492,-0.1435404559284448,-0.1833481937646865,-0.2709230184555053,-0.0663240402936935
0.3143271484375,-0.2712074892900884,-0.2317272734254598,-0.0367804553866386,-0.1095662713050842,-0.3034537434577942,-0.0032795846927911
0.32430712890625,-0.2793960564427077,-0.4652784012772142,0.0103489600569009,-0.0534846261143684,-0.314487487077713,0.0442365370690822
0.3342880859375,-0.2901223253794014,-0.5449252078354359,0.0839069482207298,-0.0168785545974969,-0.310683935880661,0.0773483291268348
0.344268310546875,-0.3706774789541959,-0.4973401575788855,0.2506581838667392,0.0056597762741148,-0.289878249168396,0.1002291440963745
0.354248291015625,-0.4246756111234426,-0.3538412027046084,0.43993630861938,0.0143774412572383,-0.253980278968811,0.110185295343399
0.364228271484375,-0.4398876471720636,-0.1879673344150185,0.6125508833408355,0.0162808019667863,-0.1945438683032989,0.1256705224514007
0.374209228515625,-0.3875095174200832,-0.0503537843175232,0.6902402722209692,0.0038929048459976,-0.1484586298465728,0.1387510895729065
0.384189208984375,-0.1746985413886606,0.0068796765111386,0.5408505057424307,-0.0129057830199599,-0.1296561807394027,0.1414304971694946
0.3941689453125,0.0477040004611015,0.001270896718651,0.4140390662968158,-0.0341639518737793,-0.1006653383374214,0.1463766098022461
0.4041494140625,0.167085874427855,-0.0059955871529877,0.4271358637571334,-0.0509770140051841,-0.0372775793075561,0.1496839821338653
0.41413037109375,0.2081713335320353,-0.0043438744232058,0.4594155005931854,-0.072801761329174,0.0415837876498699,0.1416839957237243
0.4241103515625,0.162780432318896,0.0198144152775406,0.4183662818461656,-0.1142855510115623,0.1222983375191688,0.1277322322130203
0.434090087890625,0.1292683310784399,0.0342737332627177,0.3390074984490871,-0.1717223227024078,0.1915104389190673,0.1135524958372116
0.444070068359375,0.1433903799332678,0.0289338335394859,0.2595359023272991,-0.2410563975572586,0.2421131730079651,0.0992084443569183
0.45405029296875,0.092768153937906,-0.0194812378004193,0.2907142999231815,-0.3051721453666687,0.3007189333438873,0.0959365591406822
0.46403125,0.0006901742212474,-0.0861551655389368,0.3940034094840288,-0.3552968204021454,0.3432088792324066,0.1043143346905708
0.47401123046875,-0.0419455830648541,-0.1116026182673871,0.4965799868613481,-0.4035386443138122,0.3571077883243561,0.1137792691588401
0.4839912109375,-0.1010794706873595,-0.0842187906488776,0.5714794527620077,-0.4466035664081573,0.3425978124141693,0.1354946941137313
0.49397119140625,-0.1803982143349945,-0.0561596210520714,0.5716179844498634,-0.4780524671077728,0.3009514212608337,0.1722826659679412
0.503952392578125,-0.1990361331790685,-0.0020585399650037,0.5196691860258579,-0.4912423193454742,0.2395935505628585,0.1994895190000534
0.51393212890625,-0.1132705514796078,0.0513802047558128,0.4258990154385566,-0.4784371256828308,0.1556830406188964,0.2006665021181106
0.523912109375,0.0151851480416953,0.0666737816080451,0.44588557241261,-0.4546478986740112,0.0872864127159118,0.1866888999938964
0.533892333984375,0.0372276146322488,0.0358417862970381,0.5532452924132347,-0.4285702705383301,0.0340142287313938,0.1716105043888092
0.543873291015625,0.096293843846023,-0.0172648769252002,0.5485340459823608,-0.404290497303009,-0.0340883918106555,0.1574467420578003
0.553853271484375,0.1714950691722333,-0.0005654518630355,0.5134188934594393,-0.3812667429447174,-0.1208392530679702,0.1454308331012725
0.563833251953125,0.2488550799675285,0.0407211558364331,0.5865536877751351,-0.359509527683258,-0.1982778459787368,0.1298494786024093
0.573813232421875,0.2813797776058316,0.0830613642420619,0.6826508400052785,-0.3371037244796753,-0.2418697029352188,0.1154361218214035
0.583794189453125,0.2680707986995577,0.0727715139612555,0.6976140158593654,-0.321728765964508,-0.2668893039226532,0.1001589000225067
0.59377392578125,0.1651610438451171,-0.0310367971681058,0.6215922679305076,-0.3241066932678222,-0.2713554799556732,0.1002822369337081
0.60375439453125,0.1216052491046488,0.0509207705505192,0.5804191305428743,-0.3388885855674743,-0.2358089387416839,0.0966499522328376
0.613734375,0.207160987445712,0.0739173960607498,0.4839806175291538,-0.3699996471405029,-0.2417932450771331,0.096428595483303
0.62371533203125,0.3560524490132927,0.0339042788958176,0.3636123628735542,-0.4000382423400879,-0.2434238940477371,0.0988856256008148
0.633695068359375,0.3586712532095611,0.0458152275724336,0.3763748138129711,-0.4235230684280395,-0.2241060584783554,0.0956849381327629
0.643675048828125,0.3195850050985813,0.0579629076143726,0.3749076638698577,-0.4356220662593841,-0.1897379606962204,0.0902174711227417
0.6536552734375,0.3548885198004544,0.0282832972088828,0.3841565537303686,-0.4436198770999908,-0.1501525491476059,0.0701946094632148
0.66363623046875,0.3937975116483866,0.0088232117943465,0.497212439545989,-0.4439540803432464,-0.1058607324957847,0.0407349839806556
0.6736162109375,0.3587305821813643,0.054459904462099,0.7223030514359474,-0.4389823675155639,-0.0502048768103122,0.0113999815657734
0.68359619140625,0.2734481078237295,0.1331855410547927,0.9410060081154108,-0.4394676089286804,-0.0003965739160776,-0.0183387398719787
0.693576171875,0.1529756621412932,0.1976880065057426,1.081520978742838,-0.4387109279632568,0.0453698374330997,-0.0422581806778907
0.7035556640625,0.0149907945133745,0.2142893962872214,1.269697864255309,-0.4235948026180267,0.0913527756929397,-0.0501861460506916
0.713535888671875,-0.0543574670009315,0.2221527500734664,1.2564005757868288,-0.4055804908275604,0.079628549516201,-0.055237203836441
0.72351611328125,-0.1206527706854045,0.2677632488540373,1.125599774444103,-0.3755336403846741,0.0274407118558883,-0.0610511526465415
0.73349609375,-0.1864654054194688,0.2354218170944601,1.170300501435995,-0.3419816493988037,-0.0138829220086336,-0.0708839297294616
0.743475830078125,-0.1940090987972915,0.1499863532653544,1.3574755164295431,-0.2955310642719269,-0.0309002548456192,-0.0793565064668655
0.753456787109375,-0.2298028812341392,0.0946915506153833,1.512467340698838,-0.2373667657375335,-0.0543612912297248,-0.0883013680577278
0.76343701171875,-0.3309644772469997,0.1294075568860396,1.619302160042524,-0.1750373393297195,-0.0687415599822998,-0.0848139598965644
0.773417236328125,-0.4265969345748424,0.2370509709325619,1.7350146978467702,-0.1266255974769592,-0.0552491880953311,-0.0766487121582031
0.78339697265625,-0.4435447083748877,0.3812292681068182,1.803848580098152,-0.0888193771243095,-0.0073106908239424,-0.055154874920845
0.7933779296875,-0.5057619489654899,0.5251920045679435,2.0087743558377027,-0.0366489328444004,0.0975980088114738,-0.0040581934154033
0.80335791015625,-0.6693237409204245,0.666678925500065,2.18778301551044,0.0009338629897683,0.2173366546630859,0.0548147074878215
0.813338134765625,-0.7366431269556284,0.8737240314811467,1.9211469257891176,0.0111389700323343,0.277350902557373,0.0885234475135803
0.82331787109375,-0.6875256064347922,1.21551100458093,1.3204659284621476,-0.0200096275657415,0.2814154326915741,0.0986035168170929
0.833298828125,-0.3401531613528728,1.6858558224022389,0.5153226812541485,-0.0851706266403198,0.3001345098018646,0.0513499826192855
0.843279052734375,0.2592453949481249,1.9031867600761352,0.0281160874158143,-0.1681496649980545,0.47169029712677,-0.001495125121437
0.853259033203125,0.1435902864195406,1.696038047590107,-0.3054156099706888,-0.292386919260025,0.6949170231819153,-0.0201114472001791
0.863239013671875,0.0078751172892749,1.525093598037958,-1.0042360790103673,-0.4447104036808014,0.8586763739585876,-0.0415895730257034
0.873219970703125,0.0886344881992787,1.3455534618370235,-1.801187251934409,-0.6377545595169067,1.063722848892212,-0.0880344212055206
0.883199951171875,-0.0994036464296281,1.001176106917858,-2.0887270134747027,-0.782464861869812,1.3434640169143677,-0.1119839623570442
0.893179931640625,-0.4489754281867295,0.7573993531279265,-2.33435304839313,-0.852628231048584,1.655368089675903,-0.1238406375050544
0.903159912109375,-0.791325368931517,0.7435308406427502,-2.6461107208669183,-0.8502784967422485,1.9534783363342283,-0.1073239743709564
0.913140869140625,-0.8606852478183805,0.7911221745096146,-2.978644054865837,-0.782116711139679,2.213542461395264,-0.0796535983681678
0.92312109375,-0.5851385237475857,0.7595436716802417,-3.2041485082536934,-0.6476044654846191,2.3976008892059326,-0.0594604387879371
0.93310107421875,-0.2394989120739512,0.7151654546409845,-3.384157869401574,-0.4639750719070434,2.5184319019317627,-0.0442174077033996
0.943080810546875,0.3059207647475414,0.5361553336635232,-3.121803987044096,-0.2041205912828445,2.64912748336792,-0.0693688318133354
0.953061767578125,0.4779355652112513,0.2842298698073253,-2.5119734685778616,0.0623923353850841,2.687633991241455,-0.0803195089101791
0.9630419921875,0.1523831761408597,0.0941215778408572,-2.31611421186924,0.2592172622680664,2.634763240814209,-0.0374596640467643
0.973022216796875,-0.3092120796442031,0.0992914547594264,-2.1359645654678343,0.3618822395801544,2.5209314823150635,0.0419145748019218
0.983001953125,-0.295895355822891,0.2212470882043242,-2.038375128853321,0.3436800837516784,2.351354122161865,0.1384898424148559
0.99298291015625,-0.3847270470947027,0.1299137528425082,-1.428067056003213,0.5479860305786133,1.7230381965637207,0.2476474493741989
1.002962890625,-0.5299859973788261,-0.3311087810885161,0.6666571520596742,1.412718653678894,0.4889402687549591,0.2734763622283935
1.012943115234375,0.3237073457255959,-0.6482156325705349,1.7193243767619133,1.8489915132522583,0.3767042756080627,0.3011791408061981
1.0229228515625,0.4787928396277129,-0.3541506705125793,-0.4893032738566398,1.8613789081573489,0.1173611059784889,0.3067206442356109
1.032903076171875,0.6466789245225488,0.206935361996293,-0.7844815674513578,1.808337688446045,-0.1966527700424194,0.2805478870868683
1.042884033203125,0.4627100120939314,0.2589610250487923,0.7086100416481494,1.772234320640564,-0.3526575565338135,0.3317455649375915
1.052864013671875,-0.1622154919125139,-0.154840140838921,1.6757330723166466,1.6834795475006104,-0.3345549702644348,0.5103341937065125
1.062843994140625,-0.5820192592158914,-0.7219377983201295,2.9316584318071603,1.4775484800338743,-0.113858014345169,0.7063772082328796
1.072823974609375,-0.500712118230015,-1.006914285243675,3.5286645400136707,1.0694493055343628,0.101745456457138,0.8168299198150635
1.082804931640625,-0.2108471286125481,-1.1054842573281376,2.9605449190735813,0.5236788392066956,0.1006988361477851,0.8523405194282532
1.092784912109375,-0.2686957987301051,-1.0611955452032389,2.3117677070975304,-0.0411888137459754,-0.1039451658725738,0.8835237622261047
1.102764892578125,-0.8585815535373985,-0.7514109263680875,2.4019611882418395,-0.6143894791603088,-0.2668755054473877,0.9024242162704468
1.1127451171875,-1.4925298835635183,-0.246415723991394,2.8853309803962706,-1.223357081413269,-0.3558627665042877,0.8235434293746948
1.12272607421875,-1.7807871457234024,0.0440858099639415,3.028875527977944,-1.8976953029632568,-0.4700274467468261,0.6425811052322388
1.1327060546875,-1.836474692284316,0.0169034962669014,2.73788474920094,-2.675342321395874,-0.6119818687438965,0.4265533983707428
1.142685791015625,-1.8431696598783132,-0.1513465265695005,2.5829168903291224,-3.557536602020264,-0.3739772737026214,0.2378662973642349
1.152665771484375,-1.395372554755956,-0.2116665187040343,1.9883166742205616,-4.310269832611084,-0.2598475813865661,0.0611911639571189
1.16264697265625,-0.132385074859485,0.0963948930677026,0.4787894786268472,-4.583794116973877,-0.3528821766376495,-0.1201160475611686
1.172626953125,-0.5167785791508853,0.5703655732359737,1.7198142061054706,-4.414352893829346,0.0758572146296501,-0.2558352649211883
1.18260693359375,-0.5802723424833267,0.7411684954255819,1.544532458001375,-3.907477378845215,0.2711188495159149,-0.3768349289894104
1.1925869140625,-0.4920554221089929,0.7694787902392447,0.7243032853424549,-3.147735834121704,0.4635796248912811,-0.4567036628723144
1.202568115234375,-0.8044150790639221,0.7662034218303859,0.2091442702174186,-2.335045576095581,0.663794755935669,-0.5133815407752991
1.212548095703125,-0.8559246092878282,0.627399200643599,-0.6907341932177543,-1.6107754707336426,0.7603172063827515,-0.5979222059249878
1.22252783203125,-0.7187262158624828,0.2530566233105957,-1.7657716551601883,-1.0998128652572632,0.7062113881111145,-0.7342014908790588
1.232508056640625,-0.6336386795550585,0.1322591834574937,-2.859028079882264,-0.7911725044250488,0.6160879135131836,-0.8604620695114136
1.24248876953125,-0.4454951117902994,0.0512888732105493,-3.334772199463844,-0.604665994644165,0.4662582278251648,-0.9618624448776244
1.252468994140625,-0.146051415836066,-0.0546741317346692,-3.459147936195135,-0.45504030585289,0.2967803478240967,-1.0186622142791748
1.262448974609375,0.1798864654205739,-0.0846416922360658,-3.29057942199409,-0.3336361050605774,0.1343160718679428,-1.0252841711044312
1.272428955078125,0.4393417037270963,-0.0253273334801197,-3.110986240431666,-0.2402496635913849,0.0137436687946319,-0.966704249382019
1.282408935546875,0.6830350170172751,0.0882835558697581,-2.9387808310329917,-0.1873502284288406,-0.0974931120872497,-0.8652527332305908
1.292389892578125,0.927823578198254,0.1255740066051483,-2.7562761459380387,-0.1841132193803787,-0.1721955984830856,-0.740489661693573
1.302369873046875,1.1446196783430873,0.0898050663486123,-2.591285490223765,-0.2487329542636871,-0.1713316738605499,-0.6128028631210327
1.31235009765625,1.358815240600705,0.0304588511496782,-2.4131752406954763,-0.3510819375514984,-0.0972637757658958,-0.4945193827152252
1.322330078125,1.5168703979633749,-0.0835942290097475,-2.2341455382347104,-0.4549596011638641,0.0144031001254916,-0.3970522284507751
1.33231103515625,1.6186087709508836,-0.2211538569629192,-2.0020757349818945,-0.5160036087036133,0.1011479794979095,-0.3305735290050506
1.342290771484375,1.5761315652273595,-0.3159679836452007,-1.753650424733758,-0.5282091498374939,0.1764754951000213,-0.2864364385604858
1.352270751953125,1.5048383071251212,-0.4056616985738277,-1.5699977386474608,-0.5001717805862427,0.2013842761516571,-0.2467192858457565
1.362251220703125,1.3847285572752357,-0.5432552287966013,-1.3531377794861792,-0.4331059455871582,0.1792741864919662,-0.2088467478752136
1.37223193359375,1.2380837055906653,-0.7124070958435536,-1.0674357547670603,-0.3359289765357971,0.1206696629524231,-0.1710500717163086
1.3822119140625,1.1065180573552846,-0.8319701715961099,-0.7733446718871593,-0.2241955250501632,0.0545425787568092,-0.1325205117464065
1.39219189453125,1.0360007520616057,-0.8732254343092442,-0.4735258590102195,-0.1140320301055908,-0.0063697388395667,-0.0853490829467773
1.402171875,1.0342107999049126,-0.9545710076093672,-0.1351525668114423,-0.0136987697333097,-0.0699162259697914,-0.0406157001852989
1.412153076171875,1.0528531026631591,-1.054878763271868,0.1826665976583957,0.0512359514832496,-0.1253345012664795,0.0089929355308413
1.4221328125,1.1021123697422444,-1.1539473325282334,0.4377268158763647,0.0834245160222053,-0.1783087700605392,0.0554411299526691
1.432113037109375,1.1402043461188671,-1.2184595521882176,0.6534159776926041,0.079345129430294,-0.2216541469097137,0.1051032468676567
1.442093017578125,1.163701395431906,-1.272416767825186,0.8272481115102768,0.0443003289401531,-0.24652861058712,0.1498243659734726
1.45207421875,1.206915025671199,-1.3217068684339524,0.8502531395226717,-0.0237017292529344,-0.263176292181015,0.1832145452499389
1.46205419921875,1.2011434565324337,-1.3789169483870267,0.8065531140059232,-0.1173616424202919,-0.2683124542236328,0.2025887817144394
1.472033935546875,1.184666295918822,-1.4887091562315822,0.7083551901042461,-0.2032494992017746,-0.2732861340045929,0.2155511677265167
1.482013916015625,1.124650437830016,-1.673296492819488,0.6537269433379173,-0.2584869265556335,-0.2721364498138428,0.2264221906661987
1.491994873046875,1.0582592725556343,-1.838336248372495,0.5596978295534849,-0.2722115814685821,-0.25718554854393,0.2367021143436432
1.50197509765625,1.0093125054918228,-1.962162242266536,0.533171641677618,-0.2278835326433181,-0.2399490624666214,0.2439768016338348
1.511955078125,0.8856349801577628,-2.029134130038321,0.5787433062851428,-0.1442133784294128,-0.1799537241458892,0.2651852667331695
1.52193505859375,0.805220477162674,-2.015063519109785,0.6233119313299655,-0.030517965555191,-0.1259754449129104,0.289055198431015
1.5319150390625,0.723936643987149,-2.033569774398208,0.7040706446528434,0.0925917476415634,-0.0881471931934356,0.3083700835704803
1.541895751953125,0.5985534107137471,-2.08619544917047,0.7954664873242377,0.2034106701612472,-0.0593714751303195,0.3257685005664825
1.551875732421875,0.4231606034506112,-2.091087605126202,0.8915846823424101,0.2934594452381134,-0.029717244207859,0.3336494266986847
1.56185595703125,0.291449555395171,-2.0257038633286952,0.9966226813971996,0.3606310188770294,-0.0134778218343853,0.3226196765899658
1.571836181640625,0.1158818299565464,-1.9782216889247295,1.1277607518702746,0.4005222618579864,0.016529407352209,0.3092076480388641
1.581817138671875,-0.0225533387221395,-1.9404203660577533,1.2584843963235617,0.4208893179893493,0.0301733128726482,0.2818716168403625
1.591796875,-0.066253364238888,-1.9694062220454216,1.281387717527151,0.4324581325054168,0.0130797764286398,0.2443139553070068
1.60177685546875,-0.1087507359676063,-2.0498957630380987,1.2879875541836023,0.4236460030078888,-0.0211988352239131,0.204066663980484
1.611757080078125,-0.1439589736014604,-2.05775495210588,1.1777823816239834,0.4187038242816925,-0.0379145927727222,0.1664880067110061
1.621738037109375,-0.1896609135251492,-2.0057906638517973,1.1620131500840187,0.4480198919773102,-0.063116617500782,0.1417030245065689
1.631718017578125,-0.2505571346450597,-1.8304367272943256,1.0914987673997878,0.5101076364517212,-0.101518228650093,0.1298164129257202
1.641697998046875,-0.3662698916450143,-1.5459423247992992,0.9588415245354176,0.5875440835952759,-0.1297296285629272,0.1297604888677597
1.651677978515625,-0.4740551435813308,-1.1293573734119533,0.7797597996264696,0.664893627166748,-0.1400748193264007,0.1408934295177459
1.6616591796875,-0.4991630621571093,-0.6718339701756835,0.5150608154475689,0.710555374622345,-0.1646853536367416,0.1674978882074356
1.671638916015625,-0.580699408788979,-0.2145326852574944,0.1573030238211155,0.7090311646461487,-0.1564260125160217,0.2098234742879867
1.681618896484375,-0.5864965507604182,0.2595484695479274,-0.2298965508669614,0.668374240398407,-0.1813478767871856,0.2350116521120071
1.69159912109375,-0.5466346421018242,0.7595920408666134,-0.7695388498634099,0.5903648138046265,-0.2468477487564087,0.2341582775115966
1.701580322265625,-0.514929151891917,1.3415315128445624,-1.5471592993736267,0.4687716066837311,-0.3048737645149231,0.1929778158664703
1.711560302734375,-0.5026135679371655,2.1318777345456184,-2.489859251925349,0.3234514892101288,-0.2979415655136108,0.1085986867547035
1.721540283203125,-0.4215282530084252,3.0003216336667538,-3.3561645315825936,0.2041133642196655,-0.2786493301391601,-0.0211313422769308
1.7315205078125,-0.2989437105428427,3.925356165668368,-4.331870097157359,0.1067760065197944,-0.2896478176116943,-0.2013358026742935
1.74150146484375,-0.1777020340535789,4.775653728854656,-5.326154106473923,0.0221271719783544,-0.3577203452587127,-0.3912673592567444
1.751481201171875,-0.0187937669929116,5.350583614331484,-6.26511428797543,-0.0724287405610084,-0.4169008731842041,-0.5332775115966797
1.761461181640625,0.162152801939845,5.67864418683052,-7.015023139217496,-0.1897284686565399,-0.3761643767356872,-0.5760745406150818
1.77144140625,0.5116070217318832,5.73811928910613,-7.566468104210496,-0.3027324378490448,-0.2721009254455566,-0.5565730333328247
1.781422607421875,0.8219931135915219,5.422873774516583,-7.8566820533961055,-0.4016898870468139,-0.1058402881026268,-0.5095288157463074
1.79140234375,1.0049808329630645,5.034637842518091,-7.959832046747207,-0.4585671126842499,0.0903780236840248,-0.4750085473060608
1.80138232421875,1.1122146615616977,4.7094849741593,-7.98483672414422,-0.469725489616394,0.253577321767807,-0.4627942144870758
1.8113623046875,1.0941872758314013,4.4467081902146335,-7.867232673504948,-0.4274100661277771,0.3586241006851196,-0.455086201429367
1.821342041015625,0.9439580628540366,4.234987347507476,-7.662586299228668,-0.3533166646957397,0.3854977786540985,-0.4317824840545654
1.8313232421875,0.7893654670353979,4.027997917236387,-7.427104057183861,-0.2650558352470398,0.3222858011722564,-0.3856008648872375
1.841303466796875,0.6677675975196063,3.782032567360997,-7.09815734950006,-0.1894726604223251,0.1865034401416778,-0.3140177726745605
1.851283447265625,0.6131256144888698,3.466042079623043,-6.69738517653346,-0.1542921066284179,0.0045897597447037,-0.2311156392097473
1.86126318359375,0.6199691967733204,3.060646923030913,-6.231964298045635,-0.1664166748523712,-0.1777155995368957,-0.13626129925251
1.871244140625,0.6772092334732412,2.592672852928936,-5.688180076938867,-0.2359531670808792,-0.3121369779109955,-0.022417664527893
1.881224365234375,0.8398990648992359,2.068512492963672,-5.006546305021644,-0.3354070782661438,-0.4123751521110534,0.088129349052906
1.891204345703125,1.0220173810251056,1.4262880636319517,-4.219204671964049,-0.452357143163681,-0.4647409915924072,0.1838336288928985
1.901184326171875,1.1707453225940463,0.715576665790379,-3.3911604416400194,-0.5841713547706604,-0.4624283015727997,0.2678417265415191
1.911165283203125,1.3055524369686842,0.0226192435652017,-2.48924258133173,-0.7126211524009705,-0.4073608517646789,0.3494229614734649
1.921145263671875,1.4009303350135682,-0.6005138240665197,-1.636926664060354,-0.8229652047157288,-0.3173012733459472,0.438224732875824
1.93112548828125,1.390581667217612,-1.1906243275403976,-0.7186679098039865,-0.8583487272262573,-0.2257707118988037,0.5263182520866394
1.941105224609375,1.2582269144311546,-1.9753575316652652,0.6705085667908192,-0.7251158356666565,-0.1836123466491699,0.610791027545929
1.951086181640625,0.984987700117752,-2.941015458217263,2.2854437637954947,-0.4229136407375335,-0.2182210683822631,0.7049571871757507
1.961066162109375,0.6487264316368848,-3.553179388067126,3.755717976409197,0.0102857379242777,-0.2943584620952606,0.7559231519699097
1.97104638671875,0.4580299645189196,-3.7650019375830888,5.148211030206084,0.504889965057373,-0.3928443193435669,0.75401771068573
1.981026611328125,0.3589859451819211,-3.9083714208588,6.342715414050221,1.0059131383895874,-0.4939056634902954,0.7052885293960571
1.99100732421875,0.3299701689800247,-4.076942565408348,7.420792974340915,1.4547849893569946,-0.5569556951522827,0.6213160753250122
2.0009873046875,0.3896687412805855,-4.2261178123533725,8.296935172879696,1.8076945543289185,-0.5898614525794983,0.5181111097335815
2.01096728515625,0.474980953189358,-4.299535807524621,9.00999576419592,2.055126905441284,-0.5689515471458435,0.40860316157341
2.020947021484375,0.5990470029169693,-4.307584381684661,9.610600773677229,2.1905438899993896,-0.4938229918479919,0.2938696444034576
2.03092822265625,0.7295416974525898,-4.255985711872578,10.102041644084451,2.231126070022583,-0.374612957239151,0.1959731727838516
2.040908447265625,0.7116095887903123,-4.122295034307241,10.491288798952102,2.198155641555786,-0.2404538244009018,0.1275123506784439
2.050888427734375,0.5997652341889217,-3.8390573538750408,10.786159049510957,2.119955778121948,-0.0949878394603729,0.0889501869678497
2.060868408203125,0.4333360701041296,-3.443213284960389,11.020575708150863,2.0189075469970703,0.0335277952253818,0.0662227645516395
2.07084814453125,0.2517619073249399,-2.937608572383225,11.05706039546132,1.8694398403167725,0.1658521145582199,0.0607104413211345
2.080829345703125,0.1351582658998668,-2.4245060513965786,11.085492709219457,1.698214054107666,0.2735945284366607,0.0617520064115524
2.090809326171875,-0.0116061935763806,-2.052306623572111,11.001598620480298,1.4914119243621826,0.3400827050209045,0.0784202963113784
2.10078955078125,-0.1808537395501509,-1.7758916287668047,10.87932248637676,1.2518248558044434,0.3877751231193542,0.1085904464125633
2.110769287109375,-0.3509650627464056,-1.5946201387286183,10.685654017710686,0.9759598970413208,0.4025512337684631,0.1528967320919037
2.12075048828125,-0.458406506213732,-1.523403745254874,10.361920076239109,0.6588655114173889,0.3898543417453766,0.2016024887561798
2.13073046875,-0.54443033699058,-1.6231071052834392,9.982960506629944,0.3169446289539337,0.3693340718746185,0.2547760903835296
2.14071044921875,-0.6687453565105795,-1.8217139071345327,9.52426630604863,-0.024696048349142,0.3660336136817932,0.3101620972156524
2.150690185546875,-0.8241231113575398,-1.9820561525210736,8.907240907642246,-0.3255192935466766,0.3119129240512848,0.3536381721496582
2.160671142578125,-0.960114978537336,-2.0286422548681498,8.157674586227536,-0.5697125792503357,0.2562198340892792,0.3756177723407745
2.1706513671875,-1.129526373303309,-1.8938880397245288,7.509708690634369,-0.7511112093925476,0.2905497848987579,0.3945187926292419
2.180631591796875,-1.2167723297536372,-1.56038498391062,6.661158847898244,-0.8949733376502991,0.3323603570461273,0.4218281805515289
2.190611328125,-1.300233580033481,-1.2305547713905571,5.419512773650884,-1.029968500137329,0.3737039864063263,0.4619474411010742
2.20059228515625,-1.395493843048066,-0.8413841888904571,3.886099091035128,-1.1751052141189575,0.4239948689937591,0.5244715809822083
2.210572265625,-1.4632245863631368,-0.1818824615433812,2.33556651583612,-1.3162764310836792,0.5350353717803955,0.5843273997306824
2.22055224609375,-1.4304811314076185,0.7902272714965045,0.6615384938716888,-1.4823261499404907,0.6856610774993896,0.6192164421081543
2.230532470703125,-1.218938640942052,2.05148347062096,-1.5597364568740129,-1.7109456062316897,0.7568672895431519,0.6015881896018982
2.240513427734375,-1.0241878569319844,3.476111930477619,-4.402667972958088,-2.0332605838775635,0.750732421875,0.4929864108562469
2.250493408203125,-0.6794770322747529,4.7074902932107445,-7.266708912566304,-2.406712770462036,0.6611894965171814,0.2566350996494293
2.260473388671875,-0.2487308690659701,5.374949409303069,-10.080224949073791,-2.770447015762329,0.5192912220954895,-0.0846908167004585
2.270453125,0.1748977172225713,6.073155545836687,-12.914147229272126,-3.062058448791504,0.3678333163261413,-0.4612026810646057
2.280434326171875,0.564460806171596,7.304768301847576,-15.73703373619318,-3.2022407054901123,0.225207969546318,-0.8089510798454285
2.290414306640625,0.8711091728076338,8.593516903531551,-18.077272335493564,-3.138180732727051,0.1886328011751175,-1.077684760093689
2.30039453125,1.3752286152631044,9.248106601178646,-19.63053638148308,-2.807187795639038,0.1769963949918747,-1.2928907871246338
2.310374267578125,2.024224292295426,9.113671242725848,-20.23244195216894,-2.215920925140381,0.2758457064628601,-1.4510691165924072
2.32035546875,2.5724486878067254,8.415902328565716,-19.71485015693903,-1.376131296157837,0.5479915142059326,-1.5484436750411987
2.33033544921875,2.8834572954788804,7.497597981601953,-18.041103290003537,-0.3605186343193054,0.945603609085083,-1.5541691780090332
2.3403154296875,2.987969224832952,6.502760430055856,-15.90467695224285,0.6327145099639893,1.3331966400146484,-1.4613817930221558
2.350295166015625,2.947970099660754,5.909260284143686,-13.73401282931566,1.4289271831512451,1.580982685089111,-1.3117775917053225
2.360275390625,2.693228445872664,5.683422068756818,-11.667582987844945,1.944781184196472,1.6165618896484375,-1.0981701612472534
2.370256591796875,2.192071360354125,5.424163229805231,-9.742646606644987,2.1614043712615967,1.4653843641281128,-0.8406534790992737
2.380236572265625,1.6229858169913292,5.135274391743541,-8.143664765575528,2.1143152713775635,1.1325925588607788,-0.5742934346199036
2.39021630859375,1.0738000291019678,4.63366342497766,-6.87470982864201,1.8544621467590328,0.6715220808982849,-0.3470768928527832
2.4001962890625,0.6403204954065382,3.8536759540751575,-5.743394599160552,1.4607287645339966,0.1245572194457054,-0.1660554409027099
2.41017724609375,0.3296912424407899,2.763676485322416,-4.54447882861495,1.0076026916503906,-0.4090271890163421,-0.0146493464708328
2.4201572265625,0.0732785867005586,1.6405328718587755,-3.221353325554728,0.583623468875885,-0.8076121211051941,0.1458021104335785
2.430137451171875,-0.1288930680252611,0.7119970537379383,-1.8218325650781395,0.2343510091304779,-0.9886781573295592,0.3258875608444214
2.440117431640625,-0.2067909850895404,-0.0499225532934069,-0.3168412593483924,0.0120862508192658,-0.9755335450172424,0.5040637254714966
2.450098388671875,-0.1628475062057375,-0.8249035942107439,1.2987129463374614,-0.052027903497219,-0.8704631924629211,0.636391818523407
2.460078369140625,-0.1430893511600792,-1.4969108751267193,2.795692210525274,0.0042012832127511,-0.7116658687591553,0.7057376503944397
2.47005810546875,-0.1608763522632419,-1.924728875929117,4.056382007938623,0.1265669912099838,-0.5090543031692505,0.7218434810638428
2.480038330078125,-0.3119388742595911,-2.2459771380648017,5.146560340389609,0.2680729925632477,-0.2750503420829773,0.6934608817100525
2.490019287109375,-0.5420055209964514,-2.458074120607972,6.073693890497088,0.4123249053955078,-0.0495122335851192,0.6192444562911987
2.49999951171875,-0.7668840975709259,-2.577352534200251,6.899098419967293,0.5566293001174927,0.1426068842411041,0.4902328848838806
2.509979248046875,-0.9695416361175476,-2.7493834638148544,7.674096119758486,0.684812605381012,0.3239871263504028,0.3275000751018524
2.519959228515625,-1.2223226573571562,-3.0384234007850286,8.326601412346958,0.8000491857528687,0.4775077104568481,0.1556555926799774
2.5299404296875,-1.4415461307793855,-3.4042537319689985,8.926327885428071,0.9051535725593568,0.5901395678520203,-0.0116011584177613
2.53992041015625,-1.6761881226077675,-3.776105515399575,9.591991934797168,1.0284284353256226,0.6637914180755615,-0.1697218269109726
2.549900146484375,-1.96911045396924,-4.02489761313349,10.195953268969058,1.1462082862854004,0.7049403190612793,-0.2890398204326629
2.55988037109375,-2.2798301616974173,-4.012599564835429,10.532668272566797,1.238413691520691,0.6958120465278625,-0.3663356900215149
2.569861572265625,-2.4857407106906173,-3.7646255054861295,10.650150158131122,1.2916890382766724,0.6420015692710876,-0.3943186104297638
2.579841552734375,-2.6090567092359063,-3.4340029735445974,10.677006600874662,1.3117141723632812,0.544020414352417,-0.3878218233585357
2.5898212890625,-2.688677942961454,-3.135024995405972,10.672677631759642,1.2892463207244873,0.4226002693176269,-0.3564247190952301
2.59980126953125,-2.7128175279617306,-2.8915806884408,10.67570545514822,1.2353981733322144,0.2972324788570404,-0.3114966750144958
2.6097822265625,-2.708133754059672,-2.6889719574719666,10.6660433083117,1.1452960968017578,0.1703559160232544,-0.2489985525608062
2.619762451171875,-2.675180748006701,-2.6778356464296578,10.690360587966442,1.0383036136627195,0.0689190402626991,-0.1906231194734573
2.629742431640625,-2.33290781802088,-2.3975091772690416,10.590054293608665,0.87571120262146,-0.0059903543442487,-0.1220674961805343
2.639722412109375,-2.601143744154274,-2.192112715277821,10.264012659716606,0.6755558848381042,-0.0457534901797771,-0.0388107486069202
2.649703369140625,-2.545539053571224,-2.1496634204745293,10.21920554974079,0.4776408970355987,-0.0509758591651916,0.0191664844751358
2.659683349609375,-2.4350030416220427,-2.194358302247524,10.02377182496786,0.2818714082241058,-0.0408334732055664,0.0687297731637954
2.6696630859375,-2.4001456632524727,-2.2656641275703904,9.885773221075532,0.1096311882138252,-0.0274151377379894,0.0941720157861709
2.679643310546875,-2.361697859175503,-2.247026647117734,9.676343704175949,-0.0298164524137973,-0.0327691584825515,0.1008648052811622
2.68962353515625,-2.3786031090080737,-2.1639311614103613,9.10294234344065,-0.1893219351768493,-0.0882033258676529,0.0987794622778892
2.69960400390625,-2.4571499915003776,-2.1000209992967545,8.18702401483059,-0.4038161337375641,-0.1415096968412399,0.1146066337823867
2.709583740234375,-2.577932672175765,-2.0052710238918663,7.068494617164134,-0.6829243898391724,-0.1675346493721008,0.1617518365383148
2.71956396484375,-2.51041045704484,-2.080037511062622,5.815809262508154,-0.9846959114074708,-0.2034502923488617,0.2187618613243103
2.7295439453125,-2.2931895556166766,-2.3385008157223464,4.529548970508575,-1.25922954082489,-0.2091055810451507,0.256355881690979
2.73952490234375,-1.8226361365459856,-2.4956249758452174,3.445892733302712,-1.436648726463318,-0.1740096509456634,0.251536875963211
2.7495048828125,-1.3158692483216523,-2.5610084253817798,2.0661136151283976,-1.4897544384002686,-0.1713645011186599,0.1907655745744705
2.75948486328125,-0.9776853412151336,-2.292767823073268,0.3985194256037473,-1.3589808940887451,-0.2318600714206695,0.1020580604672432
2.769465087890625,-0.8180302013099193,-0.855745745589584,-1.5086410604089495,-0.9943832755088806,-0.4003168642520904,0.0417405180633068
2.779446044921875,-0.8497207862116396,1.6274942343264818,-3.030319297045469,-0.3992809951305389,-0.7078245878219604,0.0714696571230888
2.78942578125,-0.7997467949919402,4.453257757988572,-4.477198021024465,0.2228872925043106,-1.222895264625549,0.1780971735715866
2.79940576171875,-0.2883238976553082,7.483365458109974,-7.573160879847407,0.2899025678634643,-2.0111234188079834,0.3380831182003021
2.809385986328125,0.7510152050487696,10.27066218073368,-13.34133803808689,-0.620992124080658,-2.718821287155152,0.572898268699646
2.819366943359375,1.9436007496595384,11.01522850190401,-19.256919341945647,-2.2416329383850098,-3.0369648933410645,0.8291947245597839
2.829346923828125,3.08449629291296,9.972829573237895,-23.46925062100887,-3.905439376831055,-3.018784046173096,0.9396582841873168
2.839326904296875,3.7580244997859,9.332259633114932,-25.4872843881011,-4.843185901641846,-2.649878740310669,0.8410478234291077
2.849306884765625,3.5987224111020564,9.943774159145354,-25.01852822771072,-4.553141117095947,-1.993419885635376,0.615423858165741
2.859287841796875,2.574202253475785,10.149961917644738,-23.079832785749435,-3.1821494102478027,-1.3786017894744873,0.3926885426044464
2.869267822265625,1.9572281468652188,10.119474424922466,-19.24171475855112,-0.966499924659729,-0.6024225950241089,0.0679445415735244
2.879248046875,1.4734250778600573,9.834206699967384,-16.323622495281697,1.1243435144424438,0.0489580705761909,-0.2912317216396332
2.88922802734375,1.528742622064799,8.165655063587426,-14.460158527654407,2.4435808658599854,0.7250986695289612,-0.6411649584770203
2.899208984375,1.8482265048764648,6.683574093323946,-12.01008008197546,2.961559534072876,1.3690505027770996,-1.0254663228988647
2.909188720703125,2.2424602159850298,6.479691689157486,-9.677932434672115,2.9979946613311768,1.7346036434173584,-1.3830301761627195
2.9191689453125,2.2304583741545674,5.735977600902318,-7.278345574346185,2.732616424560547,1.8965020179748533,-1.589943766593933
2.92914892578125,2.0272639522522686,4.3837379392996425,-5.3302270550012585,2.247988224029541,1.8241559267044067,-1.645158290863037
2.9391298828125,1.8575450989723203,2.6390309917390344,-4.055610439044237,1.5953891277313232,1.5791845321655271,-1.58756685256958
2.94910986328125,1.7372580928593873,0.7457097921170294,-2.9755671316385266,0.8861925005912781,1.2616499662399292,-1.463244080543518
2.95908984375,1.5501365616187452,-1.019175581727922,-1.71893859231472,0.2465488910675048,0.95404851436615,-1.275107979774475
2.969070068359375,1.1807435695171355,-2.377787847102433,-0.202543264517188,-0.2438010573387146,0.7953725457191467,-1.0055389404296875
2.979051025390625,0.7422212193489074,-3.0721859696552154,1.369852767443657,-0.5461878180503845,0.7999960780143738,-0.71523517370224
2.98903076171875,0.7830004620481282,-3.335626185944676,2.6967642187833785,-0.6475597620010376,0.7543280124664307,-0.5240654945373535
2.9990107421875,0.8837631218712776,-3.539876838901639,3.6722044114202257,-0.6053497195243835,0.6920233368873596,-0.4399231970310211
3.008990966796875,0.8976241817023605,-3.805937759083509,4.609295291918516,-0.4962013959884643,0.6642118692398071,-0.4233545958995819
3.01897119140625,0.8663207694873213,-4.161797315873206,5.437330754414201,-0.372088760137558,0.685207724571228,-0.436347633600235
3.028951904296875,0.8527620536036788,-4.518075974857807,6.099944184041023,-0.274761289358139,0.7481293678283691,-0.4553758203983307
3.038931884765625,0.7748033462628722,-4.837929275503754,6.660273297235369,-0.2089122086763382,0.8413136601448059,-0.4596413969993591
3.048911865234375,0.6381954660765826,-5.0238078209459776,7.113987371316552,-0.1710273325443267,0.9361803531646729,-0.4546026289463043
3.0588916015625,0.463987338553369,-5.100319398218393,7.45711516456604,-0.1474327892065048,1.0240845680236816,-0.4252085089683532
3.068872802734375,0.186947197587043,-5.121399011126161,7.732170123064518,-0.1118435710668563,1.0803369283676147,-0.3728324472904205
3.078852783203125,-0.1360020232476294,-5.146021995729208,8.029792302680015,-0.0473873503506183,1.104592204093933,-0.2898416817188263
3.0888330078125,-0.4979933607906103,-5.185211850345135,8.310900569868087,0.0487330257892608,1.096986174583435,-0.2041119784116745
3.098812744140625,-0.893663096051663,-5.17117631072998,8.566340142792463,0.1742544770240783,1.0939429998397827,-0.0973530486226081
3.108793701171875,-1.3316823190033436,-5.0135085452497,8.755934493887423,0.3142507672309875,1.096820831298828,0.0175464879721403
3.11877392578125,-1.6595706036753952,-4.69928272909671,8.861285212153195,0.4616058468818664,1.0585639476776123,0.1068657115101814
3.12875390625,-1.904666915631294,-4.380397688961029,8.895750960856676,0.6015918850898743,0.9699463248252868,0.1686678975820541
3.138734130859375,-2.120024069014192,-4.1959044603973625,8.9319428027004,0.7206119894981384,0.8608134388923645,0.2050221711397171
3.148714599609375,-2.3201970972687005,-4.205933686980605,9.0539886351794,0.8424199819564819,0.758983850479126,0.2223715186119079
3.15869482421875,-2.5296593473941087,-4.436398685385287,9.482739532917735,1.0140689611434937,0.7147066593170166,0.2356332540512085
3.168675048828125,-2.7799767549991605,-4.822146599960327,10.42015949923992,1.3200907707214355,0.7540004849433899,0.2491334080696106
3.178655029296875,-3.070202394622564,-5.0670074957251545,11.701150910925865,1.783138632774353,0.8435364961624146,0.2468947619199752
3.1886357421875,-3.300849763856828,-4.727942129608988,12.747746706759928,2.3446414470672607,0.9445040225982666,0.2063980400562286
3.19861572265625,-3.501994852013886,-3.72732599466145,13.285586340248583,2.9096806049346924,1.0516512393951416,0.139380931854248
3.208595947265625,-3.757583770281076,-2.3917048749044536,13.362899881553648,3.392305374145508,1.1487135887145996,0.0654459595680236
3.218576171875,-3.9511338732644914,-1.1365453852199017,13.209778527331352,3.74167275428772,1.1845475435256958,0.0159721449017524
3.228556884765625,-4.107719688726961,-0.1785537555120885,13.010975618386269,3.939356803894043,1.1108074188232422,0.0013090919237583
3.238536865234375,-4.199847937326133,0.4092393743975088,12.404494410347938,3.893158197402954,0.9434855580329896,0.0341554544866085
3.248516845703125,-4.213799598050117,0.685150474801287,11.10431665215492,3.5139684677124023,0.8106854557991028,0.1467810720205307
3.25849658203125,-4.115120028111338,0.9334374725572764,9.454241752707958,2.803487062454224,0.6914994120597839,0.334660142660141
3.268477783203125,-3.903170052823424,1.236439153254032,7.687180057737231,1.888175368309021,0.4234525859355926,0.5504342317581177
3.278457763671875,-3.5473689482226964,1.1376933862112462,5.731994668745994,0.8236648440361023,-0.0385936275124549,0.7487899661064148
3.28843798828125,-2.7691847273498773,0.8566271315339952,3.381594740915298,-0.2950766980648041,-0.6472877264022827,0.9058268070220948
3.29841796875,-1.512236162291467,0.8640858500421047,0.6396329515337944,-1.4206262826919556,-1.3084763288497925,1.023235559463501
3.30839892578125,-0.1785334433764219,1.3294240186825397,-2.8482448200613257,-2.5487701892852783,-1.8699939250946045,1.2267911434173584
3.31837890625,0.7834966480672358,3.0117183492109176,-6.972013434052467,-3.5871050357818604,-2.326976776123047,1.5582209825515747
3.32835888671875,1.668202384550869,5.586529382234811,-10.65999818292856,-4.370589733123779,-2.7416582107543945,1.931589961051941
3.338339111328125,2.141761853569746,6.785664348489045,-14.39407832802534,-4.8852858543396,-3.1876299381256104,2.3017709255218506
3.348319580078125,2.3979060676321384,6.960265713113546,-18.55404813621044,-5.1701483726501465,-3.6024656295776367,2.54154896736145
3.358300048828125,2.809843485474586,7.622552395004034,-23.000136733222007,-5.2919230461120605,-3.7631583213806152,2.4977285861968994
3.368280029296875,3.13013225492835,8.199027756357193,-27.00716989610195,-5.132381439208984,-3.425719976425171,2.120845079421997
3.378260009765625,3.4705455285221336,7.585645682889223,-28.589674065101143,-4.250332832336426,-2.4051618576049805,1.3933676481246948
3.38824072265625,3.657534081032872,6.586440583783388,-26.367258712148665,-2.4099841117858887,-1.0694711208343506,0.4777408242225647
3.398220703125,3.5866020574584603,6.243740076035261,-23.24348488633633,-0.1448154300451278,0.2898604273796081,-0.374539703130722
3.408200927734375,3.251557909682393,6.02607698379755,-20.327807867515087,1.664917230606079,1.6518385410308838,-0.989152193069458
3.41818115234375,3.0108146783694623,5.721407808279991,-17.514316965448856,2.680333375930786,2.765300750732422,-1.435754418373108
3.428161865234375,2.817173389971256,5.792795466667413,-14.467135380929708,3.0529685020446777,3.380983352661133,-1.7672985792160034
3.438141845703125,2.3251769315078854,5.553593327316642,-11.524209120655058,3.0116758346557617,3.441283941268921,-1.9503836631774905
3.448121826171875,1.7220966179542243,4.425824099878967,-9.26165523405969,2.599406242370605,3.103062391281128,-2.010511636734009
3.458101806640625,1.3063371576055884,2.944059940479696,-7.610187418949604,1.9219627380371092,2.545445203781128,-2.0208003520965576
3.468082763671875,1.132887739495188,1.5349439609229565,-6.265294905239343,1.1161959171295166,1.8746601343154907,-2.004641532897949
3.478062744140625,1.1010650526463983,0.332107217541337,-5.076773102936149,0.3069824576377868,1.198225021362305,-1.9379045963287356
3.48804296875,1.097197855824232,-0.6022913551330566,-3.923298064094781,-0.3788645267486572,0.5963751673698425,-1.7996978759765625
3.49802294921875,1.118942070120573,-1.3544386329516769,-2.7001825027942656,-0.8340640068054199,0.1149368733167648,-1.5884575843811035
3.508004150390625,0.9464955454424024,-1.917441787660867,-1.3653057716637849,-1.036656618118286,-0.1099135503172874,-1.2614020109176636
3.51798388671875,0.823855254201591,-2.4226610080517825,0.0690595077008009,-0.9882349967956544,-0.1881186068058014,-0.864033579826355
3.5279638671875,0.6194508719876408,-3.087543990045785,1.2963123149365186,-0.7741035223007202,-0.2113651037216186,-0.4571986198425293
3.537944091796875,0.2072624019935727,-3.5446886230975387,2.305670559266209,-0.4856488108634949,-0.2093909084796905,-0.0923394188284874
3.547924560546875,-0.2761008142895996,-3.5641315747141835,3.233295692282915,-0.1807266920804977,-0.2467754334211349,0.1989984959363937
3.557905029296875,-0.7323812317274511,-3.4202871674031017,4.1878538404107095,0.1379958987236023,-0.3308216035366058,0.4171095192432403
3.567885009765625,-1.1712835211239754,-3.3829595995277164,5.234560695403814,0.4242075085639953,-0.4146177172660827,0.5788609385490417
3.577864990234375,-1.5345250048585235,-3.394046810731292,6.226086345922947,0.6606628894805908,-0.479009747505188,0.6761829853057861
3.5878447265625,-1.7914160917654631,-3.312004487338662,7.038861110922694,0.8393506407737732,-0.5274208784103394,0.7125912308692932
3.59782568359375,-1.9914730924248691,-3.1887247291505334,7.821302696979045,0.9745550751686096,-0.5383217334747314,0.711110532283783
3.607805908203125,-2.155567091560364,-3.082946140861511,8.62940070233941,1.073707103729248,-0.4767832458019256,0.6817626953125
3.6177861328125,-2.263192915151268,-2.94592602661252,9.388752504709364,1.1324912309646606,-0.3326726853847503,0.6359038949012756
3.627765869140625,-2.199370139060169,-2.8027257624238726,10.005836355304718,1.158416748046875,-0.1832574903964996,0.5530235171318054
3.637746826171875,-2.063590964782983,-2.58778040471226,10.451295811259746,1.1341686248779297,-0.0216691233217716,0.4413816630840301
3.647726806640625,-1.9374540635980664,-2.291008704446256,10.826934127491713,1.0565683841705322,0.182518184185028,0.3234653174877167
3.657706787109375,-1.8821803585350512,-2.104682561367005,10.996222188138962,0.9068915247917176,0.4156707525253296,0.2190930843353271
3.667686767578125,-1.7859385371372103,-2.008538208994269,10.869921036303042,0.6836612224578857,0.6501854658126831,0.1276774853467941
3.677667724609375,-1.7994407005280255,-2.0607152632161974,10.51283427580595,0.4070815145969391,0.8657550811767578,0.0604244135320186
3.68764794921875,-2.07694480574429,-2.2394573809072376,10.23261915806532,0.1566956043243408,0.997780978679657,0.0414330959320068
3.6976279296875,-2.5074954463809727,-2.416060294612497,9.932374813252688,-0.0188000556081533,1.0099650621414185,0.0744749382138252
3.707607421875,-2.942984712463617,-2.5667732725188133,9.4983784160763,-0.1110787689685821,0.9027284979820251,0.1388963609933853
3.71758837890625,-3.2548212953925133,-2.7071225311905143,9.05451353583634,-0.1000580713152885,0.7436285614967346,0.2277511358261108
3.727568359375,-3.429553885181248,-2.7298361750409006,8.799758438044785,0.0197225008159875,0.5301167964935303,0.3228222131729126
3.737548828125,-3.4456504489794373,-2.780991777260601,8.28167096825242,0.2024603486061096,0.2760273218154907,0.4173162281513214
3.747528564453125,-3.4564798860296606,-2.841349799850583,7.665638672536611,0.4250445365905761,0.0176740437746047,0.50382399559021
3.757509521484375,-3.324854324300587,-2.714040932276845,7.219674189668893,0.670572817325592,-0.1809889823198318,0.5785768032073975
3.767489501953125,-2.9884415185198185,-2.3694636708714065,6.662672759592533,0.8748850226402283,-0.3176348805427551,0.631327211856842
3.777469482421875,-2.4952614032298324,-2.011396082643419,5.976806464672088,0.9926106333732604,-0.397443950176239,0.673906147480011
3.78744921875,-1.8850670198872683,-1.866513856717199,5.229281293696165,0.9821157455444336,-0.4293771982192993,0.6986067891120911
3.797430419921875,-1.282683894817531,-1.9863105950951576,4.169436140188575,0.8244917988777161,-0.3952594399452209,0.7302352786064148
3.80741064453125,-0.8681497384801506,-2.152219096306711,3.0352929938048123,0.559414803981781,-0.3185363113880157,0.7685601711273193
3.817390625,-0.5904699844360352,-2.281743447972834,1.8495459169119597,0.3110893666744232,-0.271440714597702,0.7932634353637695
3.827370361328125,-0.547672168456018,-1.9746562515281136,0.8771277024447918,0.1699572950601577,-0.3152063190937042,0.8062039613723755
3.8373515625,-0.6657718936577439,-0.5282798875806853,-0.5597790780961514,0.1286207735538482,-0.5731193423271179,0.7915863990783691
3.84733154296875,-0.5922571601137518,1.700345681656152,-2.4866098947405813,0.1285462826490402,-1.0746878385543823,0.7405830025672913
3.8573115234375,-0.3008252134405076,3.251224732205272,-4.141128329592943,0.0907286033034324,-1.586162805557251,0.6719064712524414
3.86729150390625,0.2952338231742382,3.494669039170444,-5.497625356379151,-0.0964760482311248,-1.957361102104187,0.5490936636924744
3.8772724609375,1.345747376973927,3.6277863007619975,-7.582509138429164,-0.6887889504432678,-2.174622774124145,0.3247431218624115
3.887252685546875,3.1104397124648093,4.633834397630393,-11.83391102964282,-1.9490195512771609,-2.175753116607666,-0.0079301353543996
3.897232666015625,5.318378211775422,4.79779395673126,-17.063211028039454,-3.573606491088867,-1.719455361366272,-0.4383491575717926
3.90721240234375,6.590031886273622,3.453207732491195,-19.47335143108368,-4.628182888031006,-0.715955376625061,-0.9096919894218444
3.917193359375,6.7349512293398375,3.3314147057294843,-18.49049190210104,-4.431554794311523,0.4353345036506653,-1.350272536277771
3.92717333984375,6.031773734134435,5.245469042909145,-16.35875342989564,-3.065934419631958,1.371116042137146,-1.5955883264541626
3.93715380859375,4.9114229662597175,6.611591976174712,-14.192258117085697,-1.205713152885437,2.0755655765533447,-1.554978847503662
3.947133544921875,4.070193967930972,5.786841526699066,-12.569834610152244,0.2174612581729889,2.5859506130218506,-1.4095526933670044
3.957114501953125,3.922575595039129,4.014762880349159,-11.411936494171618,0.8878247141838074,2.8026554584503174,-1.3403533697128296
3.967094482421875,3.482692185650765,3.198626822222769,-9.671721305072309,1.048468828201294,2.6780946254730225,-1.275442361831665
3.977074462890625,2.595515675139427,3.019780075113476,-7.559850731897353,0.9208227396011353,2.281355857849121,-1.108986496925354
3.987054443359375,1.590256975083053,2.788353245939314,-5.485856592652201,0.6466806530952454,1.7682321071624756,-0.8457366824150085
3.997035400390625,0.7942945209354162,2.379531037507951,-3.6795869228869673,0.2731859087944031,1.184717297554016,-0.5643870830535889
4.0070146484375,0.7182628361344338,2.3724206209808587,-3.704406891366839,-0.1649617105722427,0.6040742993354797,-0.2995837330818176
4.016994384765625,0.2952829230129719,1.8096014445364477,-2.2427941241145133,-0.6361423134803772,0.0792531594634056,-0.0692956820130348
4.026974365234375,0.0652104310572147,1.277144673129916,-1.1279384465247393,-1.101317286491394,-0.3260635435581207,0.1348530352115631
4.03695556640625,-0.0562085016950964,0.8174958021722734,-0.1991360864222049,-1.523766279220581,-0.6518520712852478,0.3049403429031372
4.046935546875,-0.0522761306822299,0.3837735457621514,0.563830399313569,-1.87455689907074,-0.8857831954956055,0.4430597424507141
4.05691552734375,-0.015080372492969,-0.1157500933356583,1.0051666378587485,-2.134917736053467,-1.0404685735702517,0.5677334666252136
4.0668955078125,-0.0490706126391887,-0.7555966876201331,1.2997872975707054,-2.2852368354797363,-1.1042712926864624,0.6996638178825378
4.07687646484375,-0.2017752027541398,-1.550433498738706,1.2021166124135254,-2.2363719940185547,-1.049039006233215,0.8262369632720947
4.0868564453125,-0.451702441997826,-2.3560011088386177,1.409039699450135,-1.96348774433136,-0.9702997803688048,0.9124555587768556
4.09683642578125,-0.6246773744642734,-2.911668659962713,2.01120362881124,-1.4980779886245728,-0.8952316641807556,0.9550392627716064
4.10681640625,-0.7768827828854322,-3.2505417183771725,2.520015320736169,-0.9183843731880188,-0.8337605595588684,0.9453389644622804
4.11679736328125,-0.9306348362267016,-3.4860660459980366,3.038460517925024,-0.3019717931747436,-0.7450743913650513,0.9051206707954408
4.126777587890625,-1.1151342022702098,-3.720989192855358,3.6174060687839984,0.2607805430889129,-0.6243008375167847,0.831963300704956
4.13675732421875,-1.288753862380981,-3.893195771297812,4.139228048929572,0.7013233304023743,-0.4695495367050171,0.7376402616500854
4.146737548828125,-1.4166006362237036,-3.936621071526408,4.585271442252397,1.0238014459609983,-0.2914108037948608,0.6079272031784058
4.156718505859375,-1.523302476837486,-3.876051159751415,5.035181447875499,1.235812067985535,-0.1033386662602424,0.4474286139011383
4.166698486328125,-1.5723501469925043,-3.741934365728498,5.5682823624044655,1.3532565832138062,0.0779098942875862,0.2726936042308807
4.17667822265625,-1.6122792756684123,-3.66770242382586,6.014660686770081,1.392946481704712,0.2816616892814636,0.1184020191431045
4.186658447265625,-1.6407799784876405,-3.6365421464085577,6.417232602635026,1.391262412071228,0.4978051483631134,0.0126535026356577
4.1966396484375,-1.7047712430134414,-3.5403663759842514,6.794784059011936,1.362504005432129,0.6956990957260132,-0.0394922569394111
4.20661962890625,-1.7782286934122442,-3.430111519064009,7.093862867176532,1.3381885290145874,0.861210823059082,-0.0522765442728996
4.216599609375,-1.931243372389674,-3.315860578244924,7.338571202728151,1.3147412538528442,0.961256742477417,-0.0495265610516071
4.226579345703125,-2.071266175585985,-3.1479721552625297,7.508125805357098,1.28851056098938,0.9940792322158812,-0.0349077731370925
4.236560546875,-2.2243881143301723,-2.928911763447523,7.528690454480052,1.2559374570846558,0.975122332572937,0.007087345700711
4.24654052734375,-2.4087121238067746,-2.678349733431637,7.395742704236507,1.20022451877594,0.905852198600769,0.0771905183792114
4.256520751953125,-2.573187523475289,-2.4621856475800272,7.238098904153704,1.1170068979263306,0.7856019139289856,0.185110867023468
4.26650048828125,-2.702214593143761,-2.255134257988632,6.908300548076629,1.00329852104187,0.5991401672363281,0.3317812979221344
4.2764814453125,-2.7714178932294247,-2.04194012785852,6.4082338881433,0.8634060621261597,0.3331623077392578,0.5015482306480408
4.286461669921875,-2.6818904747784136,-1.7990829731315374,5.874846557888389,0.6470165848731995,-0.0083237001672387,0.6770963668823242
4.296441650390625,-2.4315736516952517,-1.5164211928911506,5.066255216053128,0.3192392289638519,-0.3474133610725403,0.8437937498092651
4.30642138671875,-1.956949183793366,-1.199434606787935,3.844519126412272,-0.0890310183167457,-0.5201133489608765,0.9826771020889282
4.31640234375,-1.4243743389651178,-1.0948697782028465,2.541210084456205,-0.5218191742897034,-0.4059552848339081,1.050153136253357
4.326382568359375,-0.7389905668646096,-1.2863380334109067,1.3373393218517302,-0.7654582858085632,0.1052448824048042,1.0118576288223269
4.336362548828125,-0.0558835075244307,-1.5931860142722725,0.3294809606909751,-0.5498412847518921,0.8301205635070801,0.849848210811615
4.346342529296875,0.3834197638884186,-1.5090058020681143,0.6026338849604129,0.1571833938360214,1.4194051027297974,0.6057044863700867
4.356323486328125,0.5016314250320196,-0.5255352285150439,1.2214701321810484,1.1319352388381958,1.7437278032302856,0.3974618017673492
4.366303466796875,0.2854328523889183,1.1374941373120993,1.2746341516137123,1.936251401901245,1.8545215129852293,0.3005603551864624
4.376283447265625,-0.1728621197417378,2.5625258442074057,0.6710065794408321,2.1952812671661377,1.6514967679977417,0.246627077460289
4.386263427734375,-0.3591977613016963,3.119448071567714,-1.0562532664954662,1.8188940286636357,1.1036086082458496,0.1303574293851852
4.39624462890625,-0.057475745151937,3.531083291593194,-3.62892933331728,0.93332177400589,0.3636598885059356,-0.1071978658437728
4.406224609375,0.5437088177829981,3.960253583787381,-6.502538896259665,-0.2116893231868744,-0.3668429851531982,-0.506951630115509
4.41620458984375,1.3952210174560546,4.461050311560928,-8.974455079737305,-1.4321352243423462,-0.9909459948539734,-1.0911158323287964
4.426184326171875,2.909312159964442,5.97042523920238,-11.24011043947935,-2.6453120708465576,-1.3921481370925903,-1.7363979816436768
4.43616552734375,4.941218385064602,7.408788648292422,-13.976234024226663,-3.5852346420288086,-1.2138692140579224,-2.2599809169769287
4.4461455078125,6.635455082321166,7.386875507169962,-16.127302635324,-3.771685123443604,-0.3747105002403259,-2.5173027515411377
4.456125732421875,7.640577296516299,6.364007792925834,-16.405158622717856,-2.952592134475708,0.606702446937561,-2.4534590244293213
4.46610546875,7.733450226002931,5.436507163071632,-14.679149653625489,-1.505305528640747,1.3910791873931885,-2.1613776683807373
4.47608544921875,7.183128127560019,4.886863110020756,-12.539320229423046,-0.1176873296499252,1.8324955701828003,-1.7878741025924685
4.486066650390625,6.464139899760484,4.671162257766723,-11.161431455039978,0.7264633774757385,1.972644925117493,-1.4549052715301514
4.496046630859375,5.968443125474453,4.156409193094074,-10.539168155980107,1.0416661500930786,1.823243498802185,-1.1807632446289062
4.5060263671875,5.273224480319023,3.2335861996620894,-9.647927172508837,0.997528314590454,1.4372596740722656,-0.927773892879486
4.516006591796875,4.355917912220955,2.565047471639514,-8.358138121861218,0.7760574221611023,0.9060911536216736,-0.6589440703392029
4.525987548828125,3.402281555113196,2.12066178239584,-6.832115134018659,0.4725765585899353,0.3453853726387024,-0.3624898195266723
4.5359677734375,2.538621821528673,1.5187315156601369,-5.087081730982661,0.1392675936222076,-0.2130219787359237,-0.0406691692769527
4.545947509765625,1.8576342385604976,0.8179660500325262,-3.412470356172323,-0.1985632181167602,-0.7092756628990173,0.297134131193161
4.555927490234375,1.317449210989475,0.1535299350231885,-1.909116880777478,-0.5311933755874634,-1.0926941633224487,0.651479959487915
4.565908447265625,0.802374074755609,-0.4110055438198149,-0.6495312452137469,-0.8520233631134033,-1.3749444484710691,1.0114034414291382
4.575888427734375,0.3078185794591903,-0.8840256452649832,0.3757289171248674,-1.1480395793914795,-1.566350340843201,1.3720085620880127
4.585868408203125,-0.1852954848572611,-1.263935793597251,1.1019383283495905,-1.3683453798294067,-1.729137659072876,1.697878360748291
4.5958486328125,-0.5276370961651206,-1.620254784592241,1.7232494412511583,-1.5007904767990112,-1.867433190345764,1.9839082956314087
4.60582958984375,-0.8538301212266087,-2.0990181058645248,2.3086229793310165,-1.5280884504318235,-1.9663132429122925,2.2228448390960693
4.6158095703125,-1.3074927573814987,-2.628628840190172,2.8793595047712324,-1.4347494840621948,-1.9661414623260496,2.3566367626190186
4.625789306640625,-1.539388957633078,-2.826748443046212,3.5855221532672643,-1.2443437576293943,-1.884532451629639,2.45194411277771
4.635769287109375,-1.965300248031318,-2.9187948585808274,4.378626587635279,-1.0001658201217651,-1.8150559663772583,2.4689736366271973
4.64575048828125,-2.311252451051772,-2.993231967666745,4.842826984417438,-0.7332253456115723,-1.7881544828414917,2.406148195266724
4.6557314453125,-2.615592540745437,-3.153270553931593,5.548555333149433,-0.4668705761432647,-1.7284096479415894,2.282320261001587
4.665711669921875,-2.769127444204688,-3.6463054155319927,5.955769521862268,-0.2329628616571426,-1.58968186378479,2.1369550228118896
4.6756923828125,-2.8123382248997686,-3.9489123978227374,6.372120372232795,-0.0174167267978191,-1.3963457345962524,1.9456732273101809
4.685672607421875,-2.827892644645273,-3.936194078285992,6.739662475770712,0.1636220812797546,-1.1305735111236572,1.7261714935302734
4.695652587890625,-2.824715475913882,-3.791937290781736,7.068729010441899,0.3353451192378998,-0.8273353576660156,1.478884220123291
4.705633544921875,-2.73613235257566,-3.753202778717875,7.426883692431449,0.5127813816070557,-0.5224440693855286,1.215831279754639
4.715614501953125,-2.7532383856773377,-3.790308812797069,7.830896454754471,0.7127354741096497,-0.2157155126333236,0.9454867839813232
4.72559423828125,-2.8306778914496302,-3.7618273992002007,8.233304119968414,0.939864456653595,0.0624034106731414,0.6658884882926941
4.73557421875,-2.893666847065091,-3.659580492168665,8.519973528414964,1.1749941110610962,0.3133037984371185,0.3757591843605041
4.745554443359375,-2.956576015442609,-3.552374501425028,8.739780646944045,1.4034700393676758,0.5337783098220825,0.0938037410378456
4.755535400390625,-3.076638272888958,-3.498502041462064,8.910351733139157,1.6171162128448486,0.6987427473068237,-0.155491292476654
4.765515380859375,-3.293707490886748,-3.481428157064318,8.978524521133304,1.810163497924805,0.8012107014656067,-0.3499695658683777
4.775495361328125,-3.510383033391833,-3.404519104906917,8.98632438122928,1.985430121421814,0.8479340076446533,-0.4887697994709015
4.785475341796875,-3.7562370318472382,-3.165209413528442,8.927304621505737,2.125941038131714,0.8467086553573608,-0.5861775875091553
4.79545654296875,-3.802249718220532,-2.7336297221049666,8.771748149091005,2.2363879680633545,0.7707497477531433,-0.6692511439323425
4.805436279296875,-3.80408950086832,-2.313473488102108,8.27244019857049,2.2807745933532715,0.5321958661079407,-0.7288685441017151
4.815416259765625,-3.834137433129549,-1.8946857659734784,7.373155024853348,2.2282392978668213,0.2049628794193267,-0.7389920353889465
4.825396484375,-3.7135116965815422,-1.5208808026485143,6.435343428865075,2.102271318435669,-0.1403448432683944,-0.6943743824958801
4.835377685546875,-3.3646734167307613,-1.208564765639603,5.680346899095177,1.9029898643493648,-0.467545598745346,-0.5884202122688293
4.845357421875,-2.8288384010627863,-0.7125984536971897,4.717918163722754,1.649441123008728,-0.737979531288147,-0.4743201732635498
4.85533740234375,-2.148569195497036,-0.2551175378957763,3.963412047818303,1.4107178449630735,-0.8891871571540833,-0.3504224717617035
4.8653173828125,-1.4958789017304777,0.0967740468447096,3.0124796889722347,1.1630431413650513,-0.9176042079925536,-0.2493339926004409
4.87529833984375,-0.777610512638092,0.4882359734186902,2.2076947536826133,0.957386553287506,-0.7357499599456787,-0.2092006802558899
4.8852783203125,-0.0343058819666504,0.8151504080899059,1.6657921085387468,0.7798404693603516,-0.3642188906669616,-0.3193594813346863
4.895258544921875,0.8867091852605342,1.1604213508479295,0.8353074993252754,0.5751890540122986,0.1267074346542358,-0.5956419706344604
4.905238525390625,1.8157684427335856,1.6113561694741247,-0.9097668202430008,0.138161227107048,0.3899500370025635,-0.9611003398895264
4.915219482421875,2.9599294175237416,3.869087165957689,-6.315245223322511,-1.0686328411102295,-0.022459365427494,-1.3448171615600586
4.92519921875,4.677996195439994,6.997145537221432,-15.402025536513328,-3.1634552478790283,-0.7621811628341675,-1.6069209575653076
4.93517919921875,6.053134502071142,6.91969346422851,-22.75335860565901,-5.398799419403076,-1.2851102352142334,-1.4440057277679443
4.945159423828125,6.247430162724852,5.041157599675655,-25.55690328325033,-6.635946273803711,-1.493580341339111,-0.8219479918479919
4.955140380859375,5.909896828481554,5.362871433496475,-24.567681818020343,-6.120121479034424,-1.7032986879348757,-0.1020561754703521
4.965120361328125,5.272600210940838,6.901672654369473,-21.46258463562727,-4.191109657287598,-1.9617024660110476,0.52536541223526
4.975100341796875,4.223998628242313,6.636559828692675,-17.900580720591545,-1.4960850477218628,-1.9062093496322632,0.9909645318984984
4.985080322265625,3.442010338911414,4.842803311280906,-15.314639514005185,0.692006528377533,-1.7173941135406494,1.189611315727234
4.9950615234375,3.264178029541671,3.707225455918908,-14.39704302304983,1.9175647497177124,-1.249783277511597,1.0582144260406494
5.005041259765625,3.002639262959361,3.4603897529497742,-12.243557998460531,2.3278520107269287,-0.5799194574356079,0.7008620500564575
5.015021240234375,2.8204344375938177,3.949671107235551,-9.721483991628885,2.2408103942871094,0.1091077178716659,0.2428800612688064
5.02500146484375,2.624940507066249,3.953754577156901,-7.347142047196626,1.844275951385498,0.7638686895370483,-0.2266628444194793
5.034982666015625,2.414321488121152,3.031096711158752,-5.327962032678723,1.273220181465149,1.3096905946731567,-0.6433860659599304
5.04496240234375,2.188104502549767,1.64590974259153,-3.61967752084732,0.6790700554847717,1.6673740148544312,-0.9384735822677612
5.0549423828125,1.7817336327932771,0.3006121552117168,-2.116312355014682,0.140479028224945,1.840207576751709,-1.071390151977539
5.06492236328125,1.3245505674272775,-0.5756609762303531,-0.7405570855289697,-0.2993660271167755,1.866185426712036,-1.037264108657837
5.074902099609375,0.8213194521136581,-1.0669023785427212,0.4392945035845041,-0.6161847710609436,1.761033535003662,-0.8478472828865051
5.08488330078125,0.1689735878705978,-1.4889320052020252,1.578739848029613,-0.7783922553062439,1.4977431297302246,-0.5472383499145508
5.094863525390625,-0.5570709881812334,-1.987398244201392,2.783586177667975,-0.7789493799209595,1.0534764528274536,-0.1624853163957595
5.104843505859375,-1.305047410055995,-2.4428014404132963,4.023416142404079,-0.6552062630653381,0.4828770756721496,0.2625991404056549
5.114824462890625,-1.964151662518084,-2.70707518491745,5.178567590025067,-0.4780728220939636,-0.0661165192723274,0.6799455285072327
5.12480419921875,-2.4260586876660586,-2.815190107199549,6.187683257770538,-0.2935177683830261,-0.5041117072105408,1.0372884273529053
5.134784423828125,-2.8070138150066137,-2.8041344601780174,7.1682619823396205,-0.1121573001146316,-0.7731674313545227,1.3008087873458862
5.144764404296875,-3.074822747899592,-2.642318342846632,8.116442412129045,0.0539485365152359,-0.8644679188728333,1.4314144849777222
5.154745361328125,-3.0692697899475694,-2.444387248300016,9.013287791478634,0.2030826210975647,-0.8290545344352722,1.4148733615875244
5.164725341796875,-3.0142402689039707,-2.462911623767018,9.77311364110112,0.3210864961147308,-0.6810181736946106,1.2675023078918457
5.174705322265625,-2.9415409433960917,-2.665332138687372,10.402115308505296,0.4162215292453766,-0.4572212398052215,1.0228956937789917
5.184685546875,-2.8903105223745107,-2.9539874602541327,10.936778650045394,0.5021223425865173,-0.1953371912240982,0.7059939503669739
5.19466650390625,-2.8694951133608817,-3.1616543513953683,11.343643294668198,0.5938071608543396,0.08607017993927,0.361504316329956
5.204646240234375,-2.9035604645699262,-3.291778276389837,11.63394726022482,0.7030085325241089,0.3356571197509765,0.0308206509798765
5.214626220703125,-2.988001665797829,-3.3532819618836043,11.824579722195862,0.8378816843032837,0.5231679081916809,-0.2524669766426086
5.2246064453125,-3.1252070734858517,-3.3216493907794358,11.87876490136981,0.9908517003059388,0.6714456081390381,-0.4712172150611877
5.234587646484375,-3.225115016175806,-3.143959704750776,11.85371930744052,1.154951095581055,0.7568422555923462,-0.6180015802383423
5.2445673828125,-3.324153482554853,-2.8366987591743467,11.743865432536602,1.317862033843994,0.7563261389732361,-0.7069908976554871
5.25454736328125,-3.401432829329371,-2.429498598986864,11.458383772569894,1.4362517595291138,0.6666766405105591,-0.7534534335136414
5.26452734375,-3.4915161280974742,-1.9263485860854384,10.917006612604856,1.46348237991333,0.5626363158226013,-0.7422767281532288
5.27450830078125,-3.39791050042212,-1.4458169399663805,10.338389563047883,1.3996509313583374,0.3904208838939667,-0.6912130117416382
5.28448828125,-3.198618054394424,-1.1680927622586488,9.450223749238251,1.218078851699829,0.1430524736642837,-0.6019226312637329
5.294468505859375,-2.9738650038957597,-1.1092249782264232,8.300515369454025,0.9274727702140808,-0.1689126193523407,-0.4711382389068603
5.304448486328125,-2.73453631555587,-1.1787887821875511,6.820129512670635,0.5466509461402893,-0.5614475011825562,-0.2952515482902527
5.314429443359375,-2.4857439255610108,-1.2783471807874738,5.247801869770885,0.1454952806234359,-0.909729301929474,-0.0904432982206344
5.3244091796875,-2.128116774576902,-1.35067460424304,4.099392882147432,-0.1870019733905792,-1.1726605892181396,0.1269319057464599
5.334389404296875,-1.5708661920450626,-1.252592854066938,3.099331458473205,-0.388382226228714,-1.3080888986587524,0.2915419042110443
5.344369384765625,-0.9011249563649296,-0.9015040188103912,2.2070506105601786,-0.4149088859558105,-1.268704175949097,0.3758092522621155
5.354350341796875,-0.1953187200911343,-0.3979514164574444,1.560358972686529,-0.2307880371809005,-1.0709476470947266,0.3631746768951416
5.364330322265625,0.2858008089184761,-0.2263275332737714,0.9626204585522412,0.1241513043642044,-0.7343353629112244,0.3049486875534057
5.374310302734375,0.4551036287434399,-0.3789389652125537,0.3028273470431566,0.6011626124382019,-0.3476680219173431,0.2138384729623794
5.38429052734375,0.4745816516734659,-0.2092037087870761,-0.5426788902133703,1.0824755430221558,0.1247419193387031,0.0805605426430702
5.394271484375,0.5485366763308644,0.6580654109336436,-1.3805769905537366,1.432071566581726,0.6326776146888733,-0.1449168026447296
5.404251220703125,0.7775581979289651,2.010325969193876,-2.685192438933253,1.4662058353424072,1.0690851211547852,-0.4571073353290558
5.414231201171875,1.2966498763278127,3.727328040488064,-5.324245642504096,0.885239839553833,1.1670188903808594,-0.8327723145484924
5.42421142578125,2.4469816487073897,5.8996098277449605,-11.180905386316777,-0.6098945736885071,0.7464778423309326,-1.241428017616272
5.434192626953125,4.103374060738086,7.069115379410982,-18.80137103817463,-2.694588422775269,0.2030840367078781,-1.584450364112854
5.44417236328125,5.586351687580347,5.68642241961658,-23.14028170149326,-4.4532976150512695,-0.1352688074111938,-1.7199997901916504
5.45415234375,6.475105530411005,4.602958197851478,-24.319461090433595,-5.046861171722412,-0.261412650346756,-1.5857466459274292
5.46413232421875,6.740698248559236,5.857140220806002,-22.93760224337578,-4.061351776123047,-0.2676760852336883,-1.171593189239502
5.474113525390625,6.207711315798759,7.1176727818310255,-20.139103158736223,-1.898491382598877,-0.2424274384975433,-0.5373898148536682
5.48409326171875,5.468613781428337,6.454332791495323,-17.660877645981312,0.4034034013748169,-0.2569546401500702,0.077234610915184
5.494073486328125,4.955772980117797,4.591088604098558,-16.31190400043726,1.867639183998108,-0.1532298475503921,0.45042285323143
5.504053466796875,4.241583969293535,3.842186884072423,-15.004637160766125,2.379863739013672,-0.0005802232772111,0.529572606086731
5.514034423828125,3.285234261573851,4.400086724293232,-13.135843522548674,2.259965658187866,-0.013016652315855,0.3900365233421325
5.52401416015625,2.347584285888076,4.3459559056550265,-10.894522393596173,1.770629644393921,-0.1289803236722946,0.1263477057218551
5.533994384765625,1.7172946244999765,3.2137177161097523,-8.52611685347557,1.1056883335113523,-0.2651323080062866,-0.1956806629896164
5.543974365234375,1.3713980971895157,1.6940424898587163,-6.145861301085352,0.4331597089767456,-0.3979203104972839,-0.4911319017410278
5.553955322265625,0.9957108272492884,0.4275608842361718,-3.790693428200483,-0.1677793860435485,-0.4808652400970459,-0.6871341466903687
5.563935302734375,0.5405956541985273,-0.1992524062782525,-1.8949556689560407,-0.7193318605422974,-0.4334180355072021,-0.7514586448669434
5.573915283203125,-0.0897435454197227,-0.339137773765251,-0.2737538127720356,-1.2061513662338257,-0.2391593307256698,-0.6752970218658447
5.5838955078125,-0.4612498764134943,-0.4823503859788179,1.128988832360506,-1.6303702592849731,-0.1391188204288482,-0.5301381945610046
5.59387646484375,-0.6686911421053111,-0.8705011239118874,1.9384154559761284,-2.019838333129883,-0.1863401234149933,-0.410530537366867
5.603856201171875,-0.904524243414402,-1.548931423612684,2.4838000980168577,-2.31766128540039,-0.3177984058856964,-0.3211091756820678
5.613836181640625,-1.2470600621201098,-2.3309881020046768,3.0799545578300958,-2.4450912475585938,-0.4844616651535034,-0.2396050095558166
5.62381640625,-1.595084687500447,-2.968940114714205,3.74791577822566,-2.374496459960937,-0.6022012233734131,-0.1894741207361221
5.63379736328125,-1.6813954819925128,-3.5200527790129184,4.37636565696597,-2.077380657196045,-0.6495200395584106,-0.2010878920555114
5.643777587890625,-1.6880473410971462,-3.992937417510152,5.133899011737108,-1.5646106004714966,-0.5942321419715881,-0.2644496560096741
5.65375732421875,-1.7285997162379323,-4.325464906290173,6.09198708755672,-0.8789008259773254,-0.4535584151744842,-0.3813845217227936
5.6637373046875,-1.6797883390568196,-4.492497296965122,6.916371626329422,-0.1157601326704025,-0.2970852851867676,-0.5538927316665649
5.673718505859375,-1.5106561996236445,-4.535556686490774,7.583435605624317,0.6209930181503296,-0.152345672249794,-0.7585979700088501
5.683698486328125,-1.4603791338041423,-4.540939256311953,8.310115556970239,1.2610352039337158,0.0191690362989902,-0.9421916604042052
5.693678466796875,-1.4384759295538068,-4.335294226387143,9.039082157948611,1.793170928955078,0.1514967083930969,-1.0864534378051758
5.70366357421875,-1.31247960588336,-3.8080464218005536,9.61697556940615,2.1962544918060303,0.2314550727605819,-1.1938892602920532
5.71364453125,-1.2375628965869545,-3.2042934696823355,10.153077419316768,2.4506993293762207,0.3137235641479492,-1.2369744777679443
5.723624267578125,-1.0441434342458844,-2.8034201744288203,10.638047047883273,2.56415057182312,0.3612941801548004,-1.219751238822937
5.733604736328125,-0.8990648089647293,-2.680473009195924,10.967770000636577,2.5317370891571045,0.3850618004798889,-1.149696707725525
5.743584716796875,-0.8164861867383122,-2.636020119485259,11.238354535722731,2.3603339195251465,0.3818536400794983,-1.0314953327178955
5.753565673828125,-0.7880736005939543,-2.585411045232415,11.319060642075538,2.076660633087158,0.3367916047573089,-0.8682680726051331
5.763545654296875,-0.8048723213121295,-2.457558864562213,11.356664104282856,1.7061883211135864,0.2774641513824463,-0.6832138895988464
5.773525390625,-0.8364687981896102,-2.2261618460044263,11.348847877573968,1.285883903503418,0.1990540325641632,-0.4961353242397308
5.783505615234375,-0.8658249487943946,-1.945150609450042,11.277905624866484,0.8315318822860718,0.1229599863290786,-0.3081738650798797
5.793486572265625,-0.8608733177363872,-1.7476070529162884,11.008077461105584,0.3262284994125366,0.0663821995258331,-0.1013418734073638
5.803466796875,-0.872262288365513,-1.7168486342981455,10.36865026127696,-0.2307925522327423,0.0239829681813716,0.1248141452670097
5.813446533203125,-0.8618782569952309,-1.7276377393379807,9.37926688348353,-0.7937352657318115,-0.0273731630295515,0.3319278955459595
5.823426513671875,-0.8603219674639403,-1.6322358758956192,8.117559433460235,-1.3285784721374512,-0.0491920262575149,0.5109403729438782
5.83340771484375,-0.9618453825265167,-1.5008011605635283,6.836330121365189,-1.801174521446228,-0.0116760740056633,0.6743785738945007
5.8433876953125,-1.0057634347081184,-1.3589781760774553,5.417225539496541,-2.1860673427581787,0.0134443072602152,0.7955976724624634
5.853367431640625,-1.0532971931688486,-1.273518445456773,3.740647833049297,-2.41016697883606,0.0350851528346538,0.8539690971374512
5.86334765625,-1.0509713805697858,-1.2470219220668075,2.275490525057912,-2.389512300491333,0.0204703509807586,0.7943689823150635
5.87332861328125,-0.8861899836920202,-1.0799540216870605,0.4289361911773681,-2.0973119735717773,-0.0934796556830406,0.6108825206756592
5.883308837890625,-0.6478657962195575,-0.6131335055343806,-1.4460767599463462,-1.5273499488830566,-0.2192522436380386,0.37207892537117
5.89328857421875,-0.4234541065044701,-0.020443214700371,-2.93261061796546,-0.7419880628585815,-0.3010973036289215,0.1316700577735901
5.9032685546875,-0.1123531443737447,0.2104461465962231,-4.127221384793519,0.0992566794157028,-0.2919967770576477,-0.0964226573705673
5.91324951171875,0.4598457087039947,0.1705677251942455,-5.393026917785406,0.6994119882583618,-0.2106795608997345,-0.3252936601638794
5.9232294921875,1.1805695281244817,0.4575822938166558,-7.450873055306077,0.7941197156906128,0.0135706793516874,-0.5359899997711182
5.933209716796875,1.8160249017126855,1.7544760619029405,-9.9338419631958,0.4123406708240509,0.2626233696937561,-0.7328963875770569
5.943189697265625,2.3863538692653177,4.284194738268852,-12.729350633847712,-0.3747139573097229,0.3866755068302154,-0.911615788936615
5.953170654296875,3.1744422290369867,7.06430710234642,-16.399491098475455,-1.533995509147644,0.3376562893390655,-1.011581540107727
5.963150634765625,3.898931100079417,7.904512310585379,-19.70317608575821,-2.6760003566741943,0.3190670013427734,-0.9113903045654296
5.97313037109375,4.13584746658057,6.583865764859318,-20.49560072116852,-3.1824538707733154,0.3497870862483978,-0.6090309619903564
5.983110595703125,3.953946884858608,5.164271353647113,-19.1189955568552,-2.6655516624450684,0.2615536451339721,-0.204692542552948
5.993091552734375,3.4353631559818982,4.528664881150425,-16.45166552234888,-1.3086552619934082,0.0642309635877609,0.1884709894657135
6.00307177734375,2.842259315910935,4.311120739117264,-13.942053522205352,0.2247752696275711,-0.1811556369066238,0.4820903837680816
6.013051513671875,2.4126085467234253,3.8617739203348753,-12.439002244627474,1.1948362588882446,-0.3524381518363952,0.6257572770118713
6.023031494140625,2.156503495627641,3.419521735988557,-11.413339346706866,1.429927110671997,-0.3791737556457519,0.6427275538444519
6.0330126953125,1.839688539764285,3.3185145998850465,-10.055076479291916,1.1643623113632202,-0.3650001287460327,0.5732720494270325
6.04299267578125,1.5517767300412058,2.8525238125547765,-8.29103383988142,0.6922704577445984,-0.3204577267169952,0.4703651070594787
6.052972412109375,1.1810596497289836,1.7396087476387618,-6.077134970861673,0.2373469024896621,-0.2586167454719543,0.3833655118942261
6.06295263671875,0.7665973895840347,0.4533066623240709,-3.863666894474625,-0.0900330618023872,-0.2051864713430404,0.3373417556285858
6.072933837890625,0.3224126297399401,-0.5105971140369773,-1.9073428568422792,-0.2832986414432525,-0.1704383492469787,0.3396949172019958
6.082913818359375,-0.0945868937976658,-1.0079477930098772,-0.3645791620790958,-0.3800148665904999,-0.165719136595726,0.368312656879425
6.0928935546875,-0.4236806087367236,-1.2431155622780323,0.78306001021564,-0.4101197719573974,-0.2169285267591476,0.3845201134681701
6.10287353515625,-0.6517698179207742,-1.477750539843738,1.783320755854249,-0.3843358159065246,-0.2796623706817627,0.3680606782436371
6.1128544921875,-0.7973090464510023,-1.7261653286978602,2.790727866116166,-0.299689382314682,-0.3246351778507232,0.3168605864048004
6.12283447265625,-0.8507701491340994,-1.9444100202158088,3.755052790498733,-0.1811274886131286,-0.3562824130058288,0.2438458353281021
6.132814697265625,-0.934586204200983,-2.135388519145548,4.582131390661001,-0.0432615093886852,-0.3566704392433166,0.1798439472913742
6.142794677734375,-1.0054280652739107,-2.365740120303631,5.3408741212219,0.1101205199956893,-0.3398979008197784,0.1260542869567871
6.152775634765625,-1.0465610167816282,-2.616036777381599,6.072634736832976,0.2729991972446441,-0.3047380447387695,0.0882374048233032
6.162755615234375,-1.0876239717930554,-2.8600588842347263,6.754689949032664,0.4352458119392395,-0.2507841289043426,0.0682536587119102
6.1727353515625,-1.1430642655946313,-3.0719924929097293,7.415798819315433,0.5941270589828491,-0.1717313975095749,0.0687990710139274
6.182715576171875,-1.19218193224594,-3.2036040261134504,8.032978531500696,0.736844539642334,-0.083714835345745,0.0813559964299202
6.192696533203125,-1.191709638559073,-3.341794353185594,8.502330319696664,0.8669252991676331,-0.0243154242634773,0.0956502482295036
6.2026767578125,-1.2125975282870232,-3.438587963247299,8.890494355502724,0.9796867370605468,0.0072980439290404,0.1019189208745956
6.212656494140625,-1.280300214551389,-3.4824317811489105,9.198218242415786,1.0587849617004397,0.0219203941524028,0.1140389665961265
6.222636474609375,-1.3628434732034802,-3.4164889441639184,9.401723045441509,1.110791563987732,0.0033595524728298,0.124352291226387
6.23261767578125,-1.443270616484433,-3.264592163300514,9.578751344951987,1.1365994215011597,-0.0458218418061733,0.1375692933797836
6.24259765625,-1.53554821042642,-3.0531644583210347,9.722795074227452,1.1243445873260498,-0.0918355882167816,0.1616774648427963
6.252577392578125,-1.6183124183528124,-2.7528154840901493,9.789145322969556,1.0875918865203855,-0.1338160634040832,0.2022363394498825
6.2625576171875,-1.614009606592357,-2.544409757280349,9.87431191586256,1.0156500339508057,-0.1905632019042968,0.2553160190582275
6.272538818359375,-1.6256652653336523,-2.4851526816695926,9.908405908644198,0.9253039360046388,-0.2305031567811966,0.3271899223327636
6.282518798828125,-1.557786345719546,-2.5282515264227983,9.967194782221316,0.8367837071418762,-0.2962715327739715,0.4053566753864288
6.29249853515625,-1.4938789600849152,-2.608047239932418,9.933760130131244,0.760877788066864,-0.3695076704025268,0.4709098637104034
6.302478515625,-1.476185044092685,-2.6015233911216256,9.959203198945522,0.7133492231369019,-0.4103635847568512,0.5206037163734436
6.31245947265625,-1.45700337376073,-2.4611545509666204,9.859897606062887,0.6925840377807617,-0.4544650018215179,0.560545802116394
6.322439697265625,-1.4643644040480257,-2.152539122041315,9.48567850897908,0.6824395060539246,-0.4925936162471771,0.585372269153595
6.332419677734375,-1.4609084183752536,-1.7581071118816731,8.96364843904078,0.6586031913757324,-0.4926788210868835,0.6105085015296936
6.342399658203125,-1.4382126024425028,-1.344210376664996,8.425223699140549,0.6256524324417114,-0.4569928348064422,0.6341456770896912
6.352380615234375,-1.2663850864455104,-0.8125626566190272,7.712474073469639,0.5367023348808289,-0.4392260909080505,0.6719751358032227
6.362360595703125,-1.1443305592034012,-0.1090764607906341,6.449678243687749,0.3031728267669678,-0.4114119708538055,0.7648530602455139
6.372340576171875,-1.0539916782390326,0.5925821542844176,4.6160137865185735,-0.1444877833127975,-0.3160486817359924,0.9295772910118104
6.382320556640625,-0.7691963931012898,1.1509332454040646,2.157903425553441,-0.8564574122428894,-0.1199733167886734,1.160427451133728
6.392301513671875,-0.3550714751519263,1.3242366791725158,-0.5964467207580805,-1.776775360107422,0.2440171390771865,1.4552584886550903
6.40228173828125,0.1020688470508903,1.249800154608488,-2.999077771085501,-2.66707444190979,0.6387477517127991,1.7625927925109863
6.412261474609375,0.3024896395213902,1.4517128661371768,-5.343821865111589,-3.3943495750427246,0.8887221813201904,2.0361337661743164
6.422241455078125,0.0618419775374233,2.5050021682605146,-8.166277579399942,-3.706953048706055,0.9982831478118896,2.1992318630218506
6.43222265625,-0.8558557818353175,3.876304549990594,-9.182770497915149,-3.289304733276367,1.1023207902908323,2.1971359252929688
6.44220263671875,-2.1334578433439133,5.090009601128101,-9.39373438477516,-2.202310085296631,0.8347263336181641,1.927053689956665
6.452182373046875,-2.797673739731312,6.340744990760087,-10.735535946732758,-0.9428744316101074,-0.027600921690464,1.3096623420715332
6.46216259765625,-2.5356644330278035,7.656860322797298,-13.774190525925158,-0.175422266125679,-1.2254871129989624,0.4507847130298614
6.472143798828125,-1.594144484040886,9.136818309557436,-17.221733364522457,-0.1033771112561225,-2.2651846408843994,-0.4032974243164062
6.482123779296875,0.1368587862074375,10.049463900107146,-19.29988637701273,-0.448279321193695,-2.9481749534606934,-1.060181736946106
6.492103515625,2.045251152102649,9.889004458081722,-19.52412767859697,-0.7908416986465454,-3.0333263874053955,-1.418712496757507
6.50208349609375,3.5601270152479407,8.958695785069466,-17.755060489022732,-0.7783985733985901,-2.4783291816711426,-1.5051987171173096
6.512064453125,4.570073873120546,7.550944956386089,-15.014015229964256,-0.3429115712642669,-1.5346295833587646,-1.4046372175216677
6.522044677734375,5.100411168155074,5.725710473909974,-12.29855683210492,0.3289034962654114,-0.4855671525001526,-1.1997454166412354
6.532024658203125,5.17807600711584,3.927428003506362,-10.063463199365138,0.9499694108963012,0.466217041015625,-0.9666072130203248
6.542004638671875,4.842513096162676,2.795221378143132,-8.429433425790071,1.3293801546096802,1.2136660814285278,-0.7596701979637146
6.551985595703125,4.163630084258318,2.3063190863028167,-7.11417675640881,1.421203374862671,1.6963536739349363,-0.6208100914955139
6.561965576171875,3.412949956382811,1.874540072914958,-5.964777004182339,1.2920222282409668,1.887250065803528,-0.5754749774932861
6.571945556640625,2.705177826863527,1.1332537963286042,-4.8916339776843785,1.0137842893600464,1.8121778964996336,-0.6071812510490417
6.581925537109375,1.9844959468886252,0.3646626025788486,-3.959119319060445,0.6432238817214966,1.51904296875,-0.6696882247924805
6.591906494140625,1.3980530260115862,-0.2263739296987652,-3.32375805349648,0.2198339849710464,1.036284327507019,-0.7227474451065063
6.60188671875,1.034472957972437,-0.7970509800367057,-2.774929408481717,-0.1999491453170776,0.4513902962207794,-0.7265897393226624
6.611866455078125,0.8437023296397179,-1.3954441586874424,-1.999503254145384,-0.5288785696029663,-0.0728098303079605,-0.6425883173942566
6.6218466796875,0.7468040901597589,-2.05026094308868,-0.8103010683625936,-0.6962393522262573,-0.4555613100528717,-0.4877634048461914
6.63182763671875,0.7998007171362638,-2.5492995751485226,0.5571908151686191,-0.6767666339874268,-0.6886502504348755,-0.3027645349502563
6.6418076171875,0.8413221565049142,-2.8438392785787583,1.923906453630328,-0.5066591501235962,-0.7473759651184082,-0.1217187345027923
6.651787353515625,0.8304173891961574,-3.0267677420437336,3.211338712018728,-0.2510505616664886,-0.6768122911453247,0.0272837989032268
6.661767578125,0.7659092611894011,-3.1766835782229896,4.287515991646052,0.0102649452164769,-0.5375259518623352,0.123020589351654
6.67174853515625,0.6483655624352395,-3.320947087728977,5.204323962572217,0.2454351186752319,-0.3772928714752197,0.1649208962917328
6.681728759765625,0.5164624989390373,-3.4259380327716467,6.013550095179677,0.4378541111946106,-0.2096631228923797,0.1465299129486084
6.69170849609375,0.3304720175549387,-3.479462702210247,6.749850692307949,0.5861865878105164,-0.0499554835259914,0.0746967270970344
6.7016884765625,0.1326346657063812,-3.4285908853679894,7.349626849749684,0.6871253252029419,0.0643800944089889,-0.0381493680179119
6.711664306640625,-0.0440289652101695,-3.306967077693343,7.756454084971547,0.7417179942131042,0.1315895020961761,-0.1684344112873077
6.721644287109375,-0.2979761076197028,-3.205699244827032,8.045797096541524,0.7247499227523804,0.2416907101869583,-0.2655441761016845
6.7316240234375,-0.7098808653015642,-3.0164246272057293,8.280446394893527,0.6459416747093201,0.4603261053562164,-0.2878662347793579
6.74160400390625,-0.5258048392366618,-2.920539656421542,8.511265321302414,0.5827924609184265,0.5272891521453857,-0.2979428768157959
6.751585205078125,-0.3227465378694236,-3.182044228473305,8.683927242296933,0.5390028953552246,0.5037047266960144,-0.3002326488494873
6.761565185546875,-0.306913228117302,-3.4215801298230883,8.981908902874588,0.5176020264625549,0.4830879271030426,-0.2756040096282959
6.771545166015625,-0.334792803363502,-3.503893086850643,9.207454857316613,0.5155239701271057,0.4604332149028778,-0.217273861169815
6.781525146484375,-0.4096798481740057,-3.4652585280299184,9.333697556963562,0.5473617315292358,0.4348271191120147,-0.1289074867963791
6.791505126953125,-0.5771257880859076,-3.385928970727324,9.390506654900312,0.6169794201850891,0.3801220655441284,-0.0218060743063688
6.801486328125,-0.760167575732246,-3.2999142365723846,9.516925295636057,0.719813883304596,0.3154776990413666,0.0798815265297889
6.811466064453125,-0.886449876737222,-3.180070298051834,9.669417119783162,0.8377650380134583,0.2288424223661422,0.1609715819358825
6.8214462890625,-1.0581670642275365,-3.002336480620503,9.718070968315004,0.9314110279083252,0.1563500016927719,0.2455632835626602
6.831427001953125,-1.2199215875647962,-2.7968168306410317,9.601980244848132,0.9768195152282716,0.071433238685131,0.3360942602157593
6.841407470703125,-1.3040693588040768,-2.6405639003947377,9.247397576126456,0.9595390558242798,-0.0453504845499992,0.4151596426963806
6.85138720703125,-1.3865755003161728,-2.4480725126840173,8.684293737521767,0.8601123690605164,-0.1682047694921493,0.4676752984523773
6.8613671875,-1.4180160559795796,-2.2749273382171986,8.132436684596538,0.7105067372322083,-0.2804153561592102,0.5040643215179443
6.87134814453125,-1.3840942048944531,-2.0427827161625025,7.595389078268409,0.5327316522598267,-0.4121989607810974,0.5242548584938049
6.881328125,-1.268420683926344,-1.6724682253018022,6.633607408627867,0.2993712127208709,-0.5729951858520508,0.5376951694488525
6.89130810546875,-1.1347262800339608,-1.4502083067931233,5.197011593732237,-0.0010117628844454,-0.6927670836448669,0.5522855520248413
6.901288330078125,-0.8641755741521716,-1.514680048312247,3.805399998944997,-0.3009255528450012,-0.7092994451522827,0.5778210759162903
6.911268310546875,-0.5732526729796081,-1.5181252203300597,2.5286621530503037,-0.5495266318321228,-0.5993897318840027,0.5970059633255005
6.921249267578125,-0.2274132826838642,-1.179458644273132,1.1174912867903708,-0.6894531846046448,-0.3726510405540466,0.5662487149238586
6.93122900390625,0.116899920957908,-0.3443018054649233,-0.0780289960980415,-0.6208725571632385,-0.0596526451408863,0.500978410243988
6.941208984375,0.2881420382823795,0.8158565105326473,-1.0521212812572718,-0.3118421137332916,0.2122515887022018,0.4137017130851745
6.951189208984375,0.2773081442527473,2.15724320807904,-2.102031316205859,0.1809313893318176,0.3786256611347198,0.3362167775630951
6.961170166015625,0.1248910658422857,3.241985194694996,-3.138946260502934,0.6514529585838318,0.4587601721286773,0.2657533288002014
6.971150390625,0.1745278609968721,3.610928981724381,-4.85136509566009,0.7814836502075195,0.4264512360095978,0.1588708162307739
6.981130126953125,0.5544222272381186,3.959809054890275,-7.885845019516348,0.3225117921829223,0.2698717713356018,-0.0261025857180356
6.991110107421875,1.13434758291468,5.383425561225414,-12.361861721801755,-0.7992777228355408,-0.0103457570075988,-0.250676542520523
7.00109130859375,1.983475079408288,7.434646727648377,-17.528284700524807,-2.421452760696411,-0.2419390976428985,-0.4353088736534118
7.0110712890625,3.1332536018192765,8.161561656793952,-21.66976958847046,-4.053105354309082,-0.2962487041950226,-0.5162572860717773
7.02105126953125,3.690690500703454,7.574855408805608,-23.981705637872217,-4.988987445831299,-0.1033971458673477,-0.4525678753852844
7.03103125,3.268566619889438,7.620621134680509,-23.529318428480625,-4.599068641662598,0.2620641887187958,-0.3121825158596039
7.041012451171875,2.5405773395106195,8.385152970036863,-20.516168877422807,-2.883436441421509,0.6059830188751221,-0.1441382318735122
7.050992431640625,1.8407919709615408,7.791375176227092,-17.399194210231304,-0.5809887647628784,0.6998661160469055,0.023641712963581
7.06097216796875,1.4799091791823509,6.029829614329338,-15.205603969746829,1.3332602977752686,0.7036500573158264,0.1223795711994171
7.0709521484375,1.2835817204400897,4.673656412670016,-13.282438105350732,2.421912431716919,0.7999510765075684,0.1291605234146118
7.08093310546875,0.9584494564779102,4.594417748521268,-10.918402450877428,2.8434805870056152,0.8851063251495361,0.0395911559462547
7.090913330078125,0.6657214786447584,4.622403487555682,-8.400501930338145,2.8194799423217773,0.8758978843688965,-0.0983741655945777
7.100893310546875,0.3538049623474478,3.973548826429248,-6.092587976059317,2.500526666641236,0.760358989238739,-0.250405490398407
7.110873291015625,0.0907547682888805,2.899893758755922,-4.197659779632091,1.9728556871414185,0.5678678750991821,-0.393971711397171
7.120854248046875,-0.0355485755041241,1.6270124421589076,-2.696713949900865,1.30449116230011,0.3394103050231933,-0.5298622846603394
7.130834228515625,-0.0768966310672461,0.4575272026285529,-1.3938994134634732,0.5788114070892334,0.1752381473779678,-0.6073762774467468
7.14081396484375,-0.115938893906027,-0.4712772033005952,-0.086496964713931,-0.1118692830204963,0.0904428288340568,-0.6208292841911316
7.150794189453125,-0.0756925159744918,-1.1018965350344776,1.1550345432430504,-0.6849509477615356,0.0447839945554733,-0.5852009654045105
7.160775146484375,-0.101849724407494,-1.5043785806588827,2.374467616638541,-1.0964851379394531,0.0637245401740074,-0.5085374712944031
7.17075537109375,-0.2447868076153099,-1.784459989017248,3.4302152716994283,-1.3563705682754517,0.1450468301773071,-0.4081253409385681
7.180735107421875,-0.3162899090759456,-2.001107182210684,4.261178019818663,-1.450302243232727,0.2321089059114456,-0.3234838843345642
7.190715087890625,-0.3598281681597232,-2.40102712226212,5.101789470770955,-1.3888494968414309,0.3490754961967468,-0.28090500831604
7.2006962890625,-0.5734906464539468,-3.011843729156256,6.051894146621227,-1.1823650598526,0.5178984999656677,-0.2752902507781982
7.21067626953125,-0.931766470605135,-3.5472701640233395,7.072304530841111,-0.8387409448623657,0.713409423828125,-0.3171791136264801
7.220656005859375,-1.2234395325578749,-3.975079104736447,8.106171778005361,-0.394791692495346,0.8704856038093567,-0.4285942316055298
7.23063623046875,-1.3752075724750756,-4.549717313790321,9.065075261861086,0.1178838461637497,0.9738138318061828,-0.6104668378829956
7.240617431640625,-1.473729613764584,-5.144268430060148,10.08539212257862,0.681964099407196,1.0418639183044434,-0.8534191846847534
7.250597412109375,-1.529586525543034,-5.486899964225292,10.98244383815527,1.2524358034133911,1.0881123542785645,-1.1030229330062866
7.2605771484375,-1.6517682593613865,-5.3695338139951225,11.647525703722238,1.7664257287979126,1.1218568086624146,-1.2980625629425049
7.27055712890625,-1.8362926137156783,-4.8311111199215055,12.08385609680414,2.214836359024048,1.1135534048080444,-1.4228450059890747
7.2805380859375,-1.916502168723196,-4.1414170834064485,12.329485054332018,2.568709373474121,0.9985113143920898,-1.4959338903427124
7.290518310546875,-1.9997998990044,-3.5104219040974973,12.420495112556218,2.800828218460083,0.7825335264205933,-1.5303877592086792
7.300498291015625,-2.0665031989678737,-3.1326515442728997,12.456684031790497,2.906322956085205,0.4924517571926117,-1.5202986001968384
7.310478271484375,-2.0903641131572424,-2.863638788548112,12.466305262094735,2.8843135833740234,0.1620006263256073,-1.4684910774230957
7.320459228515625,-2.0191721234723925,-2.5345921276211736,12.380268316107989,2.725464105606079,-0.1824508607387542,-1.379369616508484
7.330439208984375,-1.96953467073068,-2.2652105385839936,12.105780343842506,2.430009603500366,-0.4570890665054321,-1.2239660024642944
7.340419189453125,-2.044879834572226,-1.948314041917026,11.77797813001871,2.030901908874512,-0.5527779459953308,-0.9837304353713988
7.350399169921875,-1.7388193508267402,-1.5778372001014649,11.580782656270264,1.6282391548156738,-0.6823399662971497,-0.7236602306365967
7.360380126953125,-1.3561946828387677,-1.4089432533383368,11.0023807107687,1.2124898433685305,-0.867595911026001,-0.4697581827640533
7.3703603515625,-1.093104156769812,-1.290055884890258,10.065427192914486,0.7820830345153809,-1.007312536239624,-0.2389681190252304
7.380340087890625,-0.9094472328998148,-1.0470895707003771,9.137530841740965,0.3553148508071899,-1.0582149028778076,-0.0282767824828624
7.3903203125,-0.767638276939094,-0.7314411013331263,7.849692340639233,-0.1103039756417274,-1.0305947065353394,0.1607501357793808
7.40030126953125,-0.6729489456802606,-0.4776782659819349,5.948886776611208,-0.6945112347602844,-0.8865830302238464,0.3517588078975677
7.41028125,-0.5239778430052101,-0.5284812553716823,3.712680214193463,-1.335532546043396,-0.681883692741394,0.51249760389328
7.420260986328125,-0.4490039966940879,-1.0180296996284277,1.4709364759147163,-1.9206699132919312,-0.4392400681972503,0.5869637131690979
7.4302412109375,-0.5436752077743411,-1.2223206115305425,-0.4999275437235831,-2.2870848178863525,-0.1320444196462631,0.5387567281723022
7.440222412109375,-0.6743200879029929,-0.5139865372795611,-2.3276953440696,-2.363370656967163,0.164025992155075,0.4007300138473511
7.450202392578125,-0.8385584639452397,1.0705099015153945,-4.612051312628388,-2.150052070617676,0.4126746952533722,0.2400420308113098
7.46018212890625,-0.887968537671864,3.077381492471695,-6.914698140159249,-1.7084559202194214,0.5861266255378723,0.0996551662683487
7.470162109375,-0.6584129091970622,4.726423834000528,-9.11194982576072,-1.2028398513793943,0.6206262707710266,-0.0261602848768234
7.48014306640625,0.0412650534547865,5.484645463296771,-11.24699610733986,-0.8490555286407471,0.5785539746284485,-0.1594928503036499
7.490123291015625,1.002120548161119,5.416878918015956,-13.296166186451911,-0.7921632528305054,0.5699657797813416,-0.3142954707145691
7.500103271484375,2.067740193416923,5.583998402452469,-15.46376741467714,-1.042525291442871,0.6312649250030518,-0.5410439968109131
7.510083251953125,3.117387047384679,6.317264161929488,-17.384816140788793,-1.4538137912750244,0.8522761464118958,-0.8304478526115417
7.520064208984375,3.967214362710714,6.981790147179365,-18.48339580636024,-1.786238670349121,1.266144871711731,-1.1170198917388916
7.530044189453125,4.49002009319663,6.9613891641855234,-18.633133947885035,-1.807674765586853,1.709875226020813,-1.2814993858337402
7.540024169921875,4.592991807371377,6.364153338876366,-17.92205371673107,-1.409672737121582,2.012955904006958,-1.2664456367492676
7.550004150390625,4.293530721890926,5.743554173636436,-16.502495545876027,-0.6651855707168579,2.049314260482788,-1.0850731134414673
7.559984375,3.7294361186832186,5.012233118486404,-14.91534793498516,0.1497054547071457,1.7917755842208862,-0.7810714840888977
7.56996533203125,2.969951337583363,4.269830112829804,-13.49348440979719,0.7748212814331055,1.2823890447616575,-0.4426649212837219
7.579945068359375,2.257399280311167,3.737633745925128,-12.134109781748055,1.131251096725464,0.5976190567016602,-0.1480852216482162
7.58992529296875,1.642236460906267,3.3358412900000807,-10.701302837741377,1.2098873853683472,-0.0664737299084663,0.0745707601308822
7.5999052734375,1.228114100240171,2.7894664678782224,-9.05350348201096,1.125109076499939,-0.6153222918510437,0.2109279036521911
7.60988623046875,0.9933864759549498,1.915335755292326,-7.119635606336593,0.9831435084342957,-0.988510012626648,0.2744237780570984
7.619865966796875,0.8269976438805461,1.0323191409394143,-5.072017432841658,0.8488561511039734,-1.1438559293746948,0.2924093008041382
7.62984619140625,0.6272805426999927,0.2930434735231101,-3.1123283026903867,0.7700260877609253,-1.1634893417358398,0.3139015436172485
7.639826416015625,0.3662508946835994,-0.2887191805832088,-1.322751409050822,0.7387120723724365,-1.1086615324020386,0.3674238920211792
7.649807373046875,0.0354658656567335,-0.7396924315236508,0.2311012504816055,0.7182440757751465,-1.0164746046066284,0.4460651874542236
7.659787109375,-0.2544261580981314,-1.0585125897295773,1.5199626648902893,0.6536350250244141,-0.909071445465088,0.5305222272872925
7.66976708984375,-0.5015053144343197,-1.2848060015380385,2.63128198504746,0.5536264181137085,-0.808879017829895,0.6026033759117126
7.679747314453125,-0.7335670805111527,-1.4198099536590276,3.6768081058233975,0.4164259433746338,-0.7144559025764465,0.6661955714225769
7.689728271484375,-0.9049180650375784,-1.5518427810147404,4.684067916569114,0.2620110809803009,-0.6280251145362854,0.7267047166824341
7.699708251953125,-1.0720210367307066,-1.63061207408607,5.74847175629437,0.1041074842214584,-0.526840090751648,0.779234766960144
7.709687744140625,-1.2434602840624749,-1.6501589244686066,6.731895933422446,-0.0604204833507537,-0.4122988581657409,0.8284819722175598
7.719667724609375,-1.3715044801734386,-1.7080935193039477,7.479986337065696,-0.2477465122938156,-0.3083779513835907,0.8523368239402771
7.729648681640625,-1.4899721619047224,-1.8835012318752704,7.858918434146046,-0.4702360332012176,-0.2023897171020507,0.8317614793777466
7.739628662109375,-1.5902864934384822,-2.198595063034445,8.2644597212106,-0.6893436312675476,-0.0356880314648151,0.7388589978218079
7.74960888671875,-1.6242308486163617,-2.525578215560317,8.766624814727901,-0.855485200881958,0.1848097294569015,0.5728380680084229
7.7595888671875,-1.644561104461551,-2.767528192314505,9.096841103956102,-0.95245760679245,0.4203246831893921,0.3566053807735443
7.76956982421875,-1.7489501380883157,-2.93570624589324,9.33664588537514,-0.9459192752838136,0.6642202138900757,0.1297338753938675
7.779549560546875,-1.9524385745011268,-3.0262393342554565,9.53493499957919,-0.8434779644012451,0.8988261818885803,-0.0828560218214988
7.78952978515625,-2.244229856006056,-3.103754535612464,9.635804188516737,-0.6540393233299255,1.0690244436264038,-0.2610707581043243
7.799509765625,-2.542522043837607,-3.176052586843073,9.636752867543697,-0.4052333235740661,1.130415439605713,-0.3986891806125641
7.80949072265625,-2.864532230256497,-3.217987063992023,9.57225438414812,-0.1480819284915924,1.0824918746948242,-0.4665209352970123
7.819470703125,-3.082521777969599,-3.245195973435044,9.439798216813802,0.0944938510656356,0.9054988026618958,-0.47714963555336
7.82945068359375,-3.1873914347201584,-3.3049218356013297,9.286282310315968,0.2919006645679474,0.6395789384841919,-0.4342764914035797
7.8394306640625,-3.2084079192638395,-3.375107132461667,9.184486654183267,0.4383447766304016,0.3202939927577972,-0.3541657030582428
7.849411865234375,-3.103556674952805,-3.432160560548305,9.08834215568006,0.5323541164398193,-0.007589871995151,-0.2291854172945022
7.8593916015625,-2.9198092963203788,-3.434635133968293,9.03888400502801,0.5734925270080566,-0.2919392883777618,-0.078959971666336
7.86937158203125,-2.7383856844604013,-3.4112294162005186,8.943349162855744,0.5801874399185181,-0.5228680968284607,0.0788062214851379
7.879351806640625,-2.5522104941591617,-3.385394425459206,8.855788952824472,0.5763025879859924,-0.677676796913147,0.2102512270212173
7.8893330078125,-2.4115042387433347,-3.2941920595332976,8.74443344118595,0.591056227684021,-0.7828924059867859,0.2874158024787903
7.899312744140625,-2.2779119069859384,-3.1515573202729223,8.443662442150712,0.635369598865509,-0.813617467880249,0.309342622756958
7.909292724609375,-2.219133993194252,-3.1080402501076456,8.20226074692905,0.7411309480667114,-0.7286253571510315,0.2693965435028076
7.919272705078125,-2.1243717428296804,-3.037172816202044,8.08948250901103,0.938865840435028,-0.5380890965461731,0.1553240716457367
7.929253662109375,-1.9348248841382565,-2.787487861281633,7.871459935811162,1.1848626136779783,-0.2506279945373535,-0.0056882603093981
7.939233642578125,-1.6928963885635138,-2.2844427700594068,7.201454057845472,1.4108200073242188,0.0764419957995414,-0.1294565349817276
7.9492138671875,-1.603305987878889,-1.5697731361113487,6.103068453541398,1.5557012557983398,0.4198614060878753,-0.1739989668130874
7.95919384765625,-1.5110140731506048,-0.7451200825955718,4.725822068715095,1.5535656213760376,0.6648181676864624,-0.1441473364830017
7.9691748046875,-1.427110924322158,0.0865219530247151,2.831875284540653,1.370499610900879,0.764593243598938,-0.0734343007206916
7.979154541015625,-1.477132261814922,1.2886343276545404,0.5110960034698248,0.9950020909309388,0.6331093311309814,0.0148845482617616
7.989134765625,-1.7441439068503677,2.947845304237306,-2.262780096566677,0.480773389339447,0.0952093973755836,0.116401582956314
7.99911474609375,-1.7509269911192356,4.570652257530391,-5.285502362611889,-0.1492307037115097,-0.9280785322189332,0.1904760599136352
8.00909375,-1.6051960394091904,4.525401787701249,-5.254530301243067,-0.9230915307998656,-2.1546225547790527,0.2373144030570984
8.01907470703125,-0.6094016255296767,5.565598822408914,-8.493077922704815,-1.8890255689620967,-3.0567238330841064,0.295438289642334
8.0290546875,0.9461145833007992,6.132600837495922,-11.893503036296368,-2.9613306522369385,-3.30448842048645,0.3810738325119018
8.03903466796875,2.661118904906511,6.480134756749868,-15.133133776819705,-3.941741943359375,-2.86497163772583,0.4784433543682098
8.0490146484375,3.8170080191522833,6.905085093161463,-18.101276311415432,-4.517300128936768,-1.897264003753662,0.5332664251327515
8.05899560546875,4.167291529375315,7.422738263189792,-20.31310363485813,-4.468199729919434,-0.8419938087463379,0.4979751408100128
8.068975830078125,3.941702320313453,7.951305625942349,-21.456489241361616,-3.821103096008301,0.0325206592679023,0.3797337114810943
8.078955810546875,3.095758860683441,8.165718191951512,-22.162904987835883,-2.7001020908355717,0.6048043966293335,0.181758314371109
8.088935546875,1.8820314515836536,8.261158341577648,-22.24751336232424,-1.3195674419403076,0.7664715647697449,-0.0603781528770923
8.098916748046875,0.9427182919260114,8.017897866746782,-21.32160263200998,0.014973328448832,0.5637223720550537,-0.2987584173679352
8.108896728515624,0.5533877696238458,6.978495781809091,-19.35521721909046,0.9871805310249328,0.2496709674596786,-0.4389195442199707
8.118876708984375,0.6392227632977068,5.734969885164499,-16.801921560043095,1.561654806137085,-0.0243323519825935,-0.4918895363807678
8.128856689453125,0.9931560281999408,5.073610839512944,-13.990290606629848,1.7915549278259275,-0.2259149998426437,-0.4716157019138336
8.138837646484374,1.529870018659532,4.52332059751302,-10.991370656454562,1.7516130208969116,-0.3367250263690948,-0.4144981503486633
8.14881787109375,1.9642647675037384,3.528427808648348,-8.220298507922887,1.4310564994812012,-0.3083098828792572,-0.3648645579814911
8.1587978515625,2.2802435648038983,2.200992333434522,-5.964973988059163,0.9288260340690612,-0.13435959815979,-0.3347879648208618
8.168777587890625,2.431149288803339,0.9551336099281906,-4.08835477078259,0.3351182341575622,0.0330198183655738,-0.3378636538982391
8.178758544921875,2.461457041044533,-0.2568294198475778,-2.680472424674034,-0.2170769274234771,0.193642720580101,-0.3526291847229004
8.188738525390624,2.313803304578364,-1.177015342774242,-1.4606214181274175,-0.6380417346954346,0.3028925061225891,-0.3436815142631531
8.198718994140625,2.036867208508402,-1.9605602138973768,-0.1251730245888233,-0.8693912625312805,0.3491330742835998,-0.3146310746669769
8.20869873046875,1.66895671004951,-2.685406081683934,0.962719827273488,-0.8990117311477661,0.4032762050628662,-0.268865704536438
8.2186787109375,1.241224633964896,-3.2025814050674435,2.038165870016813,-0.7527143359184265,0.467094749212265,-0.2313991785049438
8.22865966796875,0.882771699681133,-3.547069380754232,3.1472564082086083,-0.4646959006786346,0.5362933278083801,-0.1785700619220733
8.2386396484375,0.5538238229535519,-3.9059874483317136,4.226078649386763,-0.1037354096770286,0.5592068433761597,-0.1240972355008125
8.24861962890625,0.2982844429165124,-4.167247690233588,5.18950925527811,0.2787637710571289,0.545294463634491,-0.0760748460888862
8.2586005859375,0.1011848307579755,-4.377024413135648,6.044252691957354,0.6305506825447083,0.5236749649047852,-0.034362606704235
8.268580810546876,-0.0944585912428796,-4.5626682730391614,6.85710519836843,0.9458506107330322,0.5185137391090393,-0.0099704461172223
8.278560791015625,-0.2592890879593789,-4.7021483476608985,7.706229626122116,1.206784963607788,0.5310474038124084,0.009247688576579
8.28854052734375,-0.4282910251416266,-4.715486552661657,8.498360831543803,1.4038503170013428,0.5659058094024658,0.0230404678732156
8.298520751953125,-0.6392717170059681,-4.602504901126027,9.149725721925495,1.5515366792678833,0.5923659205436707,0.0389944799244403
8.308501708984375,-0.8468798636972904,-4.320477473266423,9.75512147281468,1.6346595287322998,0.6006256937980652,0.0425886809825897
8.318481689453124,-1.0897282505959272,-3.987512762112915,10.23164651364088,1.6577059030532837,0.5879436135292053,0.0371378511190414
8.328461669921875,-1.316467360345274,-3.639312780165672,10.594251160776617,1.623313307762146,0.5613191723823547,0.0227690339088439
8.338441650390624,-1.4953018324948846,-3.304579305773973,10.88719599623084,1.52583110332489,0.5217307806015015,-3.32845811499e-05
8.3484228515625,-1.6465145766168832,-3.0299101317226884,11.057540872454643,1.375515699386597,0.4701400101184845,-0.0208916962146759
8.35840283203125,-1.723579549988359,-2.7951760776966807,11.13277936105132,1.1869900226593018,0.4268554151058197,-0.0360002927482128
8.368382568359374,-1.7627251270711422,-2.6373022682502865,11.177533864057065,0.9667562246322632,0.3937714993953705,-0.046953871846199
8.37836279296875,-1.7536359578169882,-2.551549984423816,11.146460680401324,0.7420735955238342,0.3744949698448181,-0.0402544029057025
8.388343505859375,-1.7408976184055207,-2.5193986501425503,11.04993507362604,0.5426840782165527,0.3450193703174591,-0.0202234350144863
8.398323974609376,-1.7402065674014389,-2.531151047256589,10.97552309898138,0.3901061713695526,0.2913326323032379,-0.0014196154661476
8.4083037109375,-1.750006953664869,-2.5092589489221573,10.814435880446434,0.2716767191886902,0.2305222600698471,0.0250463467091321
8.41828369140625,-1.7323191751524805,-2.511628016141057,10.519261678504945,0.1663768440485,0.1849593222141266,0.0698992982506752
8.4282646484375,-1.717657612593472,-2.510088970005512,10.06286347990632,0.0725187882781028,0.1406341940164566,0.1260944008827209
8.43824462890625,-1.6913072196759282,-2.53319073639065,9.459300205141306,-0.0363919138908386,0.0454209372401237,0.1881108582019806
8.448224609375,-1.6386298147164284,-2.5309154849350453,8.682977978748083,-0.2000444829463958,-0.0966184958815574,0.2554795145988464
8.458204833984375,-1.5794627554766834,-2.5704215658932923,7.467099382963776,-0.450818121433258,-0.2913795113563537,0.3251172006130218
8.468185791015625,-1.4813158311098813,-2.746742301656305,5.738360696646571,-0.7243908047676086,-0.4816727638244629,0.3946115672588348
8.478165771484376,-1.3355743580058217,-3.0180075124830004,3.812916950446367,-0.9063956141471864,-0.6023527979850769,0.4510817229747772
8.4881455078125,-1.0418920020572842,-3.139241151796281,2.181685867679119,-0.9313113689422609,-0.5830310583114624,0.4804271161556244
8.498125732421874,-0.7379331667661666,-2.795461324378848,0.8813695777982473,-0.7644481062889099,-0.5495123267173767,0.4620168209075928
8.508106689453125,-0.3611009645745158,-1.8694097242891787,-0.5910971764236689,-0.3953832387924194,-0.6360698342323303,0.4053514003753662
8.518086669921875,0.0773652714923024,-0.2666619548149406,-2.343102172037959,0.1269115060567855,-0.9510536193847656,0.4260787963867187
8.528066650390626,0.5168231489449739,1.9361912040553984,-4.288813630241156,0.5565468072891235,-1.503697633743286,0.6431493163108826
8.538046630859375,0.9009428777962922,3.870778480045497,-6.2999745889544485,0.3201113939285278,-2.0888991355896,1.0852530002593994
8.54802783203125,1.3298261697426437,4.99284511192739,-9.868333425974845,-0.7906100153923035,-2.286016702651977,1.5763391256332395
8.5580078125,1.8343501013457773,5.664931303298473,-15.121912125581504,-2.3300631046295166,-2.063071012496948,1.8200377225875852
8.567987548828125,2.151300958548486,5.584892720943689,-19.66760909781456,-3.6225881576538086,-1.6080520153045654,1.6987488269805908
8.577967529296876,2.1620862641960383,5.353429066890478,-22.30254726728201,-4.119414806365967,-1.0220720767974854,1.3125356435775757
8.58794873046875,1.5385194813221692,6.383666433119774,-23.703697674787044,-3.456925392150879,-0.4140388667583465,0.7713985443115234
8.597928955078125,0.3534836945038289,8.780358156526088,-23.461913702249525,-1.787331461906433,0.1063294485211372,0.245925486087799
8.60790869140625,-0.9261896203208714,10.63452238088846,-21.182802064085006,0.1079199686646461,0.4031046628952026,-0.1471693366765976
8.617888671875,-1.8956603100940583,10.071707296097278,-18.5221531147778,1.6004575490951538,0.5868737101554871,-0.5088587403297424
8.62786865234375,-1.7992630058735608,8.887505695080756,-16.307711809444427,2.310687780380249,0.6739444136619568,-0.8068060278892517
8.637849609375,-1.0007486752860248,8.261356494498253,-14.105761736893651,2.404503107070923,0.7127109169960022,-0.997536838054657
8.647831787109375,0.5837326390050351,6.521657438227534,-9.436379348281026,2.092846632003784,0.7569652199745178,-1.0750912427902222
8.657811767578124,1.1346204815719276,5.01703438128829,-6.920742096498608,1.5539908409118652,0.8129431009292603,-1.082896113395691
8.66779150390625,1.5503358835831285,3.3359465039402245,-4.705381338232756,0.923464834690094,0.866760790348053,-1.052316665649414
8.677771728515625,1.7568924753949045,1.889247082050889,-2.668601954138279,0.3173208832740783,0.8926985859870911,-0.9692975282669068
8.687752685546876,1.638514225512743,0.7517731838092208,-0.8284896360039711,-0.1784388273954391,0.8826509714126587,-0.7902854681015015
8.69773291015625,1.352620623744279,-0.1379836985841393,0.9104267454564572,-0.5590805411338806,0.8051658272743225,-0.5658446550369263
8.70771337890625,1.099392297128588,-0.7310239718995988,2.2292875768095253,-0.8401646614074707,0.6694881319999695,-0.3334678411483764
8.717693359375,0.8796643813155591,-1.1657945683188735,3.3197511559426784,-1.0510755777359009,0.4992167353630066,-0.1164712533354759
8.72767431640625,0.5444454614944756,-1.5303494727395477,4.216093261945248,-1.2002816200256348,0.347883403301239,0.0896347761154174
8.737654541015624,0.2348844222821295,-1.9805894409693776,5.0659594479769465,-1.2838051319122314,0.2206793129444122,0.2577149569988251
8.74763427734375,-0.0032575404912233,-2.523121762318909,5.854231055361032,-1.2785484790802002,0.134153202176094,0.3657144010066986
8.757614501953125,-0.2520614747934043,-3.0585300770074126,6.620967122763395,-1.1908353567123413,0.1134777069091796,0.4054413139820099
8.767594482421876,-0.5933087149932981,-3.4409839184731243,7.268247374179959,-0.9985305666923524,0.1080690920352935,0.37767493724823
8.777575439453125,-0.8948461683563887,-3.866927065314352,7.861348291641473,-0.702809751033783,0.1368642002344131,0.3011959791183471
8.787555419921874,-1.1444546970397234,-4.346165164491534,8.62440304018259,-0.3201502561569214,0.2134335339069366,0.1764963865280151
8.797535400390625,-1.299333562453836,-4.624350529970228,9.339568494823574,0.1105069443583488,0.3087719082832336,-0.0224158409982919
8.807515380859375,-1.367014767538756,-4.698772149226069,9.845749838244917,0.5290256142616272,0.4105760455131531,-0.2578307390213012
8.817496337890624,-1.4791412635497747,-4.6186587480694055,10.269489629822967,0.8946415185928345,0.4978346824645996,-0.4981774687767029
8.827476318359375,-1.5928893694132569,-4.411476717835664,10.496277108758688,1.1825124025344849,0.5413435101509094,-0.7064544558525085
8.83745654296875,-1.632227108067274,-4.14633700415194,10.652264958328008,1.3851622343063354,0.5415415167808533,-0.8638819456100464
8.8474365234375,-1.5648589144542813,-3.897373349243402,10.737537349683045,1.5021045207977295,0.4920181334018707,-0.9616444706916808
8.85741748046875,-1.473979496872425,-3.566857200285792,10.735381632953882,1.5282325744628906,0.449521541595459,-0.9794335961341858
8.867397216796874,-1.285668171325326,-3.2321053134545683,10.801786826753617,1.5044673681259155,0.4022378921508789,-0.9199833273887634
8.877377197265625,-1.0558344565615057,-3.1486966701447963,11.004550456023216,1.4389902353286743,0.3564178645610809,-0.7848110795021057
8.887357421875,-0.8975888911932707,-3.075830171376466,11.112037017273902,1.3104487657546997,0.3535280525684356,-0.5900096297264099
8.89733837890625,-0.6823802063703537,-3.040720864072442,11.02248592568636,1.1290671825408936,0.3198468089103699,-0.3690564930438995
8.907318359375,-0.509145600054413,-3.079174805629253,10.695055467784403,0.8948286175727844,0.2364195883274078,-0.1371513456106186
8.91729833984375,-0.4017760893121361,-3.1771678546085957,10.07448026794195,0.6021581292152405,0.1439544409513473,0.0861785635352134
8.9272783203125,-0.3000152122318744,-3.1521909420013428,9.333995663127302,0.2794298529624939,0.0592347681522369,0.2705332040786743
8.937259521484375,-0.1620519719138741,-2.7395973983377218,8.280179852911829,-0.0449558533728122,-0.0919015556573867,0.4165160655975342
8.9472392578125,0.0071127546146512,-2.3037588804259896,6.85070877532959,-0.3575832545757293,-0.2787494659423828,0.5439577102661133
8.957219482421875,0.1860525868348777,-2.341139932054281,5.523500971391797,-0.6268189549446106,-0.4509743750095367,0.679714560508728
8.967199462890624,0.3957135744027793,-2.463178750270605,4.132315493062138,-0.8439949750900269,-0.5171291828155518,0.8524330854415894
8.977180419921876,0.7421377788491547,-2.23235631673038,2.576759536743164,-0.9681782722473145,-0.5479252934455872,1.0263652801513672
8.987160400390625,1.226841888347268,-1.856472062913328,1.157047636631131,-0.9494173526763916,-0.5147196650505066,1.1535714864730835
8.997140380859374,1.579969682085514,-1.532249607272446,-0.0630927082508802,-0.7332121133804321,-0.3844867944717407,1.214301347732544
9.007120361328125,1.8756001033619043,-1.097056109265983,-0.9612678748995064,-0.2969874143600464,-0.2013931572437286,1.189932107925415
9.017101318359376,1.975023623535782,-0.4527770854920148,-1.6634271329730748,0.3182936608791351,0.0544893965125083,1.1290785074234009
9.027081298828126,2.077958805092424,0.3013071517385542,-2.157161082753539,1.0033444166183472,0.2197151035070419,1.033677339553833
9.0370615234375,2.4307461148299274,1.134249090976268,-3.2564088568449017,1.4867295026779177,0.1402392089366912,0.9514203071594238
9.04704150390625,2.601976103325188,2.209726990162581,-5.065496506640315,1.5315159559249878,-0.1334487944841385,0.9777525663375854
9.0570224609375,2.5079227318823336,3.2193092525064944,-7.531654564982652,0.9986289739608764,-0.6932944059371948,1.1449769735336304
9.067002197265625,2.5495406904280182,4.514343802592158,-11.76044714950323,-0.270663172006607,-1.5694230794906616,1.3991419076919556
9.076982177734376,3.0606138975441453,6.106302028635144,-17.46601909074783,-2.1648311614990234,-2.3734257221221924,1.648594856262207
9.08696240234375,3.773749599923194,5.947027412480115,-21.528972293770316,-4.070347785949707,-2.446584939956665,1.864453673362732
9.096942626953124,3.967142174257338,4.422848591199517,-22.280225545358658,-5.064553737640381,-1.886918544769287,1.885297179222107
9.10692333984375,3.650867316620052,4.420452635973692,-20.322212823987005,-4.582751274108887,-1.1222707033157349,1.641692042350769
9.1169033203125,2.5051813242197034,6.157079445192218,-17.027936301040647,-2.757912397384644,-0.3847237527370453,1.3378567695617676
9.12688330078125,0.912700535607338,7.575922745776176,-14.325198268544671,-0.4505355954170227,0.1210792511701583,1.149151086807251
9.136863525390623,-0.3127911802399903,7.437053788790107,-13.04922205467224,1.3085891008377075,0.3761111199855804,1.043022394180298
