seconds_elapsed,ax,ay,az,gx,gy,gz
0.088311767578125,-0.0673952186172362,-0.0756676007289439,0.4301058194786309,0.0591288805007934,-0.3967272639274597,-0.1241771951317787
0.098292724609375,-0.0666562322516227,-0.0244827724147588,0.4590010745733976,0.0548241436481475,-0.391030490398407,-0.1318577527999878
0.108273681640625,-0.127789874290023,0.0163838563069701,0.6138187113195658,0.040994968265295,-0.3372148871421814,-0.1295399814844131
0.118253662109375,-0.2937115272440947,0.0839876853067427,0.864722978901863,0.0541405975818634,-0.2399485409259796,-0.1166276559233665
0.128234619140625,-0.5493739308726042,0.1931205524597317,1.1965203998416662,0.1242179721593856,-0.0975582599639892,-0.0921288877725601
0.138214599609375,-0.7967942287966608,0.3252501181881874,1.4699468803554772,0.2270178645849228,0.0697439163923263,-0.0536017306149005
0.14819580078125,-0.9743919256929308,0.4734451219242065,1.6841034257769585,0.3586332201957702,0.2486433088779449,-0.0296132154762744
0.158175537109375,-0.9583549831274896,0.5811822604024782,1.6879525024205446,0.5079041719436646,0.3932308554649353,-0.0232517216354608
0.168156494140625,-0.9904736572481692,0.6170596660021692,1.2328501888513563,0.6586018800735474,0.4154061079025268,-0.0266080275177955
0.178136474609375,-1.2161715143162757,0.4804555121429264,0.5121294381707906,0.7892507314682007,0.3735228180885315,0.0073475413955748
0.18811767578125,-1.1293629263699054,0.1542153965367004,-0.2724894919246435,0.8118460774421692,0.255987673997879,0.0689680278301239
0.19809765625,-0.9258964095279574,-0.0821785352592356,-1.0428379046052694,0.6929274201393127,0.1247865185141563,0.1369044631719589
0.208078369140625,-0.3039131695184856,-0.3340539676949381,-1.2945599183112382,0.5023096203804016,0.0333364568650722,0.1697181463241577
0.21805859375,0.8437414195410907,-0.702081881988421,-0.8254629816591739,0.3995893895626068,0.1079542338848114,0.1123057082295417
0.228039794921875,0.9470189117293804,-0.7773973082788288,-0.0139870242983102,0.3963190019130707,0.030867975205183,0.0742632523179054
0.238019775390625,0.7492581322483718,-0.3565587911002337,-0.689052523741126,0.2975386381149292,-0.2436027228832245,0.012722129933536
0.248000732421875,0.9012112464088946,-0.1708842072648927,-1.2036942369937895,0.161851555109024,-0.3168116211891174,0.0031527429819107
0.25798046875,0.4158270091595128,-0.0751272787405876,-0.244752174693346,0.1088882014155387,-0.2353196889162063,0.0034281138796359
0.267961669921875,-0.3309180077567696,0.2803407351479865,0.7335042444080114,0.1839230954647064,-0.1914039701223373,-0.0295500289648771
0.277941650390625,-1.017501364905387,0.6729562522038817,0.7401257083743811,0.3282216787338257,-0.1866512894630432,0.0079909563064575
0.287922607421875,-1.354629625479132,0.6643543550100177,0.6608727234393358,0.4755013883113861,-0.1374429017305374,0.0919196680188179
0.29790234375,-1.4788330743834377,0.600510463065654,0.336090734219551,0.5616620779037476,-0.101387433707714,0.1484013199806213
0.307883544921875,-1.3913240100175142,0.3243602932089939,0.0842711053580045,0.5943998694419861,-0.0560452714562416,0.2081934958696365
0.317863525390625,-1.091861974688992,-0.0407608485260047,-0.2038192758023738,0.5832849144935608,-0.0265241283923387,0.2589541375637054
0.327844482421875,-0.7612183268941939,-0.2128858861648477,-0.434555784624815,0.5182919502258301,0.0658336356282234,0.2826401889324188
0.33782470703125,-0.7044844130855054,-0.1687071189541369,-0.7696271126687526,0.3832137882709503,0.2335680425167083,0.2995067834854126
0.3478056640625,-0.7075413164380937,-0.1551655003357678,-1.071578261399269,0.2146394550800323,0.4717405140399933,0.3131431639194488
0.35778564453125,-0.656264425926283,-0.2190338691342622,-0.8573305305629968,0.0654555633664131,0.7061894536018372,0.3223108351230621
0.3677666015625,-0.5493368137326091,-0.2590072388106957,-0.5017418996691704,0.0049444711767137,0.8899657130241394,0.3180367052555084
0.37774658203125,-0.431428007993102,-0.20996471975483,0.0331885683745145,0.0327100530266761,0.9907662868499756,0.3143729865550995
0.387727783203125,-0.5030596677368506,-0.1566585153724998,0.3528653434097766,0.1243579909205436,1.0001299381256104,0.3395023941993713
0.397707763671875,-0.5350196076318622,-0.1505908858966082,0.4741530509978532,0.2158663272857666,0.9311825633049012,0.3866126537322998
0.4076884765625,-0.6437940167360008,-0.1766690742766484,0.3621609950214624,0.2641199231147766,0.8438464999198914,0.4722120463848114
0.41766845703125,-0.5839989617910236,-0.1555521615657955,0.472825601786375,0.2636845111846924,0.7959237098693848,0.542219877243042
0.427649658203125,-0.1068884492270648,-0.0230613613095134,0.9006301585853099,0.2387481480836868,0.8106305003166199,0.5574966073036194
0.437629638671875,0.5459543316874653,0.1823603812534362,1.2791080821573733,0.1768914312124252,0.8435525298118591,0.5119816064834595
0.447610595703125,0.9564515606589616,0.2724208106026053,1.2288614114761351,0.0800377205014228,0.9255141615867616,0.4711799025535583
0.45759033203125,1.1006425163853912,0.2027372161867097,0.941115313708782,-0.0647351741790771,1.1215864419937134,0.4587956666946411
0.467571533203125,1.0030255341768264,0.2163936568237841,0.348601256224513,-0.3087217807769775,1.329902410507202,0.4106722176074981
0.4775517578125,0.5178387557283044,0.372901109820418,0.1861234601140022,-0.3511978685855865,1.0066580772399902,0.4420754015445709
0.48753271484375,-1.3525848217785357,-0.0018485870087519,1.7074141587376594,0.0515782013535499,0.2675538659095764,0.5789958834648132
0.49751318359375,-0.506333172982186,-0.1875000456968322,2.6622873641639946,0.1522480845451355,0.2722213268280029,0.6466385722160339
0.507492919921875,0.0452165675595402,0.1527005349943414,0.94755323780179,0.0603885427117347,0.2288015782833099,0.6597402691841125
0.517473876953125,0.3720804776199162,0.1281114891935139,-0.0026391163319349,-0.0794915929436683,0.2086326628923416,0.7099211812019348
0.527453857421875,-0.076137921654433,-0.1972552045790478,0.0665624301880598,-0.245855838060379,0.2029361873865127,0.8011269569396973
0.53743505859375,-0.6331031113736331,-0.3062078928595408,-0.1580634867995977,-0.4503937661647796,0.2283747047185897,0.8669462203979492
0.547414794921875,-1.0101691223211586,-0.2400785203265026,-0.020084172129631,-0.6491661071777344,0.149017721414566,0.8229588866233826
0.557395751953125,-1.104457471563667,-0.0347767874140292,0.1821779373586177,-0.796759843826294,-0.0557535253465175,0.6322141885757446
0.567375732421875,-1.2543345831677315,0.1625290696400217,0.6874930193394422,-0.8426546454429626,-0.278477668762207,0.3451904356479645
0.57735693359375,-1.4921591505549847,0.4630720138067379,1.256689329600334,-0.8677820563316345,-0.4766932725906372,-0.0087175741791725
0.587337158203125,-1.9885851158984005,0.5715192002505064,1.923127285951376,-0.8915385603904724,-0.3743516206741333,-0.3139899969100952
0.59731787109375,-2.241803505641967,0.8496300391882657,2.038362269371748,-0.960315763950348,-0.2799939811229706,-0.5914602279663086
0.6072978515625,-2.3441861678823828,1.5137531427256763,1.7910364447981115,-0.9544234275817872,-0.0827226564288139,-0.816811203956604
0.617279052734375,-2.221135688405484,1.89641770433262,1.825063217562437,-0.8442452549934387,0.0332375019788742,-1.0232897996902466
0.627259033203125,-1.885668200650811,2.0205220767766234,2.000931241121888,-0.6069031953811646,0.2230849266052246,-1.244895100593567
0.637239990234375,-1.644992043224722,2.180503379896283,2.4401070867627856,-0.3105972409248352,0.3800135552883148,-1.448487639427185
0.6472197265625,-1.387604551102966,2.017213098359108,2.115589885959029,-0.0133643494918942,0.5317456722259521,-1.64227557182312
0.657200927734375,-1.094261363980919,1.912058194926381,2.1190034937947986,0.3159895837306976,0.5897583365440369,-1.813521385192871
0.667180908203125,-1.1026122820883988,1.8382012238159773,2.334694409176707,0.6368190050125122,0.5874695777893066,-1.9598793983459477
0.677161865234375,-0.9199382317759096,1.6011927951171994,2.7467946163654324,0.8641000986099243,0.62742018699646,-2.0541932582855225
0.687141845703125,-1.461975024693459,1.2793369224771856,2.5511586470186707,0.939563512802124,0.5402759313583374,-2.13420844078064
0.697123046875,-1.4858271710544824,1.4611742297045889,2.025298205137253,0.8767153024673462,0.2865507006645202,-2.2239880561828613
0.707102783203125,-1.6187836891263725,1.7615579829879104,1.5314754080295565,0.6540431380271912,-0.1031620129942894,-2.2655341625213623
0.717083740234375,-1.789032557629794,1.887130674418807,0.693314272838831,0.2358256429433822,-0.5592909455299377,-2.2148187160491943
0.72706396484375,-1.755691136781126,1.7270891655445098,-0.3487707675725221,-0.3019140362739563,-0.9683587551116944,-2.056997776031494
0.737045166015625,-1.336114017840475,1.248197249456495,-0.9460527701109648,-0.8472833633422852,-1.2049022912979126,-1.8351255655288696
0.74702490234375,-0.614824892687425,0.6539705428354442,-1.2289496742814778,-1.2269219160079956,-1.354302167892456,-1.6305477619171145
0.757005859375,0.1333432523671537,0.184665370260179,-0.9800433025181292,-1.3686505556106567,-1.3424707651138306,-1.4824763536453247
0.76698583984375,0.6431397175457328,-0.0586299566883593,-0.6857189954042434,-1.2996121644973757,-1.1466888189315796,-1.4016764163970947
0.776967041015625,1.1096774712342767,-0.0495798042703419,-0.7172498596996069,-1.0801889896392822,-0.8630803227424622,-1.3564189672470093
0.786947021484375,1.2913503086149691,-0.0549204346459358,-0.7836398559302091,-0.771244466304779,-0.5162087082862854,-1.3199971914291382
0.796927978515625,1.4890607461482286,-0.0751204882401972,-0.6653168433666229,-0.4105216860771179,-0.2899540364742279,-1.3164268732070925
0.80690771484375,1.6016497451044618,-0.1913931441452354,-0.4310965840816497,-0.1090177819132804,-0.1142958328127861,-1.3484439849853516
0.816888916015625,1.5937907021671534,-0.3508860061608255,-0.3892839797466993,0.0831857472658157,0.0235014483332633,-1.3993796110153198
0.826868896484375,1.5162787156805395,-0.4964868286851793,-0.3206155171900987,0.1824325621128082,0.0800550207495689,-1.4179983139038086
0.836849853515625,1.3640832441315054,-0.5825960361905396,-0.1307008480995893,0.1797440946102142,0.0724471658468246,-1.3723582029342651
0.846829833984375,1.2853183349743484,-0.6193281223908066,-0.0715244365096092,0.0881921872496604,0.0091010266914963,-1.2491708993911743
0.856810791015625,1.3417863643884658,-0.7812441199000925,-0.1627250488698482,-0.0922337770462036,-0.0834962874650955,-1.0621882677078247
0.866791015625,1.4079041195489466,-1.1691028891492634,-0.2745692208081484,-0.2882679998874664,-0.1970061361789703,-0.8396450281143188
0.87677197265625,1.6189413639061152,-1.5897396732106803,-0.1598901177048683,-0.4269462525844574,-0.3252775371074676,-0.6381875276565552
0.886751953125,1.9082859829112888,-1.8845149389624596,0.0063560910284519,-0.4840369522571563,-0.380762904882431,-0.4837830662727356
0.896733154296875,2.189484850992262,-1.9723212327092885,0.0915875658512115,-0.4535954296588897,-0.3352555930614471,-0.3849427700042724
0.906712890625,2.4396591968648136,-1.9130818388856947,0.1155629002004861,-0.3408029973506927,-0.2600283622741699,-0.3354424834251404
0.91669384765625,2.509690033815801,-1.8961232514306905,0.2458557520210743,-0.1734480857849121,-0.1521253436803817,-0.3273118734359741
0.926673828125,2.4857222982510923,-1.7920519054509698,0.428833899846673,-0.0085925348103046,-0.0061307554133236,-0.3430794179439544
0.936655029296875,2.5096745439857244,-1.503020444048196,0.3646422904431819,0.1175725907087326,0.1268896162509918,-0.3934475183486938
0.946635986328125,2.4491223139978944,-1.2680413292199373,0.0788128399521112,0.2205342501401901,0.1711256206035614,-0.4554859697818756
0.95661572265625,2.3064532340765,-1.0403341781560331,-0.245007610759139,0.3233929872512817,0.190894529223442,-0.4904080033302307
0.9665966796875,2.0473054542839524,-0.9679387309655546,-0.4004191217452287,0.40289506316185,0.1853890568017959,-0.4620523452758789
0.976576904296875,1.7962977263271809,-0.8427007513817399,-0.7592910120934248,0.4397561550140381,0.119145318865776,-0.3520571291446686
0.986557861328125,1.628343836893141,-0.5681557151667773,-1.2558236526817084,0.4164709746837616,-0.0033654039725661,-0.1852996051311493
0.9965380859375,1.4655920461468397,-0.2490639734778553,-1.8584347412884237,0.3400310575962066,-0.1191300898790359,0.0394709184765815
1.006518798828125,1.2663432931303975,0.1380559601027518,-2.58152222110033,0.2054950892925262,-0.1666141003370285,0.2957393229007721
1.0164990234375,1.4567591897413137,0.926696473864466,-3.67329746735394,0.0469872131943702,-0.2335361391305923,0.500862717628479
1.02647998046875,1.6349354902431368,1.785261222397536,-4.795338088011741,-0.1014471277594566,-0.2659505009651184,0.6337375640869141
1.0364599609375,1.9114412320718168,2.604516143196821,-6.01994067299962,-0.2537450492382049,-0.3178853392601013,0.6585078835487366
1.04644091796875,2.419576339909434,3.614261633278429,-7.570200860998034,-0.4049655199050903,-0.3415743112564087,0.576012372970581
1.0564208984375,2.929310991898179,4.69423801292777,-9.00454509757459,-0.5264996886253357,-0.2834175229072571,0.4214587211608886
1.06640185546875,3.1875124307513234,5.464073799911141,-10.142415740048884,-0.619065523147583,-0.1541914790868759,0.2537356317043304
1.0763818359375,3.1666280481547115,5.881187451347708,-11.398366233980656,-0.7268039584159851,0.0134827429428696,0.1077922731637954
1.08636279296875,3.0084175540998577,6.224893921267986,-12.470108161509035,-0.8223744630813599,0.1711781919002533,-0.0315180495381355
1.096343017578125,2.690416895583272,6.360144103235006,-13.032813356184958,-0.8548639416694641,0.3350643217563629,-0.1224687248468399
1.10632373046875,2.0304228546746077,5.7769496627599,-12.870187676036355,-0.8417891263961792,0.405000627040863,-0.1492332965135574
1.1163037109375,1.4371040566787123,5.083211027029156,-12.67819912328124,-0.804675817489624,0.3326835334300995,-0.1383063495159149
1.12628466796875,0.8871072446674108,4.438411486512423,-12.257503521704672,-0.7396156191825867,0.1828528046607971,-0.108347937464714
1.13626513671875,0.3875928117893636,3.788456170667708,-11.592273187577725,-0.642310619354248,0.0185653269290924,-0.0598800033330917
1.14624609375,0.1124552165087312,3.1869185565114018,-10.604873092556,-0.5005093812942505,-0.1304033994674682,-0.0292757432907819
1.156225830078125,0.0484826932160183,2.4744237823843958,-9.273118292838337,-0.3410137593746185,-0.2260308563709259,-0.0465804301202297
1.166206787109375,0.0860571850571781,1.7802547924123704,-7.759042347899078,-0.1847081184387207,-0.263180524110794,-0.1371980309486389
1.17618701171875,0.2321690258435904,1.227387831792235,-5.950590657919645,-0.0377532877027988,-0.2152265757322311,-0.3079287707805633
1.18616796875,0.4042094539389014,0.673845309998095,-3.96584190531373,0.0949961245059967,-0.0731439366936683,-0.5463625192642212
1.19614794921875,0.5883513848468661,-0.1983769386179745,-1.8566724077910184,0.2288151681423187,0.0948240309953689,-0.8224710822105408
1.206128662109375,0.6650165452457965,-1.3743084316782652,0.4459241508573293,0.3745957612991333,0.2626178562641144,-1.0943046808242798
1.21610888671875,0.627884061551094,-2.5778327189326284,2.7260341524094343,0.5266779661178589,0.3886852264404297,-1.3283557891845703
1.22608984375,0.604994403546676,-3.561376138526201,4.791084522220492,0.6752217411994934,0.4958739578723907,-1.5190521478652954
1.23606982421875,0.6250421161234379,-4.379047735656798,6.649808601844311,0.7998289465904236,0.5378490686416626,-1.6523391008377075
1.24605078125,0.6380707437183708,-4.866441084238886,7.965839762729406,0.8790032863616943,0.516455888748169,-1.7116172313690186
1.256031005859375,0.5587831258613616,-5.162088164389133,8.844367395099997,0.8887632489204407,0.4779902398586273,-1.6587934494018557
1.26601171875,0.3439566452890634,-5.399854717978835,9.497716152775286,0.8566864728927612,0.4476995766162872,-1.4864723682403564
1.275991943359375,-0.0582502366557717,-5.448965662628412,10.169638093495369,0.8382723331451416,0.4000393748283386,-1.199714422225952
1.285972900390625,-0.593858384765312,-5.24635459357202,11.060867971050738,0.8878793716430664,0.3051565885543823,-0.8612871766090393
1.295953125,-1.04406773866117,-4.71559235112369,11.865062539231776,0.9947674870491028,0.1382839828729629,-0.529203474521637
1.305933837890625,-1.2132118607930835,-3.996377913352847,12.319215004730223,1.1022485494613647,-0.0537606328725814,-0.2535879015922546
1.315913818359375,-1.1076738763269036,-3.451944872948527,12.586423341381549,1.148914813995361,-0.2108906060457229,-0.0316360406577587
1.325894775390625,-0.9215545809313654,-3.1800524701341986,12.646032883691786,1.104905128479004,-0.3250331580638885,0.1283523440361023
1.335875,-0.668889660352096,-3.0714412887677547,12.530084783565997,0.9671086072921752,-0.4131062924861908,0.223318263888359
1.34585595703125,-0.4763381399519741,-3.0447718930289147,12.229523627889156,0.7469819188117981,-0.4558598101139068,0.2771665453910827
1.355835693359375,-0.3714894163915887,-3.0513132774963974,11.676413944554328,0.4677146077156067,-0.4633901715278625,0.3042860329151153
1.365816650390625,-0.3139077631797641,-3.1013305233359336,10.965275261211394,0.1833464056253433,-0.3976204395294189,0.3060013055801391
1.3757978515625,-0.2985636799830012,-3.149202281579375,10.409652133750916,-0.012153847143054,-0.2879461348056793,0.2703106999397278
1.38577783203125,-0.1508098258769139,-3.086215956312418,10.05730935291052,-0.0548936463892459,-0.1919380128383636,0.1576263755559921
1.3957587890625,-0.1326099148576147,-2.997180120770633,9.915254167103766,0.0467102080583572,-0.0808911174535751,0.0031313386280089
1.40573876953125,-0.2844081489836797,-2.840313150279224,9.721752287176251,0.2271669059991836,0.0362022966146469,-0.1683840453624725
1.4157197265625,-0.4431079243928194,-2.506284024764597,9.285050722694397,0.4339219629764557,0.1221632659435272,-0.352115273475647
1.425699951171875,-0.5621063885325566,-2.168296370882541,8.890159424459934,0.6374276280403137,0.1591012924909591,-0.5392214059829712
1.435680908203125,-0.7121812511984259,-1.9948362852476536,8.560856742945314,0.806637167930603,0.1574165672063827,-0.6880010366439819
1.445660888671875,-0.7885269703846425,-1.976847624092549,8.251527174401282,0.9366862177848816,0.1441365927457809,-0.7983710765838623
1.45564208984375,-0.7449653304252774,-2.0208042547188696,8.083392375442385,1.0260640382766724,0.131712406873703,-0.8950195908546448
1.465621826171875,-0.5805762208007276,-2.010636204186827,7.887331458681821,1.079907774925232,0.1207105070352554,-0.9918752312660216
1.475602783203125,-0.3400825072694569,-1.768902062140405,7.517534269693494,1.109176754951477,0.1233355849981308,-1.0890772342681885
1.485582763671875,-0.1160780466483905,-1.3625002127237618,6.796403184646367,1.0955473184585571,0.231405422091484,-1.1777799129486084
1.495564208984375,0.0174752682728692,-1.0982377202659843,5.78092148900032,1.0762956142425537,0.3350055813789367,-1.245400309562683
1.50554443359375,0.1115558565162122,-0.9187478529475628,4.59332381580472,1.0716536045074463,0.4297852218151092,-1.2687174081802368
1.515525146484375,0.0733361986393108,-0.4477215556681156,2.9251679007440803,1.024213433265686,0.5354945659637451,-1.2419757843017578
1.525505126953125,0.1482896597495302,0.5638109639607369,0.1426724409222602,0.8525735139846802,0.6115517616271973,-1.188309907913208
1.535486083984375,0.0549786311065778,1.841009705365449,-3.670115914708376,0.5181062817573547,0.6671870946884155,-1.0805184841156006
1.545466552734375,-0.148045950654149,3.428649045296013,-7.811634704923629,0.1173678040504455,0.6948468089103699,-0.948202908039093
1.555447265625,-0.1862292585760354,5.133657604196667,-11.261416262358429,-0.1635802388191223,0.6110509634017944,-0.8369852900505066
1.56542724609375,-0.1585636183414608,6.460132417684793,-13.649897791302203,-0.2602457106113434,0.5055206418037415,-0.7686407566070557
1.575408203125,0.1300203915547579,7.549736165118217,-15.538516073930262,-0.214266762137413,0.4222396612167358,-0.7319498658180237
1.585388427734375,0.5877644518043845,8.002285287073255,-16.988929986298082,-0.1332046836614608,0.4341726899147033,-0.6970056295394897
1.595369384765625,0.907706818973273,7.594019543480873,-18.219757729411125,-0.1720263808965683,0.4208765923976898,-0.6061140894889832
1.605349365234375,0.9867536868769676,6.892787337124347,-19.08691933363676,-0.365217387676239,0.4307401180267334,-0.4384539425373077
1.615330078125,0.9709892045773564,5.948497485032678,-19.044416408950088,-0.6322845220565796,0.3389137983322143,-0.2177362293004989
1.625310302734375,1.1057202580410987,4.964693368676304,-18.77315032134056,-0.9446356892585754,0.1535595208406448,0.0293932631611824
1.635291259765625,1.1608301508445291,4.397624133571982,-18.967213926804064,-1.2559634447097778,-0.009673343040049,0.3024375736713409
1.645271240234375,1.1667877440746872,4.018654042568802,-19.22497171354294,-1.427155375480652,-0.1895542293787002,0.5655460357666016
1.655252197265625,1.1761677129689605,3.4391184168621898,-18.732224436712265,-1.3623089790344238,-0.3590452671051025,0.785936176776886
1.665232177734375,1.0285848497819154,3.129893477736413,-17.694991512507197,-1.124988079071045,-0.3973925709724426,0.9427621960639954
1.675213134765625,1.0406639946322886,3.1224884621769187,-16.396414175248147,-0.794489324092865,-0.3748355805873871,0.9792656302452089
1.685193359375,1.0268366909403353,2.705418357621133,-14.577029003322124,-0.4825340807437897,-0.3398036360740661,0.9274139404296876
1.69517431640625,0.8924461214773356,2.0360203824207184,-12.6091589048028,-0.3064970076084137,-0.3012226819992065,0.8241661190986633
1.705154541015625,0.7331125416766852,1.523661957799643,-10.657253268134593,-0.2615321576595306,-0.2419642359018325,0.6896190047264099
1.71513525390625,0.4475081321131438,0.9312215500734746,-8.5731901548177,-0.3075380027294159,-0.237713024020195,0.5462980270385742
1.725115234375,0.1758001459550112,0.0869644360952079,-6.387096992090344,-0.3511709868907928,-0.2691739201545715,0.3915432393550873
1.73509619140625,-0.0416202966332435,-0.775986126306653,-4.064108802798391,-0.3481272757053375,-0.2935122847557068,0.2349730879068374
1.745076416015625,-0.2772225117959082,-1.4818252419367433,-1.6015426314681769,-0.2584747076034546,-0.3025014102458954,0.075182244181633
1.755057373046875,-0.5071207431633025,-1.9784904228635127,0.8947609742909669,-0.0921413898468017,-0.3122333884239197,-0.0723813772201538
1.765037109375,-0.7892798345785588,-2.3533064629271627,3.227930365857482,0.101205974817276,-0.3050654530525207,-0.1957033574581146
1.77501806640625,-1.0189318360999229,-2.4800112271279096,5.156919821840525,0.2700120210647583,-0.3154554963111877,-0.2900916635990143
1.784998291015625,-1.146286150250584,-2.3666287397064267,6.69606181897521,0.397872656583786,-0.3746159970760345,-0.3569400012493133
1.794979248046875,-1.149219134962559,-2.1412484972201287,7.909528092920779,0.472322404384613,-0.4471645057201385,-0.4109891057014465
1.80495947265625,-1.0214998599570244,-1.988933637075126,9.056382836839555,0.5104495882987976,-0.4834102690219879,-0.4591676294803619
1.814940185546875,-0.9569673281613736,-2.2583549736008046,10.186229162812232,0.5348768830299377,-0.5035168528556824,-0.4990876317024231
1.82492041015625,-0.8359670592125504,-2.6418296825468537,11.04911323584914,0.5470134615898132,-0.5628467202186584,-0.5471287369728088
1.8349013671875,-0.641479017791897,-2.699799348695576,11.511590462100504,0.5437915325164795,-0.6467967629432678,-0.6119537949562073
1.84488232421875,-0.3935613648049533,-2.5471415203318,11.792083812260628,0.5372198820114136,-0.6771010160446167,-0.6802706122398376
1.8548623046875,-0.1001220055657438,-2.432817368146032,11.984891864705084,0.5201364755630493,-0.6164043545722961,-0.761299192905426
1.864843505859375,0.2315427289051003,-2.2873871529482304,12.121209383642674,0.5274045467376709,-0.5141028165817261,-0.8681180477142334
1.8748232421875,0.444697531671822,-2.0577463304080066,12.204269944167136,0.5560404658317566,-0.3296756744384765,-0.9608229398727416
1.88480419921875,0.3866573210375383,-1.6916621705934405,12.27108664137721,0.5698888897895813,-0.0588982701301574,-0.9783150553703308
1.8947841796875,0.1493367302502039,-1.2677132663093509,12.018414195078613,0.5291268229484558,0.2567427456378937,-0.9049042463302612
1.904765380859375,-0.0136468690911307,-0.7955761582437902,11.701263139128685,0.4668390154838562,0.4774121344089508,-0.793796181678772
1.9147451171875,-0.0332459611175581,-0.6693238870508968,11.698705271339415,0.421949565410614,0.5459837317466736,-0.6650600433349609
1.92472607421875,-0.3277525294631719,-0.9506734156489371,11.592701057600976,0.3610201776027679,0.5081018209457397,-0.4874825477600097
1.9347060546875,-0.616059768244624,-1.261437254779786,11.331239740169048,0.2781735062599182,0.3898974061012268,-0.2727515995502472
1.944687255859375,-0.8915639318153261,-1.5231880566775795,10.87275947459936,0.1772142350673675,0.2104705870151519,-0.0394807606935501
1.95466748046875,-1.1370340455196797,-1.6143122428007424,10.37441013997793,0.0810192599892616,0.0341128706932067,0.1835629642009735
1.9646484375,-1.149111436804384,-1.5884911344543098,10.075085832619669,0.0376158989965915,-0.1080236434936523,0.367467999458313
1.974628173828125,-0.993695688034594,-1.5804429986856876,9.997529130208491,0.0526494421064853,-0.2173701077699661,0.4947532415390014
1.984609375,-0.8484216863118111,-1.6055641420692204,9.890000483381748,0.1087073311209678,-0.2804275155067444,0.5642547011375427
1.99458935546875,-0.6358613240405917,-1.5207941472783684,9.717904964098334,0.1707680374383926,-0.2582351267337799,0.5767401456832886
2.0045703125,-0.3882273468332365,-1.5165236303523182,9.448826157400012,0.2276916652917862,-0.1763714849948883,0.5244764685630798
2.014550048828125,-0.1692628531407564,-1.7250993069015443,9.128633834058046,0.2930062115192413,-0.0844671428203582,0.4254079759120941
2.02453125,-0.0886253185121342,-1.8915112275905903,8.797561220261453,0.3646545112133026,-0.0282980166375637,0.3121199011802673
2.03451123046875,-0.1319804578476585,-1.886061730013043,8.194362687155603,0.4058980941772461,0.0604808554053306,0.2082781791687011
2.0444921875,-0.1578576072302646,-2.0315932136282324,7.451607799321413,0.439873993396759,0.1472906321287155,0.0849341079592704
2.05447216796875,-0.096432466865424,-2.417337182680517,6.629612786033749,0.5093817114830017,0.1077970191836357,-0.0436678081750869
2.064453369140625,-0.0265199042655527,-2.5395816064715384,5.499282475936412,0.5886083245277405,0.013538253493607,-0.1545560657978058
2.07443310546875,-0.0315424268689937,-2.27897164517194,3.345656581571698,0.5374875664710999,0.045935608446598,-0.2076722830533981
2.0844140625,0.2548506853868253,-1.4438807112067935,-0.2121644948214292,0.2767593562602997,0.1491841524839401,-0.2424647957086563
2.094394287109375,0.5683917889449746,-0.3409294794876128,-4.906919809621572,-0.2021384984254837,0.261737585067749,-0.2138619124889373
2.10437548828125,0.5278099685139954,0.6687116003714502,-10.108584782117603,-0.8124187588691711,0.3359163999557495,-0.0837227776646614
2.114355224609375,0.2112987448375672,1.7131202614247798,-15.001518151962756,-1.3341455459594729,0.1994706988334655,0.0528776794672012
2.124336181640625,0.2533955364087596,2.7744255506128077,-18.796351164186,-1.593538761138916,-0.1311015039682388,0.0872677490115165
2.134316162109375,0.8774755660343915,3.43502413328588,-21.674562667965887,-1.54047691822052,-0.4064105749130249,-0.0115309990942478
2.14429736328125,1.7199778722345829,3.700324298228323,-24.092519297719,-1.2552156448364258,-0.4386602938175201,-0.2264516800642013
2.15427734375,2.583443836812674,3.687204704414308,-25.324780288505558,-0.7042943835258484,-0.2061173170804977,-0.5498459935188293
2.164258056640625,3.392128702150285,2.392045797296613,-23.734333636069294,0.0392689481377601,0.1641654074192047,-0.8721835613250732
2.174238037109375,3.891311272725463,0.7708858074929564,-21.76153251088857,0.5699772834777832,0.5270964503288269,-1.049746036529541
2.18421923828125,3.7499887851074334,0.3742470445366576,-20.96555865856409,0.7368636131286621,0.8172984719276428,-1.0042989253997805
2.19419921875,3.1485853187248107,0.2836117744415998,-20.03382842831612,0.6529226303100586,0.8423779606819153,-0.751311719417572
2.20418017578125,2.4678365129485726,-0.0307824388145469,-18.559259733378887,0.4922719001770019,0.6868640184402466,-0.3788068294525146
2.21416015625,1.907032621849328,-0.1041366115019656,-16.616241167521476,0.3881010413169861,0.5322304964065552,0.0161801688373088
2.22414111328125,1.5719276837967335,0.1645357880862429,-14.472119014561176,0.3736314475536346,0.4225118160247803,0.3481138348579407
2.234121337890625,1.279394936274737,0.4825478813122957,-12.338550988841057,0.3859139680862427,0.3509931564331054,0.5972863435745239
2.244102294921875,0.9394885162245482,0.8430250879652798,-10.360866767793894,0.3471015393733978,0.3305998146533966,0.7843432426452637
2.254082275390625,0.4591113300148397,1.2734528328746555,-8.523061557558178,0.2284228503704071,0.3108386397361755,0.914546012878418
2.2640634765625,-0.1087742629736661,1.7076839155897496,-6.52856590244174,0.0744029656052589,0.2179421633481979,0.9850367307662964
2.274043212890625,-0.5979183276806026,1.9690441107347607,-4.454378870972991,-0.0804116502404213,0.0034375991672277,0.9865643382072448
2.284024169921875,-1.0082105355992912,1.8138485805869105,-2.433596097433567,-0.1995608657598495,-0.2684980034828186,0.929320991039276
2.29400439453125,-1.271447630532086,1.3454519011586905,-0.5142985989034176,-0.2945869565010071,-0.3697133064270019,0.8393024206161499
2.3039853515625,-1.0733404487662015,0.7696331040181219,1.4143220237672327,-0.2916792631149292,-0.385067343711853,0.6628907322883606
2.313965087890625,-0.5963710982386022,-0.1358915486104786,3.4966426773309705,-0.1680057942867279,-0.3231206238269806,0.4258648455142975
2.323946044921875,-0.3675624887388199,-0.937244025233388,5.456171648484468,0.0398384816944599,-0.2008615732192993,0.1934564262628555
2.33392626953125,-0.3273055163480341,-1.2957039737798273,7.073138059055805,0.2757588624954223,-0.0486853569746017,0.0029352135024964
2.3439072265625,-0.557189025070332,-1.3228062079779803,8.367219253939389,0.4967671632766723,0.0894378945231437,-0.1188889592885971
2.353887451171875,-0.9082246323022992,-1.2565879150524737,9.610962008205057,0.6915746927261353,0.1571570187807083,-0.1815259754657745
2.363868408203125,-1.1729425403773783,-0.9297142142504452,10.599739821320773,0.8418286442756653,0.1543828547000885,-0.2172446399927139
2.373848388671875,-1.2967974681049586,-0.5076580649103969,11.44026242494583,0.9388124346733092,0.0979574024677276,-0.2325929701328277
2.383829345703125,-1.2874337196931245,-0.287568987634778,12.163135969746111,0.9794020652770996,0.0025485772639513,-0.2299553602933883
2.393809326171875,-1.1803634110931307,-0.2639451701369136,12.853577902019024,0.9647142291069032,-0.0983601957559585,-0.2321777641773224
2.403790283203125,-0.9997127563670276,-0.2349420707534998,13.253425945878028,0.8821224570274353,-0.2013185769319534,-0.2335489988327026
2.413771484375,-0.853095158015564,-0.193883134330064,13.372667242330312,0.7466522455215454,-0.3177253305912018,-0.2298469394445419
2.423751220703125,-0.7603346759274602,-0.1500092135511338,13.309813603532314,0.5895490050315857,-0.4326081871986389,-0.1913749575614929
2.433732177734375,-0.7157453734207898,-0.140530898848921,13.277215986788272,0.4398870468139648,-0.4512098431587219,-0.0916307866573333
2.443712158203125,-0.6773458654649556,-0.1639077558483928,13.173368658822774,0.295784056186676,-0.3605885207653045,0.0685316324234008
2.453693359375,-0.623892946088314,-0.0841721750281751,12.853037803792953,0.2001952230930328,-0.2359062433242797,0.2778012156486511
2.463673095703125,-0.5457556673102081,-0.0555221999313682,12.585219226288794,0.1593485027551651,-0.1127604991197586,0.5213325619697571
2.473654052734375,-0.5715657793385908,-0.2328108308784663,12.364236049717665,0.1683585047721862,-0.0495149493217468,0.781356155872345
2.48363427734375,-0.7072352461636066,-0.4872586162865162,11.951465395921469,0.1661757379770279,-0.037090353667736,1.0554744005203247
2.493615234375,-0.9464131278559564,-0.6616995296522975,11.301886219912769,0.1242687776684761,-0.0475091710686683,1.3355568647384644
2.503595458984375,-1.1345173865236342,-0.7273584351293743,10.672705688810348,0.0822933092713356,-0.1070533916354179,1.569509983062744
2.513576416015625,-1.2071296913351863,-0.8345362226918339,10.233823273158071,0.0700960308313369,-0.196979820728302,1.7354565858840942
2.52355615234375,-1.2449994763284922,-0.8712105873554944,9.832532629275322,0.0673612654209137,-0.2334092855453491,1.8208578824996948
2.533537353515625,-1.0736869971815497,-0.8367655891790986,9.283635595199463,0.0781758278608322,-0.2534192204475403,1.7982257604599
2.543517333984375,-0.865789731350541,-0.9058223204009236,8.757139193502068,0.1341827511787414,-0.2617852091789245,1.6696327924728394
2.553498291015625,-0.7306935709014535,-0.9626792030021548,8.246494440931082,0.2663692831993103,-0.2804310619831085,1.4442925453186035
2.56347802734375,-0.6274600639853626,-0.825130973225832,7.60767631291151,0.4592732191085815,-0.2938467264175415,1.1526801586151123
2.573459228515625,-0.6368697704307734,-0.5202329573884606,6.940026642683148,0.6659153699874878,-0.2842990756034851,0.834602415561676
2.583439208984375,-0.5664537335544825,-0.2291327268876135,6.20291589821577,0.8458704948425293,-0.2603507936000824,0.4743570983409881
2.593420166015625,-0.5279657070649787,0.0141442606866359,5.23954842068851,0.905442714691162,-0.1113184317946434,0.0772787034511566
2.603400146484375,-0.0273593987134401,0.5375695843756199,3.543552312543988,0.8140649199485779,0.1097224503755569,-0.3741495609283447
2.61338134765625,0.8190264458056539,1.0013619848787785,1.1192308239340782,0.5546514391899109,0.2463604509830474,-0.8550565242767334
2.623361328125,1.4258499644756315,1.3964924986965954,-2.750905558815598,-0.0163640026003122,0.3625809252262115,-1.226547360420227
2.63334228515625,1.559618383452296,2.2084135694764555,-8.29133194604516,-0.9561970233917236,0.5594356656074524,-1.4145591259002686
2.643322265625,1.2485619911156594,2.447902270683646,-14.043222570872306,-1.963408708572388,0.5302606821060181,-1.3861098289489746
2.653303466796875,0.4238419367782771,1.8035830610297616,-18.58609162620306,-2.6329407691955566,0.2298502475023269,-1.1563708782196045
2.663283447265625,-0.1715835511732846,1.3558023225203155,-21.123533882558345,-2.63698673248291,-0.1804503202438354,-0.8437036275863647
2.67326416015625,0.2484779172182083,1.469719793601334,-22.520569255959987,-2.0158846378326416,-0.5267392992973328,-0.5129608511924744
2.683244140625,0.7451071500487625,1.858615504682809,-23.65849308992624,-1.0421868562698364,-0.5914871096611023,-0.2214830219745636
2.693225341796875,1.514916487416625,1.9842314507335423,-23.845004672574994,-0.0949209257960319,-0.4571521878242492,-0.0498809106647968
2.703205322265625,2.184464684742689,1.7007254747539755,-23.387585898756974,0.4067802727222442,-0.3000616729259491,0.0058391243219375
2.713186279296875,2.6643349443435667,1.674165676869452,-22.831502168047425,0.4399416744709015,-0.1082272455096244,0.0147314192727208
2.723166015625,2.684789995612204,1.780230096362531,-21.59879927871227,0.1895801573991775,0.0100257862359285,0.0322127267718315
2.733147216796875,2.6023709478616714,1.5108447079330682,-19.973070885014533,-0.176487311720848,0.0470194891095161,0.0529856495559215
2.743127197265625,2.535041040432453,0.8998662615407258,-18.103746500921247,-0.5350949168205261,0.1184271499514579,0.0427737198770046
2.753108154296875,2.3558137695729733,0.1028868854355067,-16.14768374457359,-0.7823739647865295,0.2429933100938797,0.007261533755809
2.763088134765625,2.03019006883204,-0.6362058266293257,-13.81902335486412,-0.8085476756095886,0.39287930727005,-0.0334369577467441
2.7730693359375,1.564193728543818,-1.076675949864462,-10.825851592952011,-0.6366345286369324,0.5417678356170654,-0.0428272634744644
2.78304931640625,1.072416611919552,-1.1863343752615154,-7.653191863417625,-0.4097332656383514,0.6484823822975159,-0.0266150832176208
2.7930302734375,0.3901818053692579,-1.5525883386850357,-4.885853056195378,-0.2068416774272918,0.6599646210670471,0.0305350217968225
2.80301025390625,-0.5241504230931401,-2.0999550944536924,-2.412923896282911,-0.0417776517570018,0.6133266687393188,0.181938037276268
2.812991455078125,-1.3994833510756493,-2.2649765836976465,-0.072097267961502,0.154785469174385,0.4926814436912536,0.3836056292057037
2.82297119140625,-1.9473286841414867,-2.2097740441747007,2.343969602522254,0.4012792706489563,0.307726502418518,0.5714197754859924
2.8329521484375,-2.217360553780943,-2.060442145363241,4.590671839991211,0.6555435061454773,0.1015797480940818,0.694516122341156
2.84293212890625,-2.158239964031428,-1.6965717160753904,6.472342495438456,0.8764885067939758,-0.0801132768392562,0.7243418097496033
2.852913330078125,-1.9245238548763093,-1.181039995180443,7.936620097985863,1.0210944414138794,-0.188081294298172,0.6589958667755127
2.86289306640625,-1.6470076208308335,-0.5895270775627345,9.168720929774642,1.092002272605896,-0.2136884778738021,0.5151383876800537
2.8728740234375,-1.3842264529719948,-0.0050226504676043,10.307643711650371,1.0925642251968384,-0.2018304765224456,0.3330700695514679
2.882854248046875,-1.2894491511687636,0.4857324296325445,11.284835716390608,1.0304373502731323,-0.1774515509605407,0.1312720775604248
2.892835205078125,-1.150548337739706,0.9900768399503082,11.972422843754291,0.9096296429634094,-0.1820662766695022,-0.0856173560023307
2.9028154296875,-0.9863076236099004,1.3092644432291387,12.488159366506338,0.7177058458328247,-0.1679090112447738,-0.2873069643974304
2.91279638671875,-0.8336607550315558,1.303822252175212,12.812074509763717,0.4533586204051971,-0.1174807250499725,-0.4668375849723816
2.922776123046875,-0.5940892343791201,1.1075721695180982,12.927210124462842,0.1480490416288375,-0.0358375869691371,-0.623131513595581
2.93275732421875,-0.4319569272380322,0.8761779274392872,12.83305183134079,-0.1574900895357132,0.0537604764103889,-0.7311661243438721
2.94273828125,-0.3303343626499175,0.7113365440025925,12.54309857891798,-0.4208545088768005,0.1166490167379379,-0.7879427671432495
2.95271826171875,-0.3031406142434105,0.4898445411264896,12.222249837493896,-0.6200451254844666,0.1620777547359466,-0.790823757648468
2.962699462890625,-0.3192160621883347,0.0860989783722907,11.78455984649658,-0.7659586071968079,0.1941790580749511,-0.7340531945228577
2.97267919921875,-0.3693233974641188,-0.3504971529737115,11.19915415971279,-0.8643752336502075,0.2004931569099426,-0.6217567324638367
2.98266015625,-0.4512917788377031,-0.7353991913091391,10.672897411990164,-0.9190749526023864,0.1560147553682327,-0.4761983454227447
2.99264013671875,-0.5204479153133929,-1.170499385008961,10.190790771639346,-0.9355034828186036,0.095710389316082,-0.3005927205085754
3.002621337890625,-0.5841256934432313,-1.5819833599954842,9.746243754354118,-0.9230614900588988,0.0517362356185913,-0.114527404308319
3.012601318359375,-0.4996932235110551,-1.938386229881644,9.451060784584284,-0.8445035815238953,-0.008041612803936,0.0416768491268157
3.02258203125,-0.3904379355547949,-2.3868019052937623,9.397357835969329,-0.6952672004699707,-0.0647448748350143,0.1642970144748687
3.032562255859375,-0.2766216232933104,-2.786972312974929,9.33122210676074,-0.5054200291633606,-0.0862222015857696,0.2678295075893402
3.042543212890625,-0.2007451655866578,-2.9924086685851217,9.21160204012394,-0.2802745997905731,-0.0582276359200477,0.3263946771621704
3.0525234375,-0.0880696208581328,-2.9959114160090685,9.152592801794407,-0.0392878018319606,0.0001094387844204,0.3505700528621673
3.06250439453125,-0.0683716350344941,-3.005251783545315,9.131531309065222,0.1971125304698944,0.0902089029550552,0.3512271046638489
3.072484130859375,-0.1690830395944416,-2.9628277693137526,8.994562632742523,0.3741216659545898,0.1902689337730407,0.3586210906505584
3.08246533203125,-0.2269044198462739,-2.8365608120083805,8.770039007085561,0.4874270260334015,0.2415777146816253,0.3616324961185455
3.0924453125,-0.1520583646332845,-2.7826874752625823,8.568299460166692,0.5619473457336426,0.2322441488504409,0.3336757123470306
3.10242626953125,-0.0458361972952261,-2.882389373986423,8.248464279699325,0.5943303108215332,0.2444474846124649,0.2709980309009552
3.11240625,-0.0645100277028977,-3.0954943645283577,7.720441106826066,0.5935090184211731,0.2783271372318268,0.1999555379152298
3.12238720703125,0.0029926424773409,-3.002320698529482,6.58647273248732,0.5522260069847107,0.3333390057086944,0.13155597448349
3.1323671875,0.0313647870134562,-2.3943932372055947,4.944609196546674,0.4526922106742859,0.4667141139507293,0.0770336091518402
3.14234814453125,0.0505768524836748,-1.3062778286337853,2.22558579968214,0.2076709866523742,0.5984330773353577,0.0488719195127487
3.152328369140625,0.105522348505631,0.4045389781542122,-1.8763713799953456,-0.2235794812440872,0.6731573939323425,0.0862576365470886
3.162309326171875,-0.1393610513519495,2.36503708660081,-6.901340061414241,-0.8138238787651062,0.690590500831604,0.18185356259346
3.172289306640625,-0.3406350265856832,4.240981911747157,-11.818873619508745,-1.3430310487747192,0.4844706356525421,0.2849794328212738
3.182270263671875,-0.1850210518300533,5.6201955049932,-15.707297938621045,-1.6371701955795288,0.1837799847126007,0.3263775408267975
3.192250244140625,0.2104750073645263,6.337136737135053,-18.48973903790712,-1.6879262924194336,0.1091281101107597,0.2569899559020996
3.2022314453125,0.9764305919136852,6.128997260046005,-20.83709243764877,-1.5918962955474854,0.1534877270460128,0.0838052928447723
3.21221142578125,1.811782295706868,4.87603045810014,-22.69298684680462,-1.4098806381225586,0.1065817326307296,-0.2533130943775177
3.222192138671875,2.5359502642318605,3.4240231390610334,-23.620024535322187,-1.1504135131835938,0.0813416242599487,-0.6998118162155151
3.232172119140625,3.1527406848385926,2.653954712365568,-23.938254618680475,-0.8584365248680115,0.2111941576004028,-1.1509939432144165
3.2421533203125,3.710855044592917,2.702224237754941,-24.056007722401617,-0.524043619632721,0.3820399343967438,-1.5450048446655271
3.25213330078125,3.9198976080015298,2.6130539621785283,-23.276688067758084,-0.1819872409105301,0.4918681681156158,-1.821276426315308
3.2621142578125,3.971142642070353,2.4132057819642125,-22.090543515980244,0.1087345257401466,0.5216888189315796,-1.9904913902282717
3.272093994140625,4.004798535695672,2.39919508452937,-20.43286047961712,0.3588474094867706,0.5611549615859985,-2.0390570163726807
3.2820751953125,3.849559750927984,2.3103926193520423,-18.15557488783598,0.5553997159004211,0.5379248261451721,-1.9662883281707764
3.292055419921875,3.4172757106274365,2.102837371891737,-15.647642803603407,0.6762803196907043,0.4729362428188324,-1.7795495986938477
3.302036376953125,2.753269657598436,1.624073027706146,-12.941772902822494,0.6836172342300415,0.4474714398384094,-1.4804576635360718
3.312016357421875,1.974525903146714,1.1817721819125115,-10.34968369500041,0.6047016382217407,0.4237229824066162,-1.0792862176895142
3.32199755859375,1.138968374583125,1.016830479906499,-7.751037320619821,0.540712833404541,0.2823294103145599,-0.5937288999557495
3.331977294921875,0.1767405686102807,0.9180831054285168,-4.959903211790323,0.5339241623878479,0.0011504525318741,-0.0658059194684028
3.341958251953125,-0.7041320194512605,0.8625506032988428,-2.236494731709361,0.5192754864692688,-0.2600526809692383,0.4779488146305084
3.351938232421875,-1.3580864879347383,0.8678922565877437,0.2089233209431171,0.4666109681129455,-0.4159978330135345,0.9826931953430176
3.36191943359375,-1.5516408287018535,0.7240632660415023,2.598880183136463,0.4002663791179657,-0.5661763548851013,1.3595176935195925
3.371899169921875,-1.587761358875036,0.352206623772718,4.846339376452565,0.2937670946121216,-0.6202198266983032,1.6020911931991575
3.381880126953125,-1.4425105918973684,0.0222038859636522,6.645363312873244,0.1690844148397445,-0.6425452828407288,1.7110683917999268
3.391860107421875,-1.3158672024950384,-0.2415937289287336,8.078023541885614,0.0687540769577026,-0.6299043297767639,1.719939112663269
3.40184130859375,-1.29486416195482,-0.5468513535924255,9.334439899763463,0.0133770825341343,-0.5808462500572205,1.6610976457595823
3.4118212890625,-1.2751491153985262,-0.7981737004563212,10.275600221657752,0.0034592049196362,-0.5119729042053223,1.562060832977295
3.421802001953125,-1.256181233947724,-0.9583971417687832,11.04413895456791,0.0594919398427009,-0.4412493705749511,1.4234479665756226
3.4317822265625,-1.281613635237515,-1.0578664007805287,11.777516357725858,0.1750504970550537,-0.3733664751052856,1.2582334280014038
3.441763427734375,-1.3452309518843888,-1.1109440571039917,12.39990474447012,0.320779800415039,-0.3074699640274048,1.0952149629592896
3.451744384765625,-1.4731249258697032,-0.8784009372510015,12.691500503402947,0.4696286916732788,-0.2712395191192627,0.9387427568435668
3.461724365234375,-1.4938257685929537,-0.3528071469491347,12.75751991275549,0.5928352475166321,-0.2215997129678726,0.7969496250152588
3.47170556640625,-1.5694883278205989,0.1291569796584546,12.78420918223858,0.6616050004959106,-0.1039633601903915,0.6907488703727722
3.481685302734375,-1.5583743747405707,0.4529217546597123,12.827913883930444,0.6642974019050598,-0.0202578511089086,0.6094702482223511
3.491666259765625,-1.510033976072073,0.6101512017879634,12.811681711053849,0.586785078048706,0.0297603085637092,0.5396037697792053
3.50164599609375,-1.5683639999657868,0.6423681486513465,12.685572282397748,0.4168280065059662,0.076021671295166,0.4819052815437317
3.511626953125,-1.5663687344953416,0.6052400488708168,12.371474768799542,0.1750214695930481,0.0983605310320854,0.4202539026737213
3.521606689453125,-1.5635982468686995,0.4519453839082271,12.044819386923312,-0.0704715624451637,0.0867642313241958,0.358502984046936
3.531587890625,-1.663839513166249,0.2580493900965899,11.779273430526256,-0.2865269184112549,0.0483036562800407,0.3133757412433624
3.54156787109375,-1.828067075553536,0.1258599839396774,11.39686868889928,-0.4344043731689453,-0.03062579408288,0.293538898229599
3.551548828125,-1.9036273434504865,-0.0075260846558958,11.028929694998263,-0.5112898349761963,-0.1138466447591781,0.291557252407074
3.561529052734375,-1.8375420292548836,-0.2657920401126146,10.733490120118857,-0.5367138385772705,-0.2041564285755157,0.2899946868419647
3.57151025390625,-1.6986963070139287,-0.6416216411329806,10.416388164007664,-0.5267351865768433,-0.281317800283432,0.2733421921730041
3.581489990234375,-1.4609607330843806,-0.938696196803078,10.07923710708022,-0.498155266046524,-0.3341960608959198,0.244709625840187
3.591470947265625,-1.2863989698179066,-1.204344517596066,9.84169325633049,-0.4368133544921875,-0.3506927490234375,0.1987621188163757
3.601450927734375,-1.1803137997977435,-1.344400638540089,9.583211831492186,-0.3440479338169098,-0.3442429304122925,0.1421556323766708
3.61143212890625,-1.0374956667944788,-1.4279565813660622,9.34188787768185,-0.2296923249959945,-0.2983249723911285,0.0902804508805275
3.621411865234375,-0.9157866650544106,-1.7138516444392502,9.144759039428829,-0.0942871794104576,-0.2643586099147796,0.0518687330186367
3.631392822265625,-0.870926948108524,-1.991919959409535,8.85133898767829,0.0404717065393924,-0.253120869398117,0.0220176260918378
3.641372802734375,-0.7864410309560597,-2.064465409529954,8.421986616915463,0.160481721162796,-0.2729184925556183,-0.0239792354404926
3.65135400390625,-0.5221822282927111,-1.7966157062351702,7.848947659751772,0.2577816247940063,-0.3206284940242767,-0.122147612273693
3.661333984375,-0.1660594539895653,-1.1716031084671616,6.867998348304629,0.2730588912963867,-0.3019483685493469,-0.2621610164642334
3.671314697265625,0.3243030100638047,-0.5797790060084312,5.30094426189363,0.1666227281093597,-0.2512750923633575,-0.4270431995391845
3.681294921875,0.7654962964743375,-0.1974464163022115,2.700015914055705,-0.1846386641263961,-0.1323957294225692,-0.5545507073402405
3.69127587890625,0.9583270722072572,0.5405330007584765,-1.6887848615914582,-0.8955582976341248,0.0830063372850418,-0.6349155902862549
3.701256103515625,1.307881026046723,2.357145602698624,-8.000587835505604,-1.9180209636688232,0.1873960494995117,-0.7342250347137451
3.711237060546875,1.4169541258364915,4.746110531245172,-15.042468586510418,-3.0350794792175293,0.2794373035430908,-0.7997571229934692
3.721216796875,1.1916105620987714,6.788356656312942,-20.53781255395412,-3.771585941314697,0.1483897566795349,-0.8625395894050598
3.731197998046875,1.114599218610674,8.13810128622949,-23.18386832976341,-3.777329921722412,-0.0381721295416355,-0.9285902380943298
3.741177978515625,1.0839176646210251,8.431296881574392,-23.992439797854423,-3.205122232437134,-0.1243875548243522,-0.9808239936828612
3.751158935546875,1.6835890465140342,8.374668400901555,-25.34774498450756,-2.382285118103028,-0.1035365983843803,-1.0558010339736938
3.761138916015625,1.9819263886615632,7.545293214234709,-25.76475692913532,-1.4299944639205933,0.0859847590327262,-1.1577651500701904
3.7711201171875,2.2214738343186675,5.705634485086798,-23.75937221573591,-0.4756371974945068,0.2765195369720459,-1.2916244268417358
3.781099853515625,2.692586348576844,4.323750503587722,-21.639407183432574,0.2853396832942962,0.420453131198883,-1.4071927070617676
3.791080810546875,2.858353541621565,3.8612329453259706,-20.09760444265604,0.7241932153701782,0.6254411935806274,-1.383126735687256
3.801060791015625,2.649738555975258,3.410544941067696,-18.39208881101608,0.8871879577636719,0.7660013437271118,-1.156995415687561
3.8110419921875,2.0752268959105016,2.28216138112396,-16.30305901520252,0.8455731868743896,0.6892815232276917,-0.7808558940887451
3.82102197265625,1.5343923183895647,1.0067232196509837,-14.280454286932944,0.6219574213027954,0.4517145752906799,-0.347826212644577
3.8310029296875,1.1980141455307602,0.0901644011802971,-12.693450468426942,0.2587195932865143,0.1652247458696365,0.0733755975961685
3.84098291015625,0.9416568732395768,-0.4188435439690947,-11.29055701664686,-0.1231121197342872,-0.0831958130002021,0.4557986855506897
3.850964111328125,0.6612845921758562,-0.825448807003349,-9.641493340069054,-0.3949865102767944,-0.2464087009429931,0.7840734720230103
3.860944091796875,0.4919287269894033,-1.1881611522972584,-7.685736288669705,-0.4681536555290222,-0.4067091643810272,1.026231050491333
3.870925048828125,0.4781086202232167,-1.3660958991281686,-5.705367358583212,-0.3834989666938782,-0.5255239605903625,1.1587907075881958
3.88090478515625,0.4843294674994424,-1.666090214702487,-3.770447928029298,-0.2233654707670211,-0.579865574836731,1.191097617149353
3.890885986328125,0.4035849288323894,-2.143322527015209,-1.7963164310276507,-0.0570963360369205,-0.5134971737861633,1.1647908687591553
3.900865966796875,0.3023413536245003,-2.552533150242269,0.2079156052052974,0.1325360536575317,-0.4088126420974731,1.0961204767227173
3.910846923828125,0.1619567679110914,-2.7664222768992186,2.2118302460521457,0.3890914022922516,-0.3396410048007965,0.9755181074142456
3.92082666015625,0.0176422588702291,-2.785368969431519,4.209136866936087,0.7056184411048889,-0.2956646680831909,0.8400195837020874
3.930807861328125,-0.1807705547787249,-2.710139540924132,6.052250120452047,1.019988179206848,-0.222769409418106,0.6917155981063843
3.9407880859375,-0.2873853746961802,-2.4841087255746124,7.620633994162082,1.297912836074829,-0.1336835026741027,0.5365673899650574
3.950768798828125,-0.234765362479724,-2.273865846465528,9.04242445411384,1.5200380086898804,-0.0644988417625427,0.3659452795982361
3.96075,-0.1954227284548804,-2.1868489495307206,10.289287386226654,1.6650118827819824,0.0102235423400998,0.2004919052124023
3.970730224609375,-0.2034218009173869,-2.093503141835332,11.28804240347743,1.713987112045288,0.0863529294729232,0.0744253098964691
3.9807099609375,-0.1539094723926857,-1.8611979223914443,11.91796527737975,1.6774890422821045,0.1124391257762909,-0.0039331400766968
3.99069091796875,-0.1313610290413722,-1.5174677793346345,12.33921500570774,1.58323073387146,0.0861369520425796,-0.0354772172868251
4.000669921875,-0.137484882216528,-1.3691890428379176,12.343409534788131,1.4486140012741089,0.0423740521073341,-0.0262696295976638
4.01064990234375,-0.1372400040773674,-0.9554923602379858,12.631175506299734,1.2684506177902222,0.0126582365483045,-0.0026641697622835
4.020630859375,-0.103784966786392,-0.4384791686136275,12.65663844885826,1.0767316818237305,-0.0037630293518304,0.0217338073998689
4.030611083984375,-0.0135250693423673,0.1166398817822337,12.536844194698332,0.8838370442390442,0.0444846600294113,0.0698467418551445
4.040592041015625,-0.0564140707371756,0.5347317306011915,12.440959223914144,0.7003421187400818,0.1115516871213913,0.1339877992868423
4.050572021484375,-0.2145481020223349,0.7421066530585289,12.305589799481629,0.5421905517578125,0.1751950979232788,0.2099307775497436
4.060552978515625,-0.3986669808482751,0.9628642041802404,12.038976506114006,0.4185320734977722,0.2109811753034591,0.2850786745548248
4.070532958984375,-0.5783306338310241,1.19416090416871,11.794281614565849,0.3064910471439361,0.2095787525177002,0.357202410697937
4.080513916015625,-0.8009512023456394,1.2189862064108252,11.54725798780918,0.191885620355606,0.1586791574954986,0.4205583930015564
4.090493896484375,-1.0478744374677538,1.0194432927533983,11.269254700899124,0.0511327721178531,0.0739655941724777,0.4753395915031433
4.10047509765625,-1.301248310033977,0.7784589461609721,10.891222183007,-0.1114256903529167,-0.0092070298269391,0.4979578554630279
4.110454833984375,-1.4813501717709003,0.5818373267777264,10.458571939742564,-0.2539780437946319,-0.1124127805233001,0.4897537231445312
4.120435791015625,-1.5045520375296473,0.3273454464996233,10.090338346809148,-0.3514444231986999,-0.1981608420610427,0.4527957439422607
4.130415771484375,-1.5443576859563588,-0.0014523177001625,9.832511586487293,-0.3880735337734222,-0.2630724310874939,0.3825117349624634
4.14039697265625,-1.5163263542145489,-0.29645958384322,9.555885433149337,-0.3574127852916717,-0.3064933121204376,0.2685473263263702
4.150377197265625,-1.402284964492917,-0.5160124170839786,9.1586689068377,-0.2455256879329681,-0.3160870969295501,0.1103986948728561
4.16035791015625,-1.2350748791635036,-0.7256177289418876,8.928002540642023,-0.0747603178024292,-0.2632949650287628,-0.0619275793433189
4.1703388671875,-1.150683508426696,-0.8736243704989552,8.731761006617546,0.1309715211391449,-0.1949329674243927,-0.2246826738119125
4.180319091796875,-1.14566378056854,-0.9325319750849156,8.461161858484148,0.3620786666870117,-0.1530065983533859,-0.369376391172409
4.190300048828125,-1.1424407268688082,-0.9767723180234432,8.166661025759577,0.5457504391670227,-0.0966019034385681,-0.4934940934181213
4.200280029296875,-1.132837909004092,-1.0271262484714387,7.847415043357014,0.6520529389381409,-0.0938873812556266,-0.5981075763702393
4.21026123046875,-1.0035388174612074,-0.9861284676507116,7.011966674256325,0.6406242847442627,-0.0959790274500846,-0.6462572813034058
4.220240966796875,-0.9436751542594284,-0.994629680949077,5.829508702036738,0.4368599653244018,-0.035230666399002,-0.59430330991745
4.230221923828125,-0.9868801628008484,-0.6076495211653411,3.824908417013287,-0.0517121143639087,0.0988176837563514,-0.4363448619842529
4.240201904296875,-0.963107292221114,0.4624519456796347,0.5417763884156942,-0.8034499883651733,0.1440474092960357,-0.23440021276474
4.25018310546875,-0.9069592885416,1.6260957657054065,-3.9564690968126057,-1.7616409063339231,0.016789324581623,-0.0598148331046104
4.260162841796875,-0.8116515331234783,2.477327102610469,-9.420666230842471,-2.6512980461120605,-0.3184253275394439,-0.0299720577895641
4.270143798828125,-0.6622261838749051,3.4555393903091547,-15.15757497511506,-3.0738525390625,-0.6884191036224365,-0.217381089925766
4.280123779296875,-0.2049105233714915,4.555703986984491,-19.292879128599164,-2.885131359100342,-0.8884196877479553,-0.6270603537559509
4.29010498046875,0.6623302287712692,5.149422159561515,-21.19598887791633,-2.2616207599639893,-0.7441312074661255,-1.1360328197479248
4.300085205078125,1.7993363633707165,5.39766159184873,-22.708165711236,-1.435968041419983,-0.3137819766998291,-1.626006007194519
4.310066162109375,2.655318401934206,5.504550187206268,-23.674137233781813,-0.6689375042915344,0.1637712866067886,-2.033088445663452
4.3200458984375,3.1857439597740767,5.119896205347776,-23.604553409945964,-0.2652902603149414,0.4972384870052337,-2.269720554351806
4.330027099609375,3.518097845552861,4.205143413385748,-23.33367427582741,-0.2246775925159454,0.699375569820404,-2.234931945800781
4.340007080078125,3.472635486538708,3.565769989570975,-23.58680966346264,-0.3110164105892181,0.6569047570228577,-1.9176172018051147
4.349988037109375,3.034538083784282,2.8399633139282465,-22.87120289479494,-0.3612084984779358,0.4093700349330902,-1.3848696947097778
4.3599677734375,2.3841622044399378,1.350215754559636,-21.10901669690609,-0.2907570302486419,0.0937538668513298,-0.7835251092910767
4.369948974609375,1.935191233232617,-0.2479994860514998,-18.87721742953658,-0.0580348335206508,-0.1257808804512024,-0.2602658569812774
4.379928955078125,1.8815246711052955,-1.271849050939828,-16.288633014965058,0.2890218496322632,-0.219328761100769,0.1261479407548904
4.389909912109375,1.9976633253671228,-1.7427191347442563,-13.507108446002006,0.6501337289810181,-0.1762324273586273,0.3980260789394378
4.399889892578125,2.0656012816920875,-1.8242533624842765,-10.841524962902067,0.9633511900901794,-0.060754369944334,0.5824985504150391
4.40987109375,1.9804607000231744,-1.6093161880791187,-8.255185112386942,1.1898735761642456,0.0964166074991226,0.7485522627830505
4.41985107421875,1.5685982471130788,-1.2829703105434775,-5.683375307005644,1.3426321744918823,0.2212561517953872,0.9092786312103271
4.429831787109375,0.8732039531297981,-0.9978230701629072,-3.1134605215907096,1.444339632987976,0.2449745386838913,1.0543524026870728
4.43981201171875,0.2984669964091852,-0.87989344083108,-0.5127940395593643,1.491369366645813,0.2038450986146927,1.179598689079285
4.449793212890625,-0.3078741821039468,-1.0024801752537489,2.079248991033434,1.465094804763794,0.1117282286286354,1.2598702907562256
4.45977294921875,-0.7894529261231422,-1.079182745053619,4.324512720131874,1.376121163368225,0.0130651341751217,1.2837342023849487
4.46975390625,-1.0653487193599342,-1.064355324408412,6.195798175165057,1.2353971004486084,-0.0653524398803711,1.238364338874817
4.47973388671875,-1.2359846874848008,-1.0644144341845063,7.827752311509847,1.0848842859268188,-0.1343162655830383,1.126335859298706
4.489715087890625,-1.3014996544465425,-1.0246045479740946,9.210802998700736,0.9439582824707032,-0.1715882718563079,0.9652382731437684
4.499695068359375,-1.2960780677892267,-0.9128734079562127,10.302939479482172,0.8382274508476257,-0.1867994368076324,0.7627650499343872
4.509676025390625,-1.247988282880932,-0.643208764193952,11.07858366048336,0.7992105484008789,-0.1890474110841751,0.5552275776863098
4.51965576171875,-1.2428951975256204,-0.1715021565001457,11.723103215014934,0.7910932898521423,-0.1688812226057052,0.3598248064517975
4.52963671875,-1.2522723899409174,0.2875888248464092,12.284669761049749,0.7820236086845398,-0.1349855661392212,0.178461417555809
4.539616943359375,-1.2022587973631915,0.6570381137125194,12.650135058313609,0.7343012690544128,-0.0880925804376602,0.0089634079486131
4.549597900390625,-1.1098699981316924,0.8349628506060689,12.937296634191274,0.6293433904647827,-0.0059662894345819,-0.1382308304309845
4.559577880859375,-0.9971934670224786,0.7968845374286174,13.147503565204143,0.4779950976371765,0.0787679553031921,-0.2615921199321747
4.569558837890625,-0.9301070129603148,0.6245155349660665,13.229855685198306,0.303968995809555,0.1238201111555099,-0.3668716549873352
4.5795390625,-0.8428952510405331,0.348217955995351,13.21907008728981,0.1091097965836525,0.114504151046276,-0.4303792417049408
4.58952001953125,-0.7892822457313537,-0.0057773412924259,12.998553359186648,-0.0694660767912864,0.0899250358343124,-0.4408462643623352
4.5995,-0.8581650816909968,-0.3700117815870791,12.557781768786906,-0.1942391693592071,0.0804634466767311,-0.4155093431472778
4.609480712890625,-0.9246651872325689,-0.5402034400105477,12.142946583676338,-0.2320107817649841,0.0708566233515739,-0.3879512250423431
4.6194609375,-0.917738383644074,-0.5553517631731927,11.902172664964198,-0.2225740849971771,0.0682772248983383,-0.3399198949337005
4.62944189453125,-0.9096804571337996,-0.5730711424002424,11.646273657834527,-0.2013529539108276,0.0728701129555702,-0.2747451663017273
4.639423828125,-0.9397017936490476,-0.6833842688463628,10.82870756690502,-0.1636106371879577,0.0623703673481941,-0.2052777111530304
4.649404052734375,-0.8313589808952063,-0.9523270280748604,10.492598127985,-0.1142423003911972,0.0267380699515342,-0.1289501786231994
4.659385009765625,-0.775150552265346,-1.334609312365949,10.290891314291953,-0.0563858039677143,0.0007344493642449,-0.0525459609925746
4.66936474609375,-0.6448048742789775,-1.56666128770113,9.984293216538427,0.0137898195534944,-0.0407107286155223,0.0138722090050578
4.679345703125,-0.5753513257592916,-1.6824673490077255,9.62945628079474,0.1000289469957351,-0.0966600254178047,0.0556263476610183
4.689325927734375,-0.4870778528921305,-1.7874112400382756,9.279088599419593,0.1994767040014267,-0.124116413295269,0.0810614004731178
4.699306884765625,-0.3832484989747405,-1.817710662842542,8.745919880351424,0.2817544341087341,-0.143168956041336,0.1017874404788017
4.709286865234375,-0.2551468553218059,-1.7725345734238624,7.959022483929991,0.3585195243358612,-0.1771524846553802,0.103569358587265
4.719267822265625,-0.102871916195238,-1.511048413811624,6.968194168025255,0.4216273427009582,-0.1864164769649505,0.0724161341786384
4.729247802734375,0.0138261163818649,-1.0814924102354797,5.570536863332986,0.401245653629303,-0.1106452792882919,0.0431048534810543
4.739228759765625,0.1712498257068917,-0.4041542896855622,3.097297906818986,0.2116583734750747,-0.0066243298351764,0.0208429805934429
4.749208984375,0.4207548209505155,0.5173588632568716,-0.7822036856472492,-0.2272428125143051,0.1716508716344833,0.025463830679655
4.75918994140625,0.3799776606105268,1.389601424008608,-5.798394017326832,-0.9163577556610109,0.3512627184391022,0.1080361902713775
4.769170166015625,0.0348987058938015,2.2259308137275275,-11.733131272554395,-1.6749647855758667,0.243415892124176,0.2739703059196472
4.77915087890625,-0.5630683288998901,3.372378292019665,-17.254395278674362,-2.1763272285461426,-0.2284940183162689,0.4429275095462799
4.789130859375,-0.6857702141348272,4.686836796760558,-20.81648453390598,-2.1848156452178955,-0.8105297684669495,0.4790389239788055
4.79911181640625,0.0899834916554391,5.573032771801948,-23.08826860566139,-1.79312002658844,-1.1660181283950806,0.3690640330314636
4.809092041015625,1.1861486434310673,5.649230460819601,-25.222559100437163,-1.233917474746704,-1.1395024061203003,0.1562519073486328
4.819072998046875,2.103602218784392,4.906223644050956,-26.285355504965786,-0.5914105176925659,-0.8919239640235901,-0.1915482282638549
4.829052734375,2.755219330361485,4.0556647995799775,-26.11013454713821,0.015001393854618,-0.5984041690826416,-0.6382245421409607
4.83903369140625,3.091889033512771,3.8366555534303184,-25.46041274778843,0.4322836399078369,-0.2406119704246521,-1.072319746017456
4.849013916015625,3.077535221728682,4.117774342012405,-24.60222472361326,0.6659501791000366,0.0247797556221485,-1.4400900602340698
4.858994873046875,2.8273256584122777,4.112303217124938,-22.852509884762764,0.8213255405426025,0.2341020703315735,-1.672682762145996
4.86897509765625,2.4145047357335687,3.2871479862406847,-20.1588903937459,0.914465069770813,0.4510362446308136,-1.745699167251587
4.878955810546875,2.064763807954639,2.178497885292769,-17.303613190829754,0.959384560585022,0.6428109407424927,-1.6656851768493652
4.88893603515625,1.5556132394641635,1.162030978001654,-14.266397704529762,0.9591818451881408,0.7955514788627625,-1.4280647039413452
4.8989169921875,0.7569982980463653,0.3660554451767355,-11.221315722638368,0.8966512680053711,0.8647183179855347,-1.0144875049591064
4.90889697265625,-0.1407184847097378,-0.0016952961431816,-8.28959883864224,0.7949475049972534,0.7930721044540405,-0.4517533779144287
4.9188779296875,-1.0133572508379816,-0.1302607396492734,-5.248040354701876,0.6873390674591064,0.5863656401634216,0.2097365260124206
4.92885791015625,-1.626332935462147,-0.2511683984111994,-2.33377495624423,0.6099686622619629,0.240218386054039,0.8553813099861145
4.9388388671875,-1.8445163983121515,-0.4057541626302525,0.5422819998502731,0.6099990010261536,-0.1564150303602218,1.39589262008667
4.94881884765625,-1.7775627768494189,-0.6015076574094593,3.461424648955464,0.6927927136421204,-0.5045333504676819,1.766204833984375
4.9587998046875,-1.4584015501208605,-0.8330052137322723,6.1140101187944405,0.8202855587005615,-0.7187075018882751,1.9315216541290283
4.96877978515625,-0.954410410220176,-0.8780249435454607,8.249117775171994,0.9603307843208312,-0.8339358568191528,1.8742094039916992
4.9787607421875,-0.4563785075174644,-0.6682437636639923,9.953954192376136,1.1015722751617432,-0.8413592576980591,1.623496413230896
4.988740966796875,-0.1572731766721233,-0.4615005632389337,11.350458819901943,1.2326340675354004,-0.7186368107795715,1.2796831130981443
4.9987216796875,-0.0985726754982024,-0.2794475674342364,12.478850270891188,1.3503893613815308,-0.4820415079593658,0.9283700585365297
5.0087021484375,-0.2716136589381843,0.0113529494676738,13.255421503609416,1.433075189590454,-0.1826588064432144,0.6391387581825256
5.01868310546875,-0.5107782062249258,0.594325198559463,13.532775971221923,1.4484273195266724,0.0988868698477745,0.4102704226970672
5.028662841796875,-0.5954732726160437,1.323736620695889,13.446761237066983,1.404890537261963,0.2363624423742294,0.2095282822847366
5.038643798828125,-0.6775635998688638,1.7703535761229692,13.271293611001967,1.3099905252456665,0.26199871301651,0.0536498315632343
5.0486240234375,-0.8215794182240963,1.9052271798625584,13.07941845549345,1.1626404523849487,0.2310447692871093,-0.0309500098228454
5.05860498046875,-0.9356884663544596,1.9224679452598092,12.780074274390936,0.956750750541687,0.1898932754993438,-0.0392509922385215
5.0685859375,-1.0062680962946264,1.9682583671845493,12.44057811564207,0.7216330766677856,0.1285185813903808,0.0250622127205133
5.078565673828125,-1.0222359922118485,1.959360336588323,12.227218273556232,0.4847368597984314,0.0178353488445281,0.1413327753543853
5.088546875,-1.024917924772203,1.8211434137701987,11.940877366411684,0.2393089681863784,-0.1461799591779709,0.2774799466133117
5.09852685546875,-0.94687738436684,1.6328656982317566,11.471948187541962,-0.031330157071352,-0.2687878012657165,0.3933199048042297
5.1085078125,-0.7794811288155615,1.4429951605439186,10.897552555072307,-0.3113870918750763,-0.3538861572742462,0.465810090303421
5.11848779296875,-0.5846387940645218,1.1484035807959734,10.285350046777724,-0.5558019280433655,-0.4317018687725067,0.4891031682491302
5.12846875,-0.4840020256433636,0.7830876288749277,9.742369543269277,-0.7225561738014221,-0.4957077205181122,0.4770916998386383
5.138448974609375,-0.3265830838249996,0.640324587059766,9.40930897052586,-0.7683601975440979,-0.5286476612091064,0.4152359068393707
5.1484296875,-0.108372879098542,0.7067961240939795,9.222385884466767,-0.7087147235870361,-0.5290154814720154,0.3132863640785217
5.158409912109375,0.0813432352125644,0.7612278253749013,9.12217252908945,-0.5590976476669312,-0.4830169081687927,0.1687351614236831
5.16839111328125,0.2824604124493897,0.7502069574058056,9.089688894113898,-0.3567405343055725,-0.3932918012142181,-0.0202161241322755
5.178370849609375,0.4580941888615489,0.5531599522173405,8.994007336947321,-0.1350157111883163,-0.2727615535259247,-0.2261009961366653
5.188351806640625,0.6070674104284495,0.2879746458262205,8.824376161950827,0.0743079483509063,-0.1745111644268036,-0.4345945417881012
5.198331787109375,0.8000842102527618,0.148908558832854,8.712644802737236,0.2549603283405304,-0.101384162902832,-0.6531438827514648
5.20831298828125,0.9060355247601868,0.1299028295896947,8.549256321522593,0.3750718235969543,-0.0022069793194532,-0.8425233960151672
5.21829296875,0.8934965073131025,0.2004077137932181,8.182554175940156,0.4094296395778656,0.1202733814716339,-1.003714919090271
5.228273681640625,0.9362855554647744,0.2433841012105345,7.595441100716591,0.375959575176239,0.1931033879518509,-1.1461151838302612
5.238253662109375,0.8963875525794923,0.4260245415143668,6.780859578555822,0.2653920650482178,0.2847233414649963,-1.2754061222076416
5.24823486328125,1.0305196903020142,0.8980677607513964,5.599491155138612,0.0997197404503822,0.3274785280227661,-1.437185525894165
5.25821484375,1.1007431272156536,1.528188787574321,3.8530274270385503,-0.2138592898845672,0.4099546074867248,-1.5890041589736938
5.26819580078125,1.1163371483191846,2.388063011270761,0.6512590919196606,-0.7970860004425049,0.5470608472824097,-1.651968479156494
5.27817578125,0.9301496830582618,3.1397470554918048,-3.803928172826767,-1.687792181968689,0.7428867816925049,-1.555881142616272
5.288156982421875,0.5188184144154191,3.6522809828102583,-9.043933689633011,-2.7808425426483154,0.8348044753074646,-1.2634334564208984
5.298136962890625,0.1066376710700802,3.941747913020849,-14.692350495982168,-3.878047466278076,0.519551157951355,-0.8191799521446228
5.308117919921875,-0.3826023830909282,4.000404392389953,-20.433365506529807,-4.745743751525879,-0.1401484310626983,-0.288405030965805
5.318097900390625,-0.7657083317898213,4.463617239439487,-25.215395200157165,-5.155093669891357,-0.6445209980010986,0.3158789873123169
5.328078857421875,-1.0473029211901128,4.8123365690857165,-27.638909464037415,-4.923558712005615,-0.7974093556404114,0.9330641627311708
5.338058837890625,-0.4518766295209527,4.895561380261182,-28.61363244831562,-4.021446704864502,-1.016784906387329,1.3045746088027954
5.348039794921875,0.2624116038940847,5.078232654094696,-28.263068952107428,-2.4890055656433105,-1.0473747253417969,1.4037978649139404
5.358019775390625,0.93415124684982,4.476765767087042,-26.376821490263936,-0.8194522261619568,-0.8802873492240906,1.2583403587341309
5.3680009765625,1.54325527767241,2.7812410758465527,-24.17510055029392,0.399684876203537,-0.3827734589576721,0.9906511902809144
5.377980712890625,1.945246763300896,1.4167448669999838,-21.56067909915447,1.0267298221588137,0.1944949924945831,0.5949370861053467
5.387961669921875,2.252594656508416,1.4040490515559911,-18.763810830587147,1.2718849182128906,0.6944307684898376,0.1588732153177261
5.39794189453125,2.1847233356788758,1.6569433239117264,-15.618133800524472,1.298302412033081,1.0664457082748413,-0.2249341011047363
5.4079228515625,1.9636837527453896,1.8997519633218645,-12.759385706627368,1.1434811353683472,1.314298391342163,-0.5382725596427917
5.417903076171875,1.6928277072414757,2.23809135325104,-10.440758050632477,0.8232171535491943,1.4292356967926023,-0.771781325340271
5.4278837890625,1.2450249030306937,2.384846095050871,-8.743830799117683,0.3603935539722442,1.374439358711243,-0.879597544670105
5.437864013671875,0.6163016141764819,1.8899954162001609,-6.948096551892161,-0.1247121915221214,1.2275443077087402,-0.8397903442382812
5.447844970703125,0.0329070845520123,1.0647256190255283,-4.449510388153791,-0.5043524503707886,0.984602689743042,-0.6923002004623413
5.457824951171875,-0.5006310888830572,0.1458072318166494,-1.958241269430518,-0.7292724251747131,0.6703675985336304,-0.4781368374824524
5.467805908203125,-0.8940689734388142,-0.7802514556009322,0.4407499630898236,-0.758862316608429,0.2974781692028045,-0.2270548045635223
5.477785888671875,-1.1176361020885408,-1.6620780564516782,2.823139604899287,-0.5983143448829651,-0.1097704470157623,0.0359394215047359
5.487766845703125,-1.2375697647191584,-2.526367027850449,5.1268829954952,-0.309341698884964,-0.4700330197811126,0.2896412014961242
5.497751220703125,-1.20949810096696,-3.2553909119740125,7.185622866985201,0.0289262998849153,-0.7051622867584229,0.5098292827606201
5.507732421875,-1.0241880030624568,-3.676910689415037,8.787612657698988,0.3454861342906952,-0.7788735032081604,0.6893708109855652
5.517712158203125,-0.8262135808307677,-3.8069407986462114,9.993177949261664,0.6014276146888733,-0.6922703981399536,0.8449270725250244
5.527693115234375,-0.643024712863937,-3.752641637703776,11.096060864984988,0.8284099102020264,-0.55115807056427,0.9365118741989136
5.537673095703125,-0.3673480422705412,-3.4993104352355,12.068726332211494,1.031714677810669,-0.4453212022781372,0.9517208337783812
5.547654296875,-0.1590792945123277,-2.99720467069,12.75927114033699,1.1982680559158323,-0.3362927138805389,0.8975622653961182
5.55763427734375,-0.0135488612099085,-2.273386684646457,13.121143966066835,1.280474305152893,-0.196663960814476,0.7934059500694275
5.567614990234375,0.0554580669202841,-1.5526402150027454,13.220441375643016,1.260816216468811,0.0143944760784506,0.660365879535675
5.57759521484375,-0.0087739110262133,-0.9623409109584986,13.195301089167597,1.1424497365951538,0.2947077751159668,0.5511944890022278
5.587576416015625,-0.0438083081968128,-0.5531456314310431,13.13870651076436,0.9639044404029846,0.5167509913444519,0.4566285610198974
5.597556396484375,-0.2546321107327006,-0.3372855334946885,13.02161859295368,0.7451653480529785,0.6281988620758057,0.4046826660633087
5.607537353515625,-0.6583871171686798,-0.2609323799206875,12.799825269043446,0.4995662569999695,0.6216490864753723,0.4095035195350647
5.61751708984375,-1.1232138291556388,-0.2745353550711646,12.454103952169415,0.2302823066711425,0.5266773700714111,0.479105144739151
5.627498291015625,-1.60850706365332,-0.3242161720305681,11.930504440957309,-0.0544186756014823,0.3900537490844726,0.6095597743988037
5.637478271484375,-1.965604199413955,-0.4138417170938104,11.34177048653364,-0.3318580985069275,0.1829095482826233,0.7533154487609863
5.647459228515625,-2.16121561884135,-0.6153341573838145,10.795478666520118,-0.5521316528320312,-0.0631047487258911,0.8668881058692932
5.657439208984375,-2.150014718130231,-0.9235814105838536,10.48470708247423,-0.6866163015365601,-0.2718023359775543,0.9232080578804016
5.667420166015625,-2.010237852519005,-1.1600077285457402,10.171413870996236,-0.7486423850059509,-0.4351829886436462,0.91713285446167
5.677400146484375,-1.8207706349350512,-1.242310383374989,9.794219557493925,-0.7186430096626282,-0.5324064493179321,0.8440003395080566
5.687381103515625,-1.6456488996982577,-1.252763680589199,9.535448794320224,-0.6204056143760681,-0.5272750854492188,0.7229471206665039
5.697361328125,-1.545074602054059,-1.2069770580567418,9.22004838142991,-0.4769926071166992,-0.4339934885501861,0.5552371144294739
5.70734228515625,-1.3247307462997733,-1.1561494456823915,8.831205131188035,-0.3017499446868896,-0.3436524271965027,0.3456003069877624
5.7173232421875,-1.2612579526901244,-1.169305864375457,8.565781339865923,-0.1155174970626831,-0.1597220003604889,0.1121244579553604
5.72730322265625,-1.2392539184138178,-1.1499423346705735,8.083120572763681,0.0740124881267547,0.0333632938563823,-0.1265720129013061
5.7372841796875,-1.1409785453617571,-1.1171490492239593,7.312610832041502,0.2440051287412643,0.1442597210407257,-0.3713543713092804
5.747264404296875,-1.1776137470588088,-1.0526954278834164,6.413610320484638,0.4086785018444061,0.1366484016180038,-0.6346693634986877
5.757245361328125,-1.08809129704386,-0.74701868275851,5.627309136390686,0.5566288828849792,0.0716004818677902,-0.913263738155365
5.76722509765625,-1.008462756794691,-0.3072791388202458,4.553857482334971,0.6255443096160889,-0.0055891079828143,-1.1703197956085205
5.7772060546875,-0.8084373933825642,0.2143556481901556,3.0432892532557245,0.5680564641952515,-0.0292477421462535,-1.373212218284607
5.787186279296875,-0.6126207702392712,0.7356260588675737,0.909261208808422,0.295322984457016,0.0679248794913292,-1.4524096250534058
5.797167236328125,-0.1994212965717539,1.1043114141564816,-2.320774020373821,-0.2256518304347992,0.1113211587071418,-1.4364352226257324
5.807147216796875,0.0784869233328383,1.4217479359842835,-6.216149473798275,-0.9460976123809814,0.231236383318901,-1.3067224025726318
5.817128173828125,0.2100804002900607,2.242670643865317,-10.698768350827692,-1.7542059421539309,0.2687465250492096,-1.1218414306640625
5.827108154296875,0.3887902414130046,3.654431146581471,-15.648872637659313,-2.499436140060425,0.1324579268693924,-0.9552841186523438
5.837089111328125,0.5167364570422098,5.317046670910716,-19.91667621309757,-3.011480569839477,-0.0911862328648567,-0.8133800625801086
5.8470693359375,0.764676139197871,6.505762534481287,-23.2459913161993,-3.227278470993042,-0.2663167715072632,-0.6750008463859558
5.85705029296875,1.1202044912718236,7.207367665803432,-25.74048991836309,-3.0883681774139404,-0.3453710377216339,-0.5466539263725281
5.867030517578125,1.3448321618251502,6.94104897146821,-26.952832741236683,-2.570448398590088,-0.3434447944164276,-0.4332948625087738
5.87701123046875,1.4219225618988274,5.791632268106937,-26.780749496912957,-1.6505681276321411,-0.2483461797237396,-0.3538640141487121
5.8869912109375,1.5692403444088994,4.573002035526931,-24.686351452064518,-0.4727990627288818,-0.0721780657768249,-0.307893842458725
5.89697216796875,1.9050284424200647,3.4375486833274365,-21.917496979582307,0.503405749797821,0.1325509995222091,-0.2734164595603943
5.906952392578125,2.173769249335676,2.650352596220374,-19.43875241138935,1.1131073236465454,0.3645946383476257,-0.2153520882129669
5.916933349609375,2.077777164915204,1.6731540156088769,-16.525048738467692,1.4027931690216064,0.5345476865768433,-0.0899930894374847
5.9269130859375,1.7961168168023227,0.7960767281770705,-13.851615126389264,1.4573237895965576,0.5467420220375061,0.0691994950175285
5.93689404296875,1.4921690874271094,0.3480057745493948,-11.653308963298796,1.327151894569397,0.4888947010040283,0.2216199040412902
5.946874267578125,1.188276083913818,0.1367187932148575,-9.824653274202346,1.0671794414520264,0.4053505361080169,0.3304515779018402
5.956855224609375,0.9191209240436552,-0.0880482858091592,-7.973419258072972,0.7863091826438904,0.309860348701477,0.3871938586235046
5.96683544921875,0.6257320711489767,-0.4338617379460484,-5.861934469345211,0.564953088760376,0.2183826118707656,0.3883723020553589
5.97681591796875,0.3249363760638982,-0.7420927706636488,-3.550305293935537,0.4456862509250641,0.1566971093416214,0.3294203877449035
5.98679638671875,0.0584962655724026,-1.0756841623481364,-1.0963824477881192,0.4134769141674042,0.1419703662395477,0.2176235318183899
5.99677734375,-0.1563039480474777,-1.4880796261563896,1.2772224145412443,0.4487276971340179,0.1081495657563209,0.0674068555235862
6.00675732421875,-0.3810146024428307,-1.9741347118720407,3.2977246175736186,0.5062553882598877,0.0006310958415269,-0.1014788374304771
6.01673828125,-0.6390917573291808,-2.5388857331618664,4.922452894318104,0.5577068328857422,-0.1414054930210113,-0.2563274800777435
6.02671826171875,-0.8077978533700108,-2.957605943012237,6.3840767674863335,0.625718355178833,-0.2672922909259796,-0.3909593224525451
6.03669921875,-0.9659475571483374,-3.1766765639603136,7.76006643024981,0.7239073514938354,-0.2646022737026214,-0.4877004325389862
6.04667919921875,-0.9558917348191142,-3.1337463537722825,9.06245660379529,0.8899088501930237,-0.2357266992330551,-0.574274480342865
6.05666015625,-0.7459476925261318,-2.969408316747844,10.272318715769051,1.1335631608963013,-0.2097141146659851,-0.6565141677856445
6.06664013671875,-0.5966297491747885,-2.6796149310618635,11.41624091336727,1.427374243736267,-0.188047170639038,-0.7285146117210388
6.07662109375,-0.4302012426771223,-1.999797560916841,12.265385214865208,1.702507257461548,-0.1678559184074401,-0.7908167839050293
6.08660107421875,-0.2552585903342813,-1.098083625682816,12.799191647315023,1.9122376441955569,-0.1494380235671997,-0.8361728191375732
6.09658203125,-0.0782387298585847,-0.2763843439387157,13.16762982290983,2.0279366970062256,-0.1473046243190765,-0.8676339983940125
6.1065625,0.0979699694978538,0.3486378984404727,13.377569042897225,2.0182058811187744,-0.1395774483680725,-0.8674627542495728
6.11654345703125,0.1692047662779688,0.7481868497550487,13.421985692250727,1.8347182273864744,-0.0166076309978961,-0.8373903632164001
6.126523193359375,0.3410918304424732,0.8903326364547014,13.26867612197995,1.4950532913208008,0.1184628307819366,-0.8125268220901489
6.136504150390625,0.5247720986554398,0.7002685489561409,12.946416344714164,1.0439761877059937,0.1728482544422149,-0.8019252419471741
6.146484375,0.5478531875787302,0.2626522077169269,12.56786126425266,0.5474242568016052,0.1692697405815124,-0.7844799160957336
6.15646533203125,0.5349324042724445,-0.079471596121788,12.085322077703475,0.0655796453356742,0.1400613784790039,-0.7503947019577026
6.166445068359375,0.4170540667364373,-0.2523642571322619,11.505642367351054,-0.3380642235279083,0.122291974723339,-0.6987288594245911
6.176426025390625,0.3343045449225232,-0.4242114276777952,10.951162564706802,-0.6443682909011841,0.0886593908071518,-0.6205541491508484
6.18640625,0.287201980953291,-0.8437038640096783,10.142658901154997,-0.8589626550674438,0.0487465895712375,-0.5095871686935425
6.19638720703125,0.294443586112,-1.4456968207180498,9.345273428466916,-0.9692755937576294,0.0206415895372629,-0.3750361204147339
6.2063671875,0.2882027737599797,-1.9519103128433224,8.805036086186766,-0.9305026531219482,0.0559487119317054,-0.2426684647798538
6.21634814453125,0.3550400571003556,-2.1602184244975446,8.456264149570465,-0.7281263470649719,0.1637542247772216,-0.1314401477575302
6.226328125,0.4599479269694537,-2.112408771704882,8.17045983352065,-0.3888614773750305,0.3098280429840088,-0.0432194806635379
6.23630908203125,0.3186686939712613,-2.017970784858614,7.916101626092195,0.0199381504207849,0.4541563987731933,0.0418821796774864
6.246289306640625,0.3154166699053719,-1.854050096463412,7.493195362728834,0.3911748230457306,0.5377679467201233,0.1003628000617027
6.256270263671875,0.133063302914612,-1.792370762141794,6.811183405148983,0.6715031862258911,0.6186419129371643,0.1068295240402221
6.26625048828125,0.0624857553336769,-1.7073431393280625,6.31772710326612,0.8752272725105286,0.6167761087417603,0.0745906308293342
6.276231201171875,-0.0218791657876223,-1.722247278471291,5.473237349575758,1.0001412630081177,0.4980064332485199,0.0684122964739799
6.286211181640625,-0.2608051916107535,-1.830309301522374,4.732933362025023,1.0772086381912231,0.4436116218566894,0.1015867590904235
6.296192138671875,-0.3033204643223434,-1.8300515273690223,3.982945600327849,1.0898545980453491,0.4218875467777252,0.1529832780361175
6.30617236328125,-0.1619638552390039,-1.4330004207521676,2.417194997730851,0.9759112000465392,0.4002935588359833,0.1894731223583221
6.3161533203125,-0.1918028939899057,-0.8555272074680775,-0.1864665744632482,0.6802864670753479,0.3962199687957763,0.2404734045267105
6.326133056640625,-0.2526786568436771,-0.2895894606117159,-3.425813821870088,0.2609859108924866,0.3404839932918548,0.2925139963626861
6.336114013671875,-0.1899927758280187,0.2917152205940336,-6.743486417973041,-0.159648910164833,0.1814955770969391,0.3628921508789062
6.34609423828125,-0.3959865461252629,1.2803113204672931,-9.881906024253368,-0.4565908312797546,0.0781212523579597,0.5287601947784424
6.3560751953125,-0.5317302837628871,3.123374305100739,-13.081515720033645,-0.5683925747871399,0.0114670963957905,0.7675200700759888
6.36605517578125,-0.6837254834994674,4.554785410834849,-15.939771646499633,-0.4782789051532745,-0.1672573834657669,1.0668816566467283
6.3760361328125,-0.7829066462848335,4.474415696829557,-18.061291507029534,-0.3196130096912384,-0.4380770623683929,1.401788592338562
6.386016357421875,-0.5239464249536395,4.040793685923517,-20.20312934844494,-0.2633175253868103,-0.7193729281425476,1.7203209400177002
6.395997314453125,-0.1534064547739922,3.947317237585783,-21.706517310631277,-0.3003394603729248,-0.93769508600235,1.9227440357208248
6.405977294921875,0.4842613706992938,3.5876547813817856,-21.77105320342779,-0.3576270043849945,-1.0221847295761108,1.9195951223373413
6.415958251953125,1.1920460309065877,2.669705531466007,-20.72715556063652,-0.3843826353549957,-0.960486114025116,1.7006189823150637
6.425938232421875,1.9012733276702465,1.6958154908806085,-19.30510498844385,-0.3882439434528351,-0.7238399982452393,1.3119421005249023
6.435919189453125,2.3733576095700264,1.2472374645136295,-18.079360247683525,-0.3892667293548584,-0.3607920110225677,0.8505247235298157
6.445899169921875,2.4330543917723,1.2612236120291054,-17.241448118817804,-0.4260330200195312,0.0204828828573226,0.4174948036670685
6.455880126953125,2.149059609362483,1.2065817751288412,-16.343657567572592,-0.4692002534866333,0.3104980587959289,0.0807158350944519
6.465860107421875,1.703257623580098,0.8736226169332861,-14.872655625206232,-0.4692300856113434,0.4978391826152801,-0.1190401539206504
6.475841064453125,1.2740212804123758,0.573599184862338,-12.898694808596373,-0.4273158013820648,0.6104235649108887,-0.191175639629364
6.4858212890625,0.9400150243166834,0.3843768454175442,-10.531330886483191,-0.3629551827907562,0.637740433216095,-0.171918585896492
6.495802001953125,0.6145555742267519,0.093202051843144,-7.943255005955695,-0.2923807203769684,0.5716944932937622,-0.0851804614067077
6.505779296875,0.2757849167408421,-0.1290874946188181,-5.221516504913568,-0.2215209454298019,0.4547569751739502,0.0395521521568298
6.51576025390625,0.0651456221926957,-0.2390615983689203,-2.3467975194245576,-0.1530189961194992,0.3315972685813904,0.1632140874862671
6.525740234375,-0.0240569847507402,-0.4059409539066255,0.5478869802504778,-0.098384253680706,0.2348206788301468,0.2552351057529449
6.535721435546875,0.0281800194974988,-0.6829235925320536,3.2448230484694243,-0.0689529404044151,0.1875771582126617,0.2755490243434906
6.545701171875,0.2038477347118779,-1.0473675839241594,5.495924397680163,-0.0923176556825637,0.1679821461439132,0.2267835885286331
6.55568212890625,0.4164505113527179,-1.420944364516437,7.018985613107681,-0.1586540639400482,0.1969714611768722,0.1194789707660675
6.565662109375,0.5022075078869238,-1.8468368040837344,8.319273261415958,-0.1943446844816208,0.263992041349411,0.0134156513959169
6.575643310546875,0.4388710905406623,-2.1461489826127886,9.55166401606202,-0.1565114855766296,0.3265756964683532,-0.0334196835756301
6.585623046875,0.1563027972700074,-2.3327593494609,10.438599995815752,-0.0491775758564472,0.3966320157051086,0.0124364858493208
6.59560400390625,-0.2774787150466814,-2.393061550210416,11.137024159014224,0.1222628578543663,0.3884276151657104,0.1527502089738845
6.605583984375,-0.6190817464143037,-2.179335651291161,11.767730292248723,0.3082612156867981,0.3044131398200989,0.330633133649826
6.615565185546875,-0.7817805648643523,-1.9032164245620369,12.050087098193169,0.4302807152271271,0.2255159169435501,0.5213514566421509
6.625545166015625,-0.7910645260382443,-1.6888398066490888,12.043282094353437,0.4464410543441772,0.1759012341499328,0.6893540024757385
6.635526123046875,-0.7690528199121356,-1.5314301075831054,11.865588608932494,0.3670015633106231,0.1474780142307281,0.809963583946228
6.645506103515625,-0.733568249554932,-1.360659261032194,11.622284879481793,0.2279246151447296,0.1232597753405571,0.8705097436904907
6.6554873046875,-0.7128636074393987,-1.1664172302618625,11.320447127997875,0.0674667656421661,0.1165992096066474,0.8785160183906555
6.66546728515625,-0.7710047576975076,-0.9397091732379048,11.061267784023284,-0.080030545592308,0.1616963744163513,0.8504910469055176
6.6754482421875,-0.8087401757214218,-0.6621664165116846,10.789299101102351,-0.1738549619913101,0.2090925127267837,0.7886751890182495
6.685427978515625,-0.8999301936224102,-0.3572646743472665,10.445541777777672,-0.2050046324729919,0.2250861227512359,0.6941143274307251
6.6954091796875,-0.9822516262173652,-0.1109486478706821,10.108708700758218,-0.1903632879257202,0.2289211750030517,0.5819783806800842
6.70538916015625,-1.190616217299178,0.0248499252267181,9.74100059300363,-0.1708247363567352,0.2829465866088867,0.4867432415485382
6.7153701171875,-1.3007450366869568,0.1071862631298601,9.336941653451325,-0.1312336921691894,0.3087274134159088,0.3965503871440887
6.72535009765625,-1.237956425949186,0.0150069419305771,9.102787445139883,-0.0548901818692684,0.2602261900901794,0.2868662178516388
6.735331298828125,-1.2246030964445322,-0.2465050097100436,8.984898732340335,0.044198278337717,0.1706417500972747,0.1717894524335861
6.74531103515625,-1.137977171588689,-0.5269366197455674,8.774601200434565,0.1417091339826584,0.1064438596367836,0.0520539842545986
6.7552919921875,-0.9790947696216404,-0.7465784647103398,8.55703923048377,0.2359571158885955,0.0839837417006492,-0.0729403793811798
6.765272216796875,-0.7249291621558368,-0.8733396352734416,8.377996668541432,0.3338280320167541,0.1114891394972801,-0.2117650955915451
6.775253173828125,-0.4553925286874175,-1.0107448763824998,8.100787746879458,0.4482937157154083,0.1779454499483108,-0.3592360913753509
6.7852333984375,-0.3100985801551491,-1.1352850829605012,7.800244126859307,0.5693693161010742,0.2937732338905334,-0.4878561198711395
6.795214111328125,-0.2625016933303326,-1.077298392611742,7.296913496693969,0.6667529940605164,0.3738134205341339,-0.5751667618751526
6.805194091796875,-0.2347591154020279,-1.0577972810670733,6.487541818135976,0.7268306612968445,0.3879220485687256,-0.5975705981254578
6.81517529296875,-0.3331964740827679,-1.2630376757137476,5.678060833984613,0.6810165643692017,0.5660362243652344,-0.5138443112373352
6.8251552734375,-0.155836166138947,-1.4138976608753204,4.723571659439802,0.5818779468536377,0.7538202404975891,-0.402235746383667
6.83513623046875,0.2581641025174409,-1.4073461934052407,3.4239088650316,0.4327302277088165,0.7962131500244141,-0.3119691610336303
6.845115966796875,0.5886790093660355,-1.347929397188127,1.0373393071889876,0.1773623675107956,0.687720775604248,-0.2208616286516189
6.85509716796875,0.5703998408317565,-1.1503254157040268,-2.7096827370673418,-0.2331001013517379,0.5852504968643188,-0.0222955029457807
6.8650771484375,0.272217250854522,0.0148491940855979,-7.117153141871095,-0.6715266704559326,0.3948731124401092,0.2990314066410064
6.87505810546875,0.0768926855444908,1.994327312812209,-10.93305641465187,-0.9466477632522584,0.0495034046471118,0.7142342329025269
6.8850380859375,-0.2967591330453753,3.98342052436322,-13.710285916769504,-1.0074868202209473,-0.2973890304565429,1.1812498569488523
6.89501904296875,-0.3347837432742118,5.5725394353270525,-15.719946992313862,-0.9189855456352234,-0.7347667217254639,1.6097625494003296
6.904999267578125,-0.158123546423763,6.329418710103631,-17.454850046479702,-0.8648850321769714,-1.1369407176971436,1.9140502214431765
6.914980224609375,0.2752316302396357,6.583302285757661,-19.37095488644838,-1.0592106580734253,-1.3981515169143677,2.0226099491119385
6.924960205078125,0.8081360723484307,6.28555443393588,-21.19262203183174,-1.4384756088256836,-1.5627120733261108,1.9002355337142944
6.93494140625,1.3640519722104072,5.211806427282094,-21.715371648216248,-1.782680630683899,-1.5574872493743896,1.5267144441604614
6.944921142578125,1.7933483750022947,3.709480249108374,-21.171172416567803,-1.8684061765670776,-1.3491884469985962,0.8900181651115417
6.954902099609375,2.362025629825145,2.63419056597054,-19.744083265686037,-1.6193852424621582,-0.9498858451843262,0.1049770265817642
6.964882080078125,2.73280262363106,1.9349882580064235,-18.08983020377159,-1.1508984565734863,-0.3759927451610565,-0.6475757956504822
6.97486328125,2.706826763114333,1.6215462857075034,-16.634409276896715,-0.6922940611839294,0.2520703971385956,-1.221997618675232
6.984843017578125,2.3112708634912966,1.6030892763882874,-15.500466036999224,-0.4108719229698181,0.7390056848526001,-1.5623797178268433
6.994823974609375,1.6899577047631142,1.5480745145224033,-14.197609999507664,-0.2753119766712188,0.9991899132728576,-1.667489528656006
7.004803955078125,1.024988651920855,1.0100928422145543,-12.226014158463478,-0.2188447117805481,0.9846141338348388,-1.5607428550720217
7.01478515625,0.4964952311873435,0.2210940530670806,-9.642375383600593,-0.1890356093645095,0.8018897175788879,-1.3117636442184448
7.024765380859375,0.2111016148302704,-0.3381669559717178,-6.896806509637832,-0.1931238323450088,0.5500069260597229,-1.0377451181411743
7.034746337890625,0.2343597408208995,-0.7519940600182861,-4.347170542141795,-0.2276093959808349,0.3318133354187011,-0.8115407824516296
7.04472607421875,0.376416022606194,-1.275299483654648,-1.8608406333863732,-0.2760592103004455,0.1990166753530502,-0.6555964350700378
7.054707275390625,0.5883403519961983,-1.876773823316395,0.5606172824859619,-0.3168250620365143,0.1497664451599121,-0.5688411593437195
7.064687255859375,0.7282396018780768,-2.440488487295806,2.678312616291642,-0.3385942876338959,0.1527611762285232,-0.5382824540138245
7.074668212890625,0.7742371637474745,-2.958367867295444,4.337480922776461,-0.3585755527019501,0.1557144671678543,-0.5296767950057983
7.08464794921875,0.7232793491221964,-3.432055931130052,5.600935508728027,-0.3494086861610412,0.1646720170974731,-0.5430296063423157
7.094629150390625,0.646691784004122,-3.656998951242864,6.850320652794838,-0.2934534251689911,0.2064652740955352,-0.5740157961845398
7.104609130859375,0.6206231306374073,-3.64359761787802,7.956775581786036,-0.2041536122560501,0.2597343623638153,-0.6136926412582397
7.114590087890625,0.5773148809172213,-3.6367850152537216,8.813802160966397,-0.0947434902191162,0.2943871319293976,-0.6340479850769043
7.124570068359375,0.4602406993709504,-3.7106741350680585,9.444418277829884,0.0142391882836818,0.3173523843288421,-0.6127192974090576
7.13455126953125,0.2908501281972974,-3.813604055927694,9.99175054680705,0.1305686831474304,0.3652206361293793,-0.5371769070625305
7.144531005859375,0.1232429333090782,-3.8129470533236858,10.524050081825257,0.2707492411136627,0.4291535317897796,-0.4258836209774017
7.154511962890625,-0.0718481885712593,-3.6026901456892486,10.887751292026042,0.4344830513000488,0.4574951529502868,-0.2980020940303802
7.1644921875,-0.2850822123203426,-3.1978429783686995,10.99896476484537,0.5891402363777161,0.4456089437007904,-0.1588721871376037
7.174473388671875,-0.4947274908624589,-2.721517844028771,10.933685360205171,0.7042708992958069,0.403377503156662,-0.0293300729244947
7.184453369140625,-0.6378544706191868,-2.3644798911094664,10.77184527747631,0.7666157484054565,0.31936115026474,0.0807021558284759
7.19443408203125,-0.7483999079838395,-2.129756358477473,10.56018756313324,0.7684422135353088,0.2021527141332626,0.1605488359928131
7.2044140625,-0.830702489747852,-1.95260530937016,10.31182421220541,0.6974167823791504,0.0741665288805961,0.2163852155208587
7.214395263671875,-0.9209605605609714,-1.7611764363244176,9.86724037004113,0.5329034328460693,0.0086011197417974,0.2743062674999237
7.224375244140625,-0.8091102511428296,-1.5706979958713054,9.442757651141283,0.3215411305427551,0.0020675873383879,0.3080519735813141
7.234356201171875,-0.4212656565494835,-1.5395738126806915,9.169473209446668,0.1397354006767273,-0.0180963333696126,0.2878906428813934
7.2443359375,-0.020316373450309,-1.639996865285933,8.952335602387786,0.0149649595841765,-0.0669903755187988,0.2241305708885193
7.254317138671875,0.3443897760093212,-1.81694055525288,8.602189454808832,-0.0588219054043293,-0.1136300638318061,0.1609497219324112
7.264297119140625,0.69216196099855,-2.062717542949319,8.042609114155173,-0.1008689552545547,-0.1317566037178039,0.1151015311479568
7.274278076171875,1.0631086853481828,-2.335872805306315,7.494556714209914,-0.0920019224286079,-0.1276271939277649,0.1058498099446296
7.284258056640625,1.4523384506896138,-2.5070149693876504,6.863927153342962,-0.0492091849446296,-0.0708395466208458,0.1397177577018737
7.294239013671875,1.909204559060931,-2.467811378507316,6.117989543819427,0.0273818727582693,0.0125932805240154,0.2026173919439315
7.30421923828125,2.5141227555662398,-2.406750029953569,5.39534922325313,0.159596100449562,0.0664895325899124,0.2392547577619552
7.3142001953125,3.2063930723100897,-2.41414817738086,4.673516127416491,0.3408727049827575,0.1463755667209625,0.2191084623336792
7.32418017578125,3.726581606034934,-2.3465203099183736,4.046696480226516,0.5320813059806824,0.3507428169250488,0.1768451631069183
7.334161376953125,4.411703512328863,-1.9411293911099432,2.521919108530879,0.6856613159179688,0.7841074466705322,0.0884659439325332
7.34414111328125,4.645002857376634,-1.6178757805012165,1.827592443779111,0.7322304248809814,1.3417823314666748,-0.0251524988561868
7.3541220703125,5.457628277033567,-1.233330373583734,1.6097580866277217,1.0392390489578247,1.932347536087036,-0.1123815476894378
7.36410205078125,6.10649492085874,-0.7519237712610513,0.2193669735461473,1.1757735013961792,2.1292004585266118,-0.2156647890806198
7.374083251953125,6.098410398602486,0.6510979100085794,-1.5703770933538674,1.2171121835708618,2.3265271186828613,-0.1882716566324234
7.38406298828125,4.995756615459919,2.49804489646852,-3.0775597716480494,0.9746222496032716,2.2999846935272217,0.0322830826044082
7.3940439453125,3.538002277201414,4.276372958602011,-5.59231205728948,0.4318654239177704,1.886067509651184,0.5376160740852356
7.404024169921875,1.866947133567929,5.048818343561887,-7.558580565831065,-0.3068637549877167,1.151383876800537,1.3064570426940918
7.414005126953125,0.6727014006599783,4.859461892876029,-9.39170434025228,-1.1358779668807983,0.1589328050613403,2.160149335861206
7.4239853515625,0.3962406670168042,4.2327325543180105,-11.910341942894458,-1.992172360420227,-0.7871567010879517,2.867008209228516
7.43396630859375,1.13333621391505,3.263835499714314,-14.287729246371985,-2.74972939491272,-1.409198760986328,3.262606143951416
7.443946044921875,1.8908957260407504,2.406200579377264,-15.84768256086707,-3.294700860977173,-1.5585377216339111,3.343151092529297
7.45392724609375,2.1219528451196847,2.449614043037593,-16.85883178026676,-3.431218385696411,-1.2638691663742063,3.2108869552612305
7.4639072265625,1.4394047348365189,3.4331454799324272,-16.790214755636452,-2.992575168609619,-0.7820215821266174,2.921107769012451
7.47388818359375,0.4778590659089386,5.382795446628331,-15.346154596209525,-2.0110113620758057,-0.3592688143253326,2.496616840362549
7.483867919921875,-0.6267556420430541,7.08193102184236,-13.767000906682014,-0.7942025661468506,-0.0630286335945129,2.0850729942321777
7.49384912109375,-1.5277257001072166,7.698043397057056,-12.104323715293408,0.219421237707138,0.1368664652109146,1.7686080932617188
7.50382861328125,-2.173084628072381,6.9028025351822375,-11.45917521520853,0.6272449493408203,0.0927397534251213,1.5321617126464844
7.5138095703125,-2.2425269976109266,6.15873481118381,-10.34089833099842,0.4217607080936432,-0.0374175943434238,1.306443452835083
7.523789794921875,-2.1432149749875067,5.806633437883853,-8.76645764146745,-0.224023625254631,-0.2038249522447586,1.125560283660889
7.5337705078125,-2.005553932486474,4.994526781404018,-7.308722007909417,-1.086769700050354,-0.398460179567337,1.0158295631408691
7.543750732421875,-2.070193870179355,3.7653503126293417,-5.5782800248056645,-1.848876714706421,-0.6000281572341919,0.9425147771835328
7.553731689453125,-2.0959252544157208,2.6670783978328108,-3.316400091949105,-2.350096702575684,-0.6018990874290466,0.8324645161628723
7.563711669921875,-2.0915940933436152,1.8411175496540964,-1.583945599979162,-2.54560923576355,-0.0017605554312467,0.6229575872421265
7.57369287109375,-1.6920922325737773,1.3014775887452066,-0.8794763113975524,-2.1673762798309326,-0.3756133913993835,0.0673131868243217
7.583672607421875,-1.044485671812296,-0.2382614974997937,0.9667810853630304,-1.649921178817749,-0.0429156087338924,-0.3789750933647156
7.593653564453125,-1.5004223903790117,-1.104395804504305,1.0606465330183503,-1.187623143196106,0.1839835196733474,-0.6468624472618103
7.603633544921875,-0.7372521987646817,-2.306334430002421,1.4499667531222105,-0.6747643351554871,0.2941223084926605,-0.737750768661499
7.613613525390625,-0.172200587093085,-3.5918940263867376,3.016973493260145,-0.0849924385547638,0.3683363795280456,-0.71711665391922
7.6235947265625,-0.3095914343506097,-4.276241148915887,4.193016922262311,0.4396297931671142,0.2390284836292266,-0.5595507621765137
7.63357470703125,-0.7206978081963956,-4.693816572645306,5.025895148614048,0.8729309439659119,-0.0154291884973645,-0.3299635648727417
7.6435556640625,-1.2061496673218906,-4.91259259456098,5.849491167357564,1.1855151653289795,-0.2823029458522796,-0.1456722915172577
7.65353564453125,-1.432813081486523,-4.774963116241992,6.630806964254379,1.3615217208862305,-0.4552155435085296,-0.0730871111154556
7.663516845703125,-1.3626071802295745,-4.518372619716823,7.430373288112879,1.4316216707229614,-0.5655412673950195,-0.0925721302628517
7.67349658203125,-1.549482773885131,-4.454424463680386,8.507478788501023,1.315107822418213,-0.3652930855751037,-0.0187479741871356
7.6834775390625,-1.8705298143602904,-4.14159097866863,8.70900089327693,1.1689966917037964,-0.506304919719696,0.0429922454059124
7.69345751953125,-1.635949927982688,-3.4571211065426466,9.037739511168002,0.9037728905677797,-0.4688936173915863,0.2823286652565002
7.703438720703125,-2.4341068234346808,-3.3106919434353705,8.940442920020223,0.514006495475769,-0.3909636735916137,0.6146296262741089
7.713418701171875,-2.0271547927893696,-3.1439979909345506,8.882208173194527,0.1503871977329254,-0.4069369435310364,0.8706670999526978
7.723399658203125,-1.560899947695434,-2.8892665662795305,8.904078644219041,-0.1402875036001205,-0.2445855885744094,0.9585317373275756
7.73337939453125,-0.9826740894131362,-2.833349741007388,8.962859334489703,-0.2906867563724518,-0.0360107719898223,0.8722066283226013
7.743360595703125,-0.4932438281759619,-2.751652285529673,8.755173446387053,-0.3445878028869629,0.0758885964751243,0.7542315125465393
7.753340576171875,-0.6616967531733214,-2.6011039966657754,8.43264303548634,-0.3726561665534973,0.0800832509994506,0.7101435661315918
7.763321533203125,-1.2329752765357491,-2.3059863472171127,7.913063865831494,-0.398687481880188,-0.0847413837909698,0.7345191836357117
7.773301513671875,-1.622832233864814,-1.8899099298737945,7.502308643510937,-0.4076078236103058,-0.3060738444328308,0.7928262948989868
7.78328271484375,-1.3315287358768284,-1.7108657604962587,7.344135851117968,-0.3277540206909179,-0.5555092692375183,0.7909750938415527
7.7932626953125,-0.4862750120766461,-1.8102413498751817,7.56621675979793,-0.1153268069028854,-0.5280941724777222,0.7630162239074707
7.80324365234375,-0.772592538345605,-1.9065911616921425,7.807122195935249,0.1787362396717071,-0.1068620160222053,0.7343904376029968
7.8132236328125,-0.2572799400940537,-1.6639223691441118,7.17622550856471,0.4856124222278595,0.3821931481361389,0.6427708864212036
7.823204833984375,0.0299639072395861,-1.669512298105657,6.242634745141864,0.7121686339378357,0.8342370390892029,0.5906181931495667
7.8331845703125,0.1885338822565972,-1.750630492390692,5.495342213878035,0.8769968152046204,0.4926847815513611,0.4232014119625091
7.84316552734375,-2.1908251596853137,-1.986476307050884,6.272804257956147,0.7912774085998535,0.1386633217334747,-0.1984059363603592
7.8531455078125,-5.768423826476932,-2.79072085185349,6.214233411043882,0.5590869784355164,-0.0877025723457336,-1.069347620010376
7.863126708984375,-1.0713749939121304,-2.6724048535525795,5.013483995330334,0.7172808647155762,-0.2975178360939026,-1.4683489799499512
7.8731064453125,2.5420786839842795,-1.914515671081096,3.914007673180103,1.1091301441192627,-0.5689271688461304,-1.213664174079895
7.88308740234375,1.1501393185473978,-0.6486065315842628,1.519759835794568,1.3330602645874023,-1.0932501554489136,-0.6397483944892883
7.893067626953125,-1.1865735908448696,-0.0561710557615384,-0.5062690217047929,1.4582878351211548,-2.179839611053467,-0.060308564454317
7.903048583984375,-0.7264972882553935,0.1045544533215463,-2.869302221137285,1.353230357170105,-3.8403143882751465,0.4516958594322204
7.91302880859375,-0.5194239790931344,-0.2844035641401075,-7.75238289000988,0.6571871042251587,-4.771224498748779,1.3345268964767456
7.923009765625,1.0084617338813842,0.1038967017988674,-12.237817993503809,0.2300254106521606,-5.847743034362793,2.156367540359497
7.932989501953125,1.4550797122217711,0.8899391801577061,-15.392048916900157,0.1723897010087967,-6.058189392089844,3.001481294631958
7.942970703125,1.2643842680171131,1.8594155690193173,-16.69404336912632,0.5816946625709534,-5.37200403213501,3.302816867828369
7.95295068359375,-1.1491501613795756,3.550940376968682,-16.421681887495517,1.0638175010681152,-4.270138740539551,3.045525074005127
7.962931640625,-4.894118195715547,5.242404394641518,-15.15499723358154,1.3016679286956787,-2.953331232070923,2.481985569000244
7.972911376953125,-6.302268837371468,6.614514001101255,-14.08715640514493,1.2910187244415283,-1.3654282093048096,1.923022508621216
7.982892578125,-5.084155029881,8.271459955361484,-16.40172280305028,0.7526394128799438,-0.887086033821106,0.9881784319877625
7.99287255859375,-0.1441078805528581,10.606272437959907,-24.20294717311859,-0.3430470526218414,-1.5488852262496948,-0.2752218544483185
8.002852783203124,-0.0237793733857572,10.564857893031837,-24.23057167762518,-0.6752830147743225,-0.8952695727348328,-0.581187903881073
8.01283251953125,-1.5008604895353317,6.1878662131220095,-18.378469450986383,-0.7118710875511169,-0.3425416946411133,-0.640368640422821
8.022813720703125,-2.8677593756094573,1.5027075787067412,-10.581798506438732,-0.5877417325973511,-0.0362131968140602,-0.5884010791778564
8.032793701171874,-2.5107202536463737,-0.2076535202030092,-8.445803545832634,-0.49215167760849,-0.0106282057240605,-0.6051065325737
8.042774658203125,-2.029862005921453,0.7896998135562986,-6.90938016000688,-0.4968215525150299,-0.0526787191629409,-0.6020545363426208
8.052754638671875,-2.133536461538076,2.0580469207897782,-6.884402370616793,-0.5744134187698364,0.1394854038953781,-0.6427316665649414
8.06273583984375,-3.016597353424132,1.6866184773378072,-6.273187704315781,-0.6158050894737244,0.6305379271507263,-0.8210952877998352
8.072715576171875,-3.006843728911877,0.5918927107155323,-4.689280098259449,-0.5866531729698181,1.1116222143173218,-1.050151824951172
8.082696533203125,-2.6775305260032414,-0.334504451408796,-2.868013934892416,-0.4995467066764831,1.6144531965255735,-1.1872297525405884
8.092676513671876,-2.219215680128336,-0.3600330430820584,-1.010077206254005,-0.3525772392749786,1.9108115434646609,-1.236501693725586
8.10265673828125,-1.441750128918886,-0.1390339200231246,1.52973411732018,-0.1875169426202774,2.063570976257324,-1.198469161987305
8.112637939453125,-0.2764418828122317,-0.1987817017602734,3.2187609709739684,-0.0955369621515274,1.971524834632873,-1.093441367149353
8.12261767578125,0.4663967377826571,-0.8092904300153255,4.094239737167954,-0.0761957541108131,1.9379229545593264,-1.0196791887283323
8.1325986328125,1.126944393986091,-1.6087278667971492,4.78832791698873,-0.1120689958333969,1.7925364971160889,-0.9676629900932312
8.142579833984374,1.439642635245621,-2.8229914286002518,5.539027626347542,-0.1722186207771301,1.8482037782669067,-0.9496267437934875
8.152559814453125,1.288343381883949,-2.346341007828712,6.01175385941267,-0.181211769580841,2.02619743347168,-0.9590915441513062
8.162540771484375,0.957225248445198,-1.07811350838691,7.025657930478453,-0.1211577653884887,2.219123601913452,-0.9520581364631652
8.1725205078125,0.6656770549811423,-0.3384621395260095,7.89063517640233,-0.0324937887489795,2.190374851226806,-0.933506965637207
8.18250048828125,0.7100221004031598,-0.6482702123019843,8.415732232695817,0.0551503077149391,1.9827957153320312,-0.912653386592865
8.192481689453125,0.6922492739558219,-1.0284532592915,8.130762029382586,0.1668722182512283,1.6425610780715942,-0.8491470217704773
8.202461669921876,0.1614403793541714,-1.139882932144776,8.11358000843525,0.2296892702579498,1.10908842086792,-0.6931571364402771
8.2124423828125,-0.3621560265854001,-1.056131832072884,7.369617498376965,0.2930162847042084,0.5657676458358765,-0.4976239204406738
8.222422607421874,-0.8157286463692783,-1.2521147151611745,7.509248087385297,0.3924717605113983,-0.0236538350582122,-0.3317228257656097
8.232403564453126,-0.6593934446670114,-0.8947989682137966,8.378463117009401,0.6073471903800964,-0.5190116763114929,-0.2346601784229278
8.2423837890625,-0.1480937444517854,-0.6474177601911127,9.841408009648324,0.7337567806243896,-0.9982653260231018,-0.2480175346136093
8.25236474609375,0.2150846565844491,-0.5606337221641093,10.21016065801978,0.7565145492553711,-1.3916996717453003,-0.3194843828678131
8.262344482421875,0.3851429344192147,-0.0471022169093601,10.1653629003942,0.6667372584342957,-1.7144629955291748,-0.4134135544300079
8.27232568359375,0.6051452832594514,0.5995738032700494,10.199855537104606,0.3748705387115478,-1.8178893327713013,-0.5557090640068054
8.2823056640625,1.7477696961320937,1.251188540226966,9.778770059427618,0.1029633730649948,-1.8319348096847532,-0.5468647480010986
8.29228662109375,1.0338638861633838,0.9275659501753748,9.84874025223255,-0.1347537189722061,-1.429914951324463,-0.3793865144252777
8.3022666015625,1.3118313711076974,-0.6117656147146597,11.397120033311843,-0.3869390785694122,-0.779788076877594,-0.1571813970804214
8.31224755859375,2.495148590505123,-3.094964203174412,12.110372347807884,-0.6263689994812012,-0.0603193305432796,0.0172883365303277
8.3222275390625,2.0301684415221213,-5.470837887218594,11.588162829649448,-0.8296350240707397,0.3490210473537445,0.060211569070816
8.33220849609375,2.425218437449634,-5.235236987230182,10.491855785185098,-1.0221595764160156,0.4198783934116363,-0.0066422526724636
8.3421884765625,2.08943954565823,-1.9795932695388796,7.918391198334097,-1.120514154434204,0.5897403955459595,-0.0635904893279075
8.352169677734375,1.7671242388129234,0.3917988121118396,7.136112693884968,-1.2059024572372437,0.5973328948020935,-0.0191533528268337
8.362149658203125,0.972123688500002,0.4236383404975756,6.629390083193779,-1.1202445030212402,0.6931840777397156,0.1441625952720642
8.372130615234376,0.7439954624798149,-0.5081164396697655,6.076247082111239,-0.8443554043769836,0.5894900560379028,0.3464620411396026
8.382110595703125,0.9320758288152516,-1.275823215267807,5.751633435195684,-0.4354429543018341,0.3381608426570892,0.4541607797145843
8.392091796875,0.7727288780763745,-1.2845887055255472,4.234957536891103,-0.0240398161113262,0.1017743796110153,0.4692633748054504
8.40207177734375,0.8420406800378113,-0.631618718034774,2.515588151943684,0.2411311268806457,-0.1982930302619934,0.4657743573188782
8.412052490234375,0.3558558669952675,0.6083248266110196,0.2452531099528074,0.2878071367740631,-0.5305718183517456,0.5287002325057983
8.422032470703124,0.2769120576072484,2.7734380008801818,-2.9116841497927903,0.1244935691356659,-0.7198352217674255,0.6280787587165833
8.432013671875,-0.0354453343253582,4.3216126147761935,-7.1692159220635885,-0.0982964262366294,-0.6530928611755371,0.5628495812416077
8.44199365234375,-0.5220449021812528,4.029062623858452,-11.747460242158176,-0.3415871262550354,-0.7445819973945618,0.2218363583087921
8.451974609375,-0.499160870200023,3.0221383286774155,-16.659021155583858,-0.5543118119239807,-0.6826609969139099,-0.1569422483444214
8.461954345703125,-0.9854630625445396,2.0527507140778005,-20.70512843774557,-0.7869746685028076,-0.3284744024276733,-0.3095629513263702
8.471935546875,-2.708867036770284,1.448954945731163,-21.980389196825023,-0.9808188676834106,0.3114966154098511,-0.23389632999897
8.481915771484376,-3.7896746065467593,1.5052318364873527,-20.1343895742178,-1.1156818866729736,0.8904225826263428,-0.0581037178635597
8.491896484375,-3.60897375600338,1.9938649559974668,-16.596340535265206,-1.148453950881958,1.270650863647461,0.1109109222888946
8.501876708984375,-2.5210969784930346,2.7914114644661545,-13.168890052103997,-1.071180820465088,1.3596999645233154,0.1943669319152832
8.511857177734376,-1.500277282819897,3.4507790440395474,-10.569521208667757,-0.8571345210075378,1.3035343885421753,0.2143656015396118
8.521837158203125,-1.183417245705798,3.419872156861424,-8.558933665928244,-0.5315340757369995,1.273373007774353,0.2460468262434005
8.531818115234374,-1.0521069604709743,2.662663796260953,-6.775432877331972,-0.1620339453220367,1.2927286624908447,0.2628763020038605
8.541798095703125,-0.9915889980789272,1.6447756239950655,-5.649087252956629,0.1511548608541488,1.322745680809021,0.2391371577978134
8.551779296875,-1.0130248040132224,0.8142100584998726,-4.896956634011865,0.3535540997982025,1.3871396780014038,0.198021799325943
8.561759033203124,-0.9110219348706304,0.2005779557935893,-4.015124699398875,0.438013345003128,1.4244974851608276,0.1611386090517044
8.571739990234375,-0.6957017524972557,-0.3129365069948137,-2.95465352294743,0.4166189432144165,1.3985915184020996,0.1204915419220924
8.581719970703125,-0.5110568405032158,-0.7343756934802979,-1.5598562838613983,0.3265412449836731,1.2610771656036377,0.0672714635729789
8.591701171875,-0.3045935529980808,-1.010216030202806,-0.1201093114584684,0.2161848545074463,1.0717099905014038,0.0358606874942779
8.60168212890625,-0.280780715734139,-1.5130518625885248,2.7039135060161352,0.1111242026090622,0.8660413026809692,0.0319442451000213
8.611662109375,-0.4494373466100543,-1.7398127457782626,3.7086715630739926,0.0115103553980588,0.5995044708251953,0.0573693700134754
8.62164306640625,-0.5665409734465181,-1.8826801247507328,4.345039375331997,-0.078742042183876,0.2806463241577148,0.1168521344661712
8.631623291015625,-0.8677497793771326,-2.0286855094879863,4.54345182365477,-0.1825401484966278,0.0178686268627643,0.1965742707252502
8.641603271484374,-1.076705395154655,-2.109277049550414,4.468317379954457,-0.2718042433261871,-0.1399998366832733,0.2743191421031952
8.651584228515626,-1.0346958800081163,-2.125817849984765,4.345578889036179,-0.3031450510025024,-0.205566719174385,0.3502129018306732
8.66156396484375,-0.9708331372328102,-1.979547676831484,4.27250371595323,-0.2439877390861511,-0.1476847678422927,0.4034945070743561
8.671545166015624,-0.7846097969409078,-1.8528978576883672,3.980521588051319,-0.1139425262808799,-0.0430070608854293,0.4361366033554077
8.681525146484375,-0.6688085579399019,-1.8459364942431449,4.519588717508316,0.4366204738616943,0.1371659040451049,0.3908927142620086
8.691506103515625,0.5420942952584475,-1.7772583870753644,4.232866702091694,0.6687591075897217,-0.2810796201229095,0.24081751704216
8.70148583984375,0.3554633970789611,-2.052387725984305,1.1256254934072494,0.8132126927375793,-0.4276347160339355,0.1668157279491424
8.711467041015625,0.236995203891024,-1.3730039249509571,1.4691355639725925,0.8113524913787842,-0.3259667456150055,0.1629070788621902
8.721447265625,-0.4430271142415702,-1.292743808799982,1.7852280507802962,0.7340726256370544,-0.1770385056734085,0.2285686433315277
8.731427978515624,-0.345671340252459,-1.05354861064665,1.5707254684001206,0.5462828874588013,-0.1254408657550811,0.2763655185699463
8.741408203125,-0.0916638459578156,-0.8318523173701018,1.185937046507001,0.3310821652412414,-0.1284987032413482,0.274070680141449
8.751389404296875,-0.0236828542087227,-0.8268499790381639,0.8498989192575216,0.1268192082643509,-0.1496783792972564,0.2859010398387909
8.761369140625,-0.0780172325950115,-0.8118145416654646,0.3792138366311788,-0.0284707732498645,-0.2134922444820404,0.3264362215995788
8.77135009765625,-0.0148952251844108,-0.6466634346924722,-0.0904541779071092,-0.0856508538126945,-0.3311160504817962,0.3541724681854248
8.781330078125,0.2661861539967358,-0.5349295181956142,-0.3074281188368797,-0.0052990172989666,-0.4822957217693329,0.3350507020950317
