seconds_elapsed,ax,ay,az,gx,gy,gz
0.08179150390625,-0.4671656763285398,-0.0620095891892909,0.0100455931961536,0.3635192513465881,0.4851736426353454,0.3624274432659149
0.0917705078125,-0.1609071857929229,-0.1503388838969171,-0.0602010784626007,0.3851959705352783,0.449587732553482,0.4362687468528747
0.10175048828125,0.1317620475903153,-0.2866927893221378,-0.1310755266308784,0.4169490933418274,0.4117000102996826,0.4669049382209778
0.11173046875,0.3448419036909937,-0.3101832627639174,-0.1982610571533441,0.4387142062187195,0.4033342897891998,0.4600270092487335
0.12171044921875,0.4290840752154588,-0.2401176467604935,-0.2264110468387603,0.4466965198516845,0.4357268512248993,0.432758629322052
0.131689453125,0.2954685087129473,-0.0623730156742036,-0.2852951974838972,0.4561380445957184,0.5180624723434448,0.418739914894104
0.14166943359375,-0.0955851110547781,0.1815443156301975,-0.2481225279092788,0.4634164869785309,0.6933668851852417,0.4304972290992737
0.151649658203125,-0.5452677376627921,0.5063274738937616,0.0655307490527629,0.4505637586116791,0.9129245281219482,0.4634966254234314
0.16162939453125,-0.8084718071088194,0.7364709852591157,0.3595645487874746,0.4271995723247528,1.0709301233291626,0.5259597301483154
0.171608642578125,-0.9897086642250418,0.8073267287269235,0.5688169555544853,0.3927943110466003,1.1485801935195925,0.6177910566329956
0.181588623046875,-1.0440857127092775,0.7384976687811314,0.7301929279029369,0.3361669778823852,1.1834617853164673,0.7202761769294739
0.191568359375,-0.9933173562414944,0.6141964585907757,0.8270943822532891,0.2507428824901581,1.204628825187683,0.8040863871574402
0.201548583984375,-0.8234984035879374,0.366233066765964,0.8352882101029158,0.1349009722471237,1.2100307941436768,0.8731632232666016
0.211527587890625,-0.5880423188976943,-0.004153320287168,0.7402706698030233,-0.0086148232221603,1.1105467081069946,0.8887314796447754
0.22150732421875,-0.1937516169048845,-0.1911252139240503,0.320213950651884,-0.1755287200212478,0.8652016520500183,0.8050928115844727
0.2314873046875,0.3794691265664994,-0.167277889868617,-0.1584486867249012,-0.3099618852138519,0.7352460622787476,0.681286096572876
0.2414677734375,0.5595950998313725,-0.2053461931087076,0.3276011382937431,-0.3639422953128814,0.7276315689086914,0.5960638523101807
0.251446533203125,0.2059882904045283,-0.3420226084865629,0.8451362349003553,-0.3604991734027862,0.6890984773635864,0.5481910705566406
0.261426513671875,-0.0980056161999702,-0.3272081934534013,0.5803162546902895,-0.3256874084472656,0.657296895980835,0.5353221297264099
0.27140673828125,-0.3261925866700709,-0.4028935490347445,0.1204144318848848,-0.2590073347091675,0.8173045516014099,0.5300579071044922
0.281386474609375,-0.3939569399937987,-0.4043330803185701,0.0241916074484586,-0.1771806627511978,1.0967005491256714,0.4841876626014709
0.291365478515625,-0.0814122818607837,-0.1867722794115543,0.0597545037388801,-0.1008075922727584,1.353151559829712,0.3797266781330108
0.301345703125,0.3346091904249042,-0.0136043085910379,0.0996867011547088,-0.0498719774186611,1.5611143112182615,0.2595906853675842
0.311325439453125,0.3051470221623778,0.0727225602529943,0.2909977930396795,-0.064234659075737,1.7237342596054075,0.164297416806221
0.321305419921875,-0.0818880096137523,0.1188170796908438,0.211072023409605,-0.1554058492183685,1.861949443817139,0.081688292324543
0.331284423828125,-0.369555306523852,0.1269245444312691,0.0063683659881353,-0.2949664294719696,1.9580707550048828,-0.0011263913474977
0.3412646484375,-0.391210454297252,-0.1369812435433268,0.0780582221925258,-0.4031850397586822,1.9416792392730715,-0.0654920637607574
0.35124462890625,-0.4355394253673031,-0.6112494453534484,0.1994733555525541,-0.4076337516307831,1.7737599611282349,-0.1145379170775413
0.361224609375,-0.4728546086851507,-0.7644504406832158,0.3706540980786085,-0.3157088756561279,1.564313292503357,-0.151161715388298
0.37120361328125,-0.4379429793776944,-0.5455822104394435,0.634298020246625,-0.1711567640304565,1.311214566230774,-0.1878967732191085
0.38118359375,-0.3152637808986008,-0.2678916427403688,0.661640785202384,-0.0386778153479099,0.995288074016571,-0.2313305437564849
0.39116357421875,-0.059595732980594,-0.1438527367480099,0.3771311851382255,0.0510513596236705,0.6900079846382141,-0.2837381958961487
0.401143310546875,0.0763686251377686,0.0707500911362469,0.1264209788233041,0.1071905270218849,0.469777911901474,-0.2975232303142547
0.41112255859375,-0.0985203607890754,0.0221143627829849,-0.0070031567603349,0.1477918475866317,0.3433859348297119,-0.2918418943881988
0.421102294921875,-0.0439054484283551,-0.0184903270669281,-0.3176455614686012,0.194208338856697,0.3517184257507324,-0.2643972039222717
0.431082275390625,0.0398836090337485,-0.1742968287199735,-0.3762222535997629,0.2577623724937439,0.4534324705600738,-0.2343561500310897
0.4410625,-0.0399388463523238,-0.3639041854269802,-0.3972515976250171,0.3114674091339111,0.5872424840927124,-0.2270753383636474
0.451041259765625,-0.2227791931424289,-0.2959321807019412,-0.7217728900820016,0.3504766225814819,0.7180866003036499,-0.2548829913139343
0.461021484375,-0.1682327063754201,-0.3417220181047916,-0.964651672118902,0.3549299538135528,0.7738614678382874,-0.3382431268692016
0.47100146484375,0.2245340009205043,-0.2224453580781817,-1.583721728095412,0.3004256784915924,0.8366203308105469,-0.4412845075130462
0.480981689453125,1.0143465541362762,-0.2013509859926998,-1.9093021742165088,0.1795136481523513,0.9177013039588928,-0.4809293746948242
0.49096044921875,1.222787279194221,-0.4822054245501756,-1.8637369393497705,0.0364817380905151,1.106469750404358,-0.4668230414390564
0.5009404296875,1.655366283853352,-0.396944139111042,-1.486885155674815,-0.0902666226029396,1.2979134321212769,-0.3853614926338196
0.51092041015625,1.7699904418990016,-0.1815985300354659,-1.3443395560026168,-0.155818298459053,1.4102658033370972,-0.215968444943428
0.520900390625,1.2186505447156726,-0.1540808469042182,-1.224305647867918,-0.1112489700317382,1.501121997833252,-0.0165722463279962
0.53087939453125,0.3663634151473641,0.0404112131044268,-0.7279699911564588,0.020489452406764,1.559555172920227,0.1473593562841415
0.540859375,-0.2881036790333688,0.3030244770504534,-0.308444017881155,0.2477606832981109,1.1508880853652954,0.2759870886802673
0.550839599609375,-0.6060292264871299,0.3354514134027063,-0.0017804536759853,0.722053050994873,-0.3690494000911712,0.3665142357349396
0.560819580078125,-0.1575949925050139,-0.3695673257552087,2.603132579883933,0.9626200795173644,-1.2443292140960691,0.4117911756038666
0.570798583984375,0.6683095954418182,-0.9037786857441068,2.352503622111678,0.7986860275268555,-1.2382320165634155,0.5207405686378479
0.580778564453125,0.597076981485635,-0.4477769391171634,0.0462771825283765,0.5429703593254089,-1.000474452972412,0.7330397963523865
0.590758544921875,0.3763936646439135,-0.0206961665481328,-0.0695294633001089,0.4029198288917541,-0.8718745708465576,0.9145816564559937
0.60073828125,-0.0467026413988322,1.0157117780748754,0.501065607842803,0.3727992177009582,-0.6330713629722595,1.0454357862472534
0.610717529296875,-0.2726824572134763,1.7486971862405538,1.241630292156339,0.3818653225898742,-0.4191184341907501,1.1591097116470337
0.620697509765625,-0.2290135574873536,1.5188321995556353,1.6680805117368698,0.3482154905796051,-0.1768780946731567,1.2692627906799316
0.63067724609375,-0.1392969731397926,0.9847376708794384,1.6868156073451042,0.2499512284994125,0.0654107183218002,1.2823171615600586
0.640657470703125,-0.0671971478950232,0.8577141961183399,1.346388889747858,0.1014874503016471,0.2316854447126388,1.1820709705352783
0.65063671875,-0.2646585791032761,0.9712944711342454,1.0418383721739053,-0.09757761657238,0.2361790388822555,0.9976670742034912
0.660616455078125,-0.5712473975718021,1.0669465830106288,0.8290045997887849,-0.3086382150650024,0.1860948204994201,0.762245237827301
0.670596435546875,-0.709175128185004,0.880484319396317,0.9082757049024104,-0.5031267404556274,0.2103642076253891,0.5111426711082458
0.68057666015625,-0.5655233208365738,0.3661289488043636,1.0778232932686804,-0.5540101528167725,0.16634002327919,0.3117784559726715
0.690555419921875,-0.4850909168586134,-0.1037505895927548,1.4457272158563137,-0.3905952274799347,0.0595712810754776,0.1519358307123184
0.700535400390625,-0.4804977438494562,-0.1722385079506784,2.0163047513425347,-0.0653611794114112,0.0365205593407154,0.0262002665549516
0.710515625,-0.8328997075311839,-0.047785614329949,2.485156188800931,0.2715158462524414,0.3377549648284912,-0.047494638711214
0.720494384765625,-1.2963375955082477,0.2983401916917413,1.9882126293241975,0.6343467235565186,0.4996285438537597,-0.090377926826477
0.730474365234375,-1.0308061060279607,0.3501329227712005,1.969412651786208,0.8562321066856384,0.7605113387107849,-0.1092598959803581
0.740454345703125,-0.7625241487957537,0.3257506150562316,1.8309557827323677,0.9333229064941406,0.951630711555481,-0.0084600523114204
0.7504345703125,-2.2006527262166142,0.4543764835126698,1.7208581622004508,0.9379792809486388,0.748294472694397,0.0553707927465438
0.76041357421875,-2.110458660550415,0.7983752874430269,1.9085960717737676,0.8759961128234863,0.3791272938251495,0.11155816167593
0.770393310546875,-2.313965217141807,0.7352190124366432,1.872667849302292,0.6901308298110962,0.0200683828443288,0.1731855571269989
0.78037353515625,-2.2430537979640066,0.8758072674959897,1.8429378969490529,0.4179137051105499,-0.2209325134754181,0.247595876455307
0.790353515625,-1.8862477541044356,0.7326400287941098,1.8170669581115244,0.1952053308486938,-0.3214574754238128,0.3269712328910827
0.80033349609375,-1.243217122956365,0.364367820883356,1.9964906283259392,-0.0167740266770124,-0.4470910429954529,0.3339851796627044
0.8103125,-0.4768110181607305,-0.0814248125487938,1.7605904531300067,-0.0992108583450317,-0.4752449989318847,0.3236916661262512
0.82029248046875,-0.3161100224643945,-0.4920597329579293,2.565187172371149,-0.0894184187054634,-0.4024413526058197,0.3209939002990722
0.8302724609375,-0.2139807504631578,-0.6173911629788578,2.7060125241219994,-0.019521091133356,-0.3548952043056488,0.2992109954357147
0.84025146484375,-0.0010432254426181,-0.6234574772804975,2.324839954638481,0.0766730830073356,-0.3677140474319458,0.264184296131134
0.850231689453125,-0.1290691552445292,-0.7923067081190646,1.968125534585118,0.1651729494333267,-0.4547868967056274,0.2200789898633957
0.86021142578125,-0.2390669686637818,-0.9314118119485676,1.6816922729820012,0.242719680070877,-0.5789842009544373,0.1794183850288391
0.87019140625,-0.3558896596670151,-0.9253193402923644,1.47449270709157,0.2769282758235931,-0.6938713788986206,0.1403213143348693
0.88017138671875,-0.4868754621878266,-0.6642253218028694,1.2832178555637597,0.2506439387798309,-0.7806800603866577,0.110496312379837
0.890150390625,-0.532939805683121,-0.2321666877560317,1.0781529636144638,0.146906241774559,-0.7934411764144897,0.1072018891572952
0.90013037109375,-0.4641961589984595,0.1612874538147821,0.5082675020456314,-0.0046238866634666,-0.7420035600662231,0.1206369996070861
0.9101103515625,-0.2976568856026977,0.3294430763659998,-0.1078670850008726,-0.1736980378627777,-0.7313658595085144,0.1276759952306747
0.920090576171875,0.0391898546159267,0.2469212258281186,-0.943249403128028,-0.3395266830921173,-0.5969313383102417,0.1210921183228492
0.9300693359375,0.4140159776821732,0.2477337112547829,-1.743676143208146,-0.4497409760951996,-0.4319285154342651,0.081270232796669
0.940049560546875,0.8047254601873457,0.3662897653892636,-2.5197698215425013,-0.5376932621002197,-0.3412220478057861,0.0441220700740814
0.950029541015625,0.9435646065570412,0.5550870478224009,-3.7938971926778553,-0.6466289162635803,-0.2024247497320175,0.071545161306858
0.960008544921875,0.7114342322234064,1.0166880757611243,-5.581408970481157,-0.7734856605529785,-0.1149050220847129,0.0946632623672485
0.969988525390625,0.7474401961062103,1.7669985666066408,-7.558789240145683,-0.9044750928878784,-0.1674803495407104,0.0957796573638916
0.979968505859375,0.6429105118997395,2.4406629670798776,-9.459451011788843,-1.0092065334320068,-0.3920783102512359,0.0762011632323265
0.989948486328125,0.7028962671112269,3.172555684638023,-11.189947939950228,-1.076412796974182,-0.6844463348388672,0.0166663508862257
0.99992724609375,1.200894377142191,3.798847508561611,-12.42903380832076,-1.0929633378982544,-0.9341768026351928,-0.0470899902284145
1.009907470703125,2.0123117361836136,3.8194384611696,-13.072738539338111,-1.0598812103271484,-1.0716053247451782,-0.0797720775008201
1.019887451171875,2.627815770241618,3.5705759285479783,-13.240623747450112,-0.9838157296180724,-0.947130799293518,-0.0683891996741294
1.02986767578125,2.90820595228821,3.415640510641038,-13.226537938952443,-0.8787106871604919,-0.7165433764457703,-0.0499664992094039
1.039846435546875,3.243284586855769,3.0253783335119486,-12.92995620830059,-0.7633074522018433,-0.5609996318817139,-0.0422398671507835
1.04982666015625,3.2660049527078865,2.584995450168848,-12.098598907905815,-0.679034411907196,-0.5103021264076233,-0.0281551554799079
1.059806640625,2.942378563264012,2.3400362085960804,-11.0686631549716,-0.6669561862945557,-0.5519382953643799,0.0020565423183143
1.069786376953125,2.6236615731716157,2.083333191607147,-10.045137269079683,-0.7289366126060486,-0.637932538986206,0.0516053475439548
1.079765625,2.2326732737250623,1.590960447177291,-8.880694846022129,-0.8050218224525452,-0.6708689332008362,0.1330261826515197
1.089745361328125,1.8419899485744533,1.0629523257426916,-7.738911998540162,-0.857342004776001,-0.5200806260108948,0.2663623392581939
1.099725341796875,1.3812759326033293,0.47486309896335,-6.467198702809214,-0.8512718081474304,-0.2498411685228347,0.4046571254730224
1.109705322265625,1.260989218751341,-0.3018814444951713,-4.967054252588748,-0.701151967048645,-0.0874626412987709,0.4690019190311432
1.119684326171875,1.144480196807161,-1.5106177673093977,-2.66177473846674,-0.3912343680858612,0.0017556538805365,0.4797914624214172
1.12966455078125,0.7329149732779711,-2.642126035144925,-0.1231096623182296,-0.0190631914883852,0.053671047091484,0.4839590489864349
1.13964453125,0.4061594189628958,-3.196543293946981,1.7044389423191546,0.3285128772258758,0.0875379368662834,0.5003142952919006
1.149624267578125,0.0474467560307122,-3.2460867847949264,3.2088428035497665,0.6283284425735474,0.0767234042286872,0.5249678492546082
1.159603515625,-0.2619294464003294,-3.1000527584850786,4.740712763854861,0.8620410561561584,0.0465686991810798,0.5411316156387329
1.16958349609375,-0.4543869318414479,-2.9935400107026098,6.337349503102899,1.0298182964324951,0.0044627990573644,0.5468074083328247
1.179563232421875,-0.497944735875912,-2.820358742009103,7.849525167378783,1.126664161682129,-0.056556612253189,0.5209627747535706
1.18954345703125,-0.5014487619414926,-2.4880770446836946,8.987223375895619,1.1395657062530518,-0.1141351535916328,0.4769550561904907
1.1995224609375,-0.5848981025878339,-2.1190987708628177,9.886747034543752,1.0578484535217283,-0.0590183697640895,0.4284746050834656
1.209502197265625,-0.686230744318664,-1.8708160839557648,10.445714796257018,0.8696388006210327,0.1107271313667297,0.3696097135543823
1.219482666015625,-0.5326619020571932,-1.7377888387352227,10.6811134516716,0.6226074695587158,0.260176807641983,0.2797674536705017
1.229462646484375,-0.4235725817849859,-1.817909984806925,10.9634725957036,0.3642312884330749,0.3449738919734955,0.1721240580081939
1.23944140625,-0.6139250212382524,-1.928110919582844,11.360208645021917,0.1145479530096054,0.3529095947742462,0.0334852151572704
1.249421630859375,-0.8477395492665469,-2.0215666173934936,11.525226188743114,-0.0730761811137199,0.376788467168808,-0.1284919083118438
1.259401611328125,-0.9808595142718404,-2.1834996391028163,11.720152548515795,-0.139318585395813,0.4303883016109466,-0.2829219698905945
1.26938134765625,-1.030495359578356,-2.246733217129111,12.045292849653958,-0.099787600338459,0.4757990539073944,-0.4122560322284698
1.2793603515625,-1.0856811671622095,-2.1996588928736744,12.134929281437396,-2.18586064875e-05,0.508445143699646,-0.5097876787185669
1.289340576171875,-1.157625655714795,-2.2449529095835983,12.064845106863975,0.0901593416929245,0.5030761361122131,-0.5534165501594543
1.2993203125,-1.2536626752555369,-2.3977362640231847,11.886675820624829,0.1332218497991562,0.4787132441997528,-0.5636215209960938
1.309300537109375,-1.3396414613142609,-2.4866511035338044,11.676618527215718,0.13287253677845,0.4632637500762939,-0.5354836583137512
1.31927978515625,-1.4084239056393504,-2.482845281510055,11.41501341739893,0.1106865480542182,0.4147596061229706,-0.5010761022567749
1.329259521484375,-1.4508201550811528,-2.5618773171707985,11.128148778641224,0.1004327535629272,0.3664454519748688,-0.4506887197494507
1.339239501953125,-1.4983213264465332,-2.684025440980494,10.900108084774017,0.1224112883210182,0.3217405676841736,-0.3892149925231933
1.349219482421875,-1.6324235074222089,-2.648064193022251,10.684931548655031,0.1649169474840164,0.2538940906524658,-0.3378821909427643
1.359198486328125,-1.7753535763673485,-2.481974343894422,10.288034171295166,0.1975454688072204,0.1604680269956588,-0.3188571035861969
1.369178466796875,-1.9038757652536036,-2.4274577408090234,9.613249826881288,0.227162018418312,0.0569975599646568,-0.3272154927253723
1.379158447265625,-2.2009714367769657,-2.449231035069376,8.973433919996022,0.2826687097549438,0.0324115231633186,-0.3398112058639526
1.389138916015625,-2.330006543621421,-2.2339361332677306,8.265993506649137,0.3711118400096893,0.0318643227219581,-0.3855786621570587
1.3991181640625,-2.0736052860580383,-1.9406898306488989,7.489774156108498,0.5227231979370117,0.0044092619791626,-0.4882824122905731
1.40909814453125,-1.6782807109728457,-1.622249319410324,6.759888102197647,0.6660522222518921,-0.0677840411663055,-0.5928838849067688
1.419077880859375,-1.3942584560342133,-1.2238920986309647,5.237893054696917,0.7054073214530945,-0.0604907125234603,-0.6138365268707275
1.429057861328125,-1.2689699883721768,-0.4460207430996,2.741301279646158,0.6388359069824219,0.0287750214338302,-0.5373014807701111
1.439037109375,-1.2215584680516272,0.612957564445585,0.003797054195404,0.5227726697921753,0.0933502838015556,-0.3959245979785919
1.44901708984375,-1.009803650009632,1.6782916707582771,-2.444416766655445,0.3167062103748321,0.1414561718702316,-0.2135046869516372
1.4589970703125,-1.0591895391430706,2.9335771249100566,-5.4326791292160745,-0.0007212895434349,0.0946143642067909,0.0303913317620754
1.468977294921875,-1.5952740725927057,4.429421539849042,-9.134086254245045,-0.3475774228572845,-0.155032992362976,0.2794279754161834
1.4789560546875,-1.7765192591458558,5.679592865857481,-12.281970438963176,-0.6170405745506287,-0.5107889771461487,0.4812239408493042
1.48893603515625,-1.7883531970635056,6.084686409154534,-14.545207631647584,-0.7498642206192017,-0.8418601751327515,0.5930473804473877
1.498916259765625,-1.313205874331295,6.018501580107212,-16.117015050065515,-0.757224977016449,-1.0568181276321411,0.5577905774116516
1.50889599609375,-0.3899322510549798,5.659726720392704,-17.195988682413102,-0.7301172614097595,-1.0521928071975708,0.3312395811080932
1.518875,0.8072770443663001,5.04472961294353,-17.950281447827816,-0.6766031980514526,-0.9533178806304932,-0.0644502118229866
1.528855224609375,1.8866918446101248,4.564588427446783,-18.83273648277521,-0.5753676295280457,-0.6221965551376343,-0.4865687489509582
1.538835205078125,2.351491960851103,4.409443750703335,-19.0860671007216,-0.4766106903553009,-0.1992293298244476,-0.8291811943054199
1.548815185546875,2.3656467429317534,4.023063675704599,-19.111682018971443,-0.4134772717952728,0.0343646928668022,-1.084041714668274
1.5587939453125,2.1335611575879154,3.115165571942925,-18.84297730628252,-0.3641339540481567,0.1165631562471389,-1.246530294418335
1.568774169921875,1.8045481066696345,2.20421757909134,-17.712641735488177,-0.2996017932891845,0.1472849249839782,-1.3303617238998413
1.578754150390625,1.735056198900938,1.5049629564180969,-16.14224535291195,-0.211109772324562,0.1913655698299408,-1.3506920337677002
1.588734130859375,1.7620552649855612,0.9973073026604948,-14.36470493402481,-0.1264939606189727,0.2344709634780883,-1.290642261505127
1.598713134765625,1.5773684135459365,0.7548308178141713,-12.663713501811026,-0.0745058581233024,0.2061250656843185,-1.1312925815582275
1.608693115234375,1.18441875089854,0.8205831006631255,-11.128611719977854,-0.0724569931626319,0.0616107955574989,-0.880399227142334
1.6186728515625,0.6956714304242283,0.9881899302251635,-9.383747828289868,-0.1180670857429504,-0.1859444081783294,-0.5885199308395386
1.628653076171875,0.3996118239503353,1.0906000649943948,-7.239688219171762,-0.2691930532455444,-0.4652980864048004,-0.3017827570438385
1.63863232421875,0.2445856955526396,0.9995331620164216,-5.550100809025764,-0.5217179656028748,-0.6919403076171875,-0.0534549690783023
1.648612060546875,0.0033634394179563,0.5592891026221215,-4.3190842653423545,-0.766130805015564,-0.715021014213562,0.1615108847618103
1.658592041015625,0.0165018931960687,0.0070214230693876,-2.877951976060867,-0.879173219203949,-0.6751622557640076,0.2892874777317047
1.668572021484375,0.3362202058181166,-0.8088732275165617,-1.0784048925489187,-0.8008122444152832,-0.6625021696090698,0.3104490637779236
1.678551025390625,0.6501473312854766,-1.7650825038522482,1.0231132134377956,-0.5718514919281006,-0.6147562265396118,0.2365548610687255
1.688531005859375,0.8618655436441301,-2.516373749363422,2.876600561451912,-0.2464630603790283,-0.5000036358833313,0.1202826350927352
1.698510986328125,0.8554993696130812,-3.0301565076991914,4.523344855171442,0.123419389128685,-0.4071706235408783,0.0004832601407542
1.708490966796875,0.7196860738705844,-3.261921482786536,5.997905951324105,0.485839307308197,-0.3509745001792907,-0.137772262096405
1.718469970703125,0.7230722091775387,-3.1405835063159464,7.277538934138417,0.7808091640472412,-0.3140407204627991,-0.2883252799510956
1.7284501953125,0.9024854310631752,-3.027106180217862,8.447356620493531,0.9891378283500672,-0.2504807114601135,-0.4324546158313751
1.73843017578125,1.148109858546406,-2.985648965191841,9.6600069018811,1.1000795364379885,-0.1771385818719864,-0.5571291446685791
1.74841015625,1.3903243314556777,-2.967496637907624,10.614412489795685,1.1028428077697754,-0.1221638843417167,-0.6556735634803772
1.75838916015625,1.6264881260238586,-2.858658662047982,11.203305434173345,1.018293023109436,-0.0825882405042648,-0.7094795107841492
1.768369140625,1.7887763909116383,-2.7007956662565467,11.693262203502654,0.8728346228599548,-0.0272433385252952,-0.7121328711509705
1.77834912109375,1.8862495076701045,-2.6054648222237824,12.043133625793455,0.6879611611366272,-0.0076083843596279,-0.6777336001396179
1.7883291015625,1.9495994055524468,-2.4728777219861744,12.131067929834126,0.4875548183917999,0.0026425505056977,-0.6192710995674133
1.79830810546875,1.8364798068508503,-2.26655113953799,12.062993341517448,0.2786830961704254,0.0438421815633773,-0.5376191139221191
1.8082880859375,1.635203055138141,-2.0087145884744824,11.674987711143492,0.0874163806438446,0.0760125741362571,-0.4618532955646515
1.818268310546875,1.512405235248059,-1.876365096385032,11.140869144004585,-0.023333303630352,0.0456107258796691,-0.4084385335445404
1.828248046875,1.3916905052423476,-1.9592735350877049,10.753560263723134,-0.0464403964579105,-0.0305870715528726,-0.368439108133316
1.838227294921875,1.2832177094332873,-2.0925895341217515,10.507356136655806,0.0010275187669321,-0.095037966966629,-0.3485125303268432
1.848207275390625,1.2740125125840305,-2.1595709203742444,10.223940177047252,0.0613742135465145,-0.0872435718774795,-0.3244548141956329
1.85818701171875,1.293901016011089,-2.130213892986625,9.71468658657372,0.1013839542865753,0.1369746029376983,-0.2889503240585327
1.8681669921875,1.2626496993094682,-1.97912623654902,9.26476956668794,0.1306974440813064,0.4933992624282837,-0.2362750917673111
1.87814599609375,1.3874854547679425,-1.7855542139947411,8.782778077149391,0.1865191608667373,0.6807933449745178,-0.2142398357391357
1.8881259765625,1.5105131378911434,-1.8902397463500495,8.727642465382814,0.284806340932846,0.6823316216468811,-0.2517323493957519
1.89810595703125,1.5364540732249616,-2.1224539265096185,9.014553865891694,0.3426512479782104,0.6381101012229919,-0.309486985206604
1.90808642578125,1.4554260414414106,-2.202764457673579,8.747663509148358,0.3058388233184814,0.6482297778129578,-0.334721952676773
1.91806494140625,1.3050542781881986,-2.1439302836500107,7.735531123930215,0.1875111162662506,0.6923930048942566,-0.3251761198043823
1.928045166015625,1.0977018598236143,-2.1464462119936942,6.522405041724444,0.0500294156372547,0.6747229099273682,-0.283752977848053
1.93802490234375,0.894045665628463,-2.404404782001674,5.436887686821818,-0.047062512487173,0.663152277469635,-0.1942475885152816
1.948005126953125,0.7289680622830986,-2.9441590169399974,4.261889382958412,-0.0786128044128418,0.7809295654296875,-0.1098837703466415
1.957984130859375,1.2509627686470746,-3.2883775280356407,3.099797906941175,-0.0409221500158309,0.9614018797874452,-0.0975107252597808
1.9679638671875,1.4497963649913668,-3.426923244416713,1.3141928395420313,0.1264892220497131,1.1365461349487305,-0.1531983315944671
1.977944091796875,0.6916621217176318,-3.140993840682506,-1.2298843247830866,0.3979609310626983,1.3661407232284546,-0.1129475831985473
1.987924072265625,-1.1106490196801722,-1.115820430968702,-4.945206577917933,0.672595739364624,1.276326298713684,0.132102832198143
1.99790283203125,-2.9496497233107686,3.041860681757331,-10.031592727851868,0.9413737058639526,0.5668739080429077,0.5505973100662231
2.007883056640625,-4.511074863924086,6.762946905246377,-13.83351482155323,1.0415645837783811,-0.4127252101898193,1.0341733694076538
2.01786328125,-4.909930097353458,7.437053788790107,-15.089516753411292,0.6683965921401978,-1.2415318489074707,1.378690242767334
2.027843017578125,-3.689027828188241,5.576300833687186,-16.399918968498707,-0.0453298613429069,-1.4964020252227783,1.38288414478302
2.037822265625,-1.4802090389117597,4.306105249042809,-17.70737285517454,-0.6009843349456787,-1.171047329902649,0.98320335149765
2.04780224609375,1.0826439914233985,3.956344009128213,-17.90612666428089,-0.6317603588104248,-0.5312085151672363,0.2407172322273254
2.057781982421875,3.044296968993544,3.2095287399873134,-17.479063281238076,-0.3185565769672394,0.1982969790697097,-0.5209566950798035
2.067761962890625,3.3307620870396493,2.4593732205078003,-17.688497474312783,0.0100133744999766,0.8546553254127502,-1.008010983467102
2.0777412109375,2.070468303206563,2.4662843150705096,-18.12119564837217,0.1655776649713516,1.1393821239471436,-1.1358113288879397
2.087720947265625,0.4917239616649225,3.034610856759548,-18.440457997387647,0.1116857677698135,1.0666509866714478,-0.9816722869873048
2.097700927734375,-0.6090427656220272,3.345490577355027,-18.058268359816072,-0.0606668293476104,0.755581796169281,-0.6404089331626892
2.10768115234375,-1.336621090579778,3.0484786385923623,-16.75159539438486,-0.1950710564851761,0.4015469253063202,-0.2750320434570312
2.11766015625,-1.4847490204289555,2.645210557156801,-14.59378607685566,-0.2014666497707367,0.1647450178861618,0.0357953421771526
2.12764013671875,-1.2493965422436597,2.4187780291385947,-11.961529693818092,-0.1120858117938041,0.0052329711616039,0.2919067144393921
2.1376201171875,-1.116208699633926,2.5283839206308123,-9.273224675822258,-0.0399671420454978,-0.201752170920372,0.5047484040260315
2.14760009765625,-1.0703604100421071,2.9928894378393887,-6.8437716695427895,-0.0638912916183471,-0.4617716372013092,0.6556390523910522
2.1575791015625,-0.9791159585401416,3.168018041208386,-4.551471463981271,-0.1985753327608108,-0.7038300633430481,0.7224524617195129
2.16755908203125,-0.67151876674667,2.783137557117641,-2.183262907737493,-0.3982374966144562,-0.8415753841400146,0.6687911152839661
2.1775390625,-0.0179989816197194,2.0889079229995606,0.2004506761521101,-0.6412192583084106,-0.8349483609199524,0.4830055236816406
2.18751904296875,0.7003759548533708,1.2891184579096733,2.19943896651268,-0.8829572200775146,-0.6644635796546936,0.2105142176151275
2.197497802734375,1.260147068838775,0.3567500758886337,3.929261940935254,-1.060981035232544,-0.3598639667034149,-0.0978630557656288
2.20747802734375,1.467439719840139,-0.717727852474898,5.245096117943525,-1.1163405179977417,-0.0591677986085414,-0.3680888712406158
2.217458251953125,1.2858207315385342,-1.6635830541871488,6.182855106961727,-1.0104765892028809,0.1501382887363433,-0.5453808903694153
2.227438232421875,0.8051883284587412,-2.243670468557626,7.15129038927257,-0.761719286441803,0.2248668372631073,-0.6062129139900208
2.2374169921875,0.2056061957517638,-2.526963532438874,8.080666165348887,-0.4531119167804718,0.1406219899654388,-0.5828463435173035
2.247397216796875,-0.3065125383619219,-2.652353414648771,8.902126925629377,-0.16237473487854,-0.033181644976139,-0.5022107362747192
2.257377197265625,-0.6249670781258493,-2.813048418995738,9.615500236156583,0.060317475348711,-0.2114246040582656,-0.3762315511703491
2.26735693359375,-0.6754413470178842,-2.8544021736472844,10.210000499022009,0.1982902586460113,-0.3480749726295471,-0.2446873933076858
2.277336181640625,-0.5039233718940987,-2.7501035947829484,10.769511866092682,0.2510170936584472,-0.4410368800163269,-0.1214211285114288
2.28731591796875,-0.2080227553742006,-2.634733586806058,11.192467229294776,0.233314111828804,-0.5028823614120483,-0.024884894490242
2.297296142578125,0.0706718748008832,-2.581953598254919,11.560496239566804,0.191508874297142,-0.5409572720527649,0.0463940761983394
2.307276123046875,0.3136135294735431,-2.543890701842308,11.910194643378256,0.129362940788269,-0.5854586958885193,0.1002957746386528
2.317255126953125,0.4851283262595534,-2.482552143782377,11.925792025482654,0.0475042946636676,-0.6207892298698425,0.1317775249481201
2.327235107421875,0.6244356015976518,-2.3551987064145505,11.67177050266266,-0.0621344968676567,-0.5662379860877991,0.1779477149248123
2.337215087890625,0.5747013374179601,-2.2120960573814807,11.2096895822525,-0.1913225799798965,-0.409663051366806,0.2716414630413055
2.34719482421875,0.5149331339472905,-2.0897413050837814,10.582924295598268,-0.2909092009067535,-0.2945497334003448,0.3851975798606872
2.357174072265625,0.4987688021425157,-2.1336654947452245,10.038162753891944,-0.3431598842144012,-0.2187455147504806,0.5022355318069458
2.367154052734375,0.4416148362908512,-2.3178172163948414,9.7248835709393,-0.3419752120971679,-0.1989792436361313,0.5844119787216187
2.3771337890625,0.4769892608044668,-2.5499659301027653,9.376174178165195,-0.3013167083263397,-0.2012479901313781,0.6410478353500366
2.387117919921875,0.4195705065367743,-2.8127403759598733,8.953946544715762,-0.2147765010595321,-0.2135685086250305,0.6481606960296631
2.3970966796875,0.358807081483677,-2.9923379414364693,8.522479958277941,-0.0871138870716095,-0.2032106518745422,0.6001508235931396
2.40707666015625,0.3529490396378562,-3.0157249545037743,8.168760628387332,0.0701187029480934,-0.1832340955734253,0.4923544228076935
2.417056884765625,0.4136357827255502,-2.863684965777397,7.785761427998542,0.242823377251625,-0.1379062980413437,0.3166752755641937
2.42703662109375,0.4907062359897419,-2.693543503171205,7.509492417535186,0.4032696783542633,-0.1154495328664779,0.1043184995651245
2.437015625,0.4672880240665748,-2.535599258837104,7.185181552958488,0.514062762260437,-0.0909692198038101,-0.105632334947586
2.446995849609375,0.3662778192231431,-2.3733570250481364,6.671738109579682,0.5618222951889038,-0.0689643248915672,-0.2978438436985016
2.456975830078125,0.2943723109740763,-2.357032351582497,6.254359669727086,0.5254637598991394,0.005783419124782,-0.4632069766521454
2.466955810546875,0.2105688961930573,-2.5265508599847557,5.715232334515452,0.3898818790912628,0.1704622209072113,-0.6096282601356506
2.476934814453125,0.5075251227131113,-2.7219249635249376,4.882795422190427,0.2180067896842956,0.3900496959686279,-0.8007625341415405
2.486914794921875,0.8782060722660273,-3.223366418942809,3.8594016382455822,0.0549532435834407,0.6963474750518799,-0.9802139401435852
2.496894775390625,0.9197572491858154,-3.705667120561003,2.0273376020103693,-0.1225179433822631,0.9851649403572084,-1.087764024734497
2.506874755859375,0.2103625782323069,-3.803130884969234,-1.054741108366847,-0.2906519770622253,1.1517198085784912,-0.9919861555099488
2.516853759765625,-1.0290152770884335,-3.2990283936485647,-4.848766311338544,-0.3461538553237915,1.0285826921463013,-0.6487259864807129
2.526833740234375,-2.1747112063609064,-1.904125502230972,-8.64383430136144,-0.2410346418619156,0.55024254322052,-0.0835299342870712
2.53681396484375,-3.263072114126384,0.1232642683580517,-12.412464950835703,0.0200214497745037,-0.1610060334205627,0.6058114767074585
2.546793701171875,-3.7830215783983463,2.178141034679115,-15.506252803707122,0.3434233069419861,-0.8696750402450562,1.244262933731079
2.55677294921875,-3.465269341684878,3.1750293812751766,-16.906669051718712,0.6054046154022217,-1.3431140184402466,1.6459506750106812
2.5667529296875,-2.243999700511992,2.965423338764906,-17.157805374491215,0.708014965057373,-1.4461032152175903,1.7249380350112915
2.576732666015625,-0.5699383242672309,2.915179590693116,-17.250066309559344,0.7143468856811523,-1.1665754318237305,1.5145362615585327
2.586712646484375,0.8634013749092817,3.321494200217724,-17.08742660088539,0.7297469973564148,-0.6621370911598206,1.1130532026290894
2.59669189453125,1.7857560201771556,3.3502681670203804,-16.123229686796666,0.6859894394874573,-0.1035830304026603,0.7404242157936096
2.606671630859375,1.74846162391901,3.0632810709267853,-15.438507885736229,0.5204358696937561,0.3867714405059814,0.5378339886665344
2.616651611328125,0.9582388824671506,3.137421827414632,-15.411317096471786,0.2414769679307937,0.6481471061706543,0.529499888420105
2.626632080078125,-0.0838114519570022,3.705346802565455,-15.554668751829862,-0.1260334104299545,0.5814842581748962,0.6651739478111267
2.636610595703125,-1.1332456130221484,4.219939415979385,-15.78212843093872,-0.4805371463298797,0.2823289930820465,0.8210396766662598
2.6465908203125,-1.813797581052035,4.05658279120773,-15.59275502911806,-0.6429513692855835,-0.0188260897994041,0.8945909142494202
2.656571044921875,-1.931410399519652,3.387501626871526,-14.545525611555576,-0.5989122986793518,-0.1766788363456726,0.841701090335846
2.66655078125,-1.5947199458412824,2.9433301649004218,-13.087407700681686,-0.4312849342823028,-0.1913205832242965,0.6561331748962402
2.67652978515625,-1.122211593310535,2.809300464639068,-11.502754829216002,-0.266220360994339,-0.1142031624913215,0.3700716197490692
2.686509521484375,-0.7502381562616676,2.724042978592217,-9.841865105766058,-0.1382685005664825,-0.0274160429835319,0.0461233891546726
2.69648974609375,-0.6568159953944385,2.559697635044157,-8.037639509049058,-0.0172227714210748,0.0128512196242809,-0.2525474727153778
2.7064697265625,-0.5980503565624355,2.3671017640456555,-5.882903023093938,0.1104321256279945,0.0213151592761278,-0.5115918517112732
2.716448486328125,-0.4440149197025224,2.095279065466672,-3.508914129883051,0.2233541458845138,0.0021539833396673,-0.7419201135635376
2.7264287109375,-0.1653518171768635,1.607363008184731,-1.1290174739331007,0.3336224257946014,-0.0379820987582206,-0.942022740840912
2.736408935546875,0.2909894636027514,0.9681040775950998,1.2139800686866045,0.4260471761226654,-0.0262071974575519,-1.0965800285339355
2.746388916015625,0.7421893629059195,0.3268490047521889,3.3705846866011617,0.4729216396808624,0.0318896546959877,-1.1813747882843018
2.756367919921875,1.02515187965855,-0.2180044530212879,5.097556363245845,0.4544544816017151,0.0756083726882934,-1.1776751279830933
2.766347900390625,1.0647194815456866,-0.6207528214316814,6.459989794343709,0.3766438066959381,0.102691113948822,-1.0892319679260254
2.77632763671875,0.8580141289129852,-0.9901763548020271,7.66991211207211,0.264315664768219,0.0745364427566528,-0.940480887889862
2.7863076171875,0.6720318308353423,-1.2942334628358485,8.666949219489098,0.150474265217781,0.0322585329413414,-0.7725209593772888
2.796286865234375,0.5355274110235273,-1.4571145790502429,9.484626954099536,0.0549464039504528,-0.0078571960330009,-0.6097733378410339
2.8062666015625,0.5864450397688895,-1.4672808760166167,10.094173979449272,0.0109405126422643,-0.0639839470386505,-0.4784788787364959
2.81624658203125,0.7776096358552574,-1.470412598171085,10.6144569134593,0.009332763031125,-0.0941690132021904,-0.3937618434429168
2.826226806640625,1.0775338088028132,-1.4785907900601625,11.08409920903444,0.0351318717002868,-0.070668451488018,-0.3300513923168182
2.836205810546875,1.3050392267495392,-1.4711457347512245,11.396383535730838,0.0725863054394722,-0.0333434492349624,-0.2962667942047119
2.846185791015625,1.512384484720975,-1.4011068606242536,11.504053636854886,0.0977070927619934,-8.7656080722e-06,-0.2616609334945678
2.856165771484375,1.661734942102432,-1.3210362756960092,11.56385840947628,0.1005971580743789,0.0507481545209884,-0.2193094789981842
2.866145751953125,1.7243083026543258,-1.280503628169,11.591019972646237,0.0634260922670364,0.1127926036715507,-0.1661386638879776
2.876124755859375,1.6715774139419195,-1.243412791658938,11.413263358861208,-0.0222813542932271,0.1489085257053375,-0.0848041325807571
2.886104736328125,1.5139944041356443,-1.2394463722459972,11.13900685726404,-0.1179405897855758,0.156372994184494,-0.0008042518165893
2.896084716796875,1.4358023264303803,-1.3181436229944228,10.925217976111172,-0.1960079669952392,0.1789459437131881,0.0873104259371757
2.906064697265625,1.318831312997639,-1.4836007271766662,10.673742630642652,-0.2330097407102584,0.1887104362249374,0.1866911649703979
2.916043701171875,1.1308847291097044,-1.6306415924414992,10.395696089112755,-0.2293732017278671,0.1553759127855301,0.2898748219013214
2.926023681640625,0.9173034262929112,-1.7029767608121036,10.126339049994945,-0.2004218995571136,0.0835295766592025,0.3886941969394684
2.93600390625,0.6773140090219676,-1.7753307800136506,9.799892342433331,-0.1733181029558181,0.0232188291847705,0.4767255187034607
2.94598388671875,0.5617396375793964,-1.8433154980897903,9.519538693004844,-0.1502679884433746,0.0012814970687031,0.5464332103729248
2.955962646484375,0.5333711828377098,-1.9542608214922248,9.31607772912085,-0.1268729269504547,0.0067843860015273,0.5869947671890259
2.96594287109375,0.5039024021713063,-2.083613469853252,9.194469119015336,-0.0934198871254921,0.049139566719532,0.5936534404754639
2.9759228515625,0.4552267436664551,-2.218857075949013,8.947756457903981,-0.0121775018051266,0.0748180374503135,0.5649171471595764
2.985902587890625,0.3996332685971632,-2.3641414529353377,8.807859326913952,0.0983753725886344,0.0857568904757499,0.4944860339164734
2.9958818359375,0.3194115482278168,-2.451900984930992,8.776879082238674,0.2206496298313141,0.1041271090507507,0.3921034634113312
3.00586181640625,0.2286833574186079,-2.529275608773529,8.693391820734739,0.3153248131275177,0.1256616562604904,0.2783422470092773
3.015841796875,0.1214587715723551,-2.65027690063566,8.489354518267511,0.3774108290672302,0.1933634728193283,0.1683643460273742
3.02582177734375,-0.0082451927106827,-2.8221912181332707,8.118765302118659,0.3787442743778229,0.2956125140190124,0.1001638695597648
3.03580078125,-0.2095809446016326,-2.960007451196015,6.975746775361896,0.271634578704834,0.419260174036026,0.1279608905315399
3.04578076171875,-0.6075522713359445,-3.03052271066308,5.020588858899474,0.0414314866065979,0.6432932019233704,0.2470316886901855
3.0557607421875,-1.0265566318899393,-3.072479984165728,2.522735101088881,-0.3030739426612854,0.9401163458824158,0.4243838191032409
3.06574072265625,-1.6203877633221446,-3.007445494197309,-0.9073761257141828,-0.7882218360900879,1.3745148181915283,0.7081426978111267
3.0757197265625,-2.647166075138748,-1.987981889308244,-5.822905942770839,-1.3000431060791016,1.4504700899124146,0.987396478652954
3.08569970703125,-3.4149612962052225,0.2322221442703157,-11.945340775561332,-1.457797884941101,0.9176857471466064,1.1434992551803589
3.095679443359375,-3.589330897900462,2.8351401315554976,-16.646735674506424,-0.9966078996658324,0.0502883307635784,1.1120119094848633
3.105659912109375,-2.767467402037978,4.844025838813185,-18.389243358457087,-0.3825154304504394,-0.657118558883667,0.9183081388473512
3.115638916015625,-1.2993645421139894,5.188643578359485,-19.765584318876265,-0.0576697066426277,-0.8184861540794373,0.5379607677459717
3.12561865234375,0.610172902163118,4.668805173246562,-21.36390097403526,0.0148326363414525,-0.5713170170783997,-0.0839662104845047
3.135598876953125,2.760351432552933,4.834013855625689,-21.858602892065047,0.156353011727333,-0.1433888375759124,-0.772819995880127
3.145578857421875,4.065994762675464,4.837380409449339,-20.651499723410605,0.3793771266937256,0.3386750221252441,-1.2919085025787354
3.1555576171875,4.381344322161376,4.158038547861576,-19.20573509815335,0.5063156485557556,0.6432245373725891,-1.551798939704895
3.165537841796875,3.9854479385375976,3.325382732088864,-18.30704672128558,0.4532408714294433,0.7331863045692444,-1.522194504737854
3.175517822265625,2.925510430571437,2.987476765140891,-17.93149023811817,0.2865512073040008,0.6188592314720154,-1.2527955770492554
3.18549755859375,1.6622854155920446,3.0468913694009183,-17.662612506949902,0.1682655066251754,0.3271565735340118,-0.881260097026825
3.195476806640625,0.7890102969221771,3.013995354232192,-16.58796199849844,0.1865249425172805,-0.0151317883282899,-0.5426279902458191
3.20545703125,0.5582673948915675,2.5638696600317954,-14.651508782505989,0.3342350423336029,-0.300908088684082,-0.3072814047336578
3.215436767578125,0.6235397487364709,2.1203461405754087,-12.121857033896443,0.5085437297821045,-0.4084388017654419,-0.1658563613891601
3.225416748046875,0.8512279759041964,2.377806113411486,-9.82171663622856,0.605224072933197,-0.4202512800693512,-0.0860734656453132
3.23539599609375,1.1882738919567315,2.614102594448626,-7.672570517626404,0.5703215003013611,-0.4370337128639221,-0.0548774637281894
3.245375732421875,1.3055658809721469,2.4108486974440515,-5.411821050104499,0.392665684223175,-0.4186933040618896,-0.0051149586215615
3.255355712890625,1.1353613630671051,2.1926759021185336,-3.4521979709267616,0.1274276226758957,-0.3769594430923462,0.0162957906723022
3.265335693359375,1.126204827665165,1.6743253974758088,-1.6420996827840804,-0.1399348378181457,-0.3496084213256836,-0.0130912782624363
3.275314697265625,1.271134765190631,0.6939362771946936,0.3849836522042751,-0.3266304135322571,-0.2468461096286773,-0.0890203937888145
3.285294677734375,1.3860581984438,-0.3351237158183008,2.46982768676579,-0.4512242674827575,-0.0887343436479568,-0.2141575813293457
3.29527490234375,1.553516559445858,-1.0307012574139982,4.022620023590326,-0.5334680080413818,0.0878196507692337,-0.3634767532348633
3.305254638671875,1.6259556265823545,-1.5128072401776909,5.086422974812984,-0.5654608607292175,0.2354686111211776,-0.5233966112136841
3.31523388671875,1.469526609116793,-1.956694039988517,5.816960770630836,-0.5054377317428589,0.3312260508537292,-0.6561203002929688
3.3252138671875,1.1213951623611151,-2.2703619299978017,6.476484417548775,-0.3253170251846313,0.3418788909912109,-0.7685338258743286
3.335193603515625,0.7866659988183528,-2.395974807308614,7.055749117359518,-0.0143602294847369,0.32558673620224,-0.8292267322540283
3.345173828125,0.4389502932567149,-2.4172042039506136,7.858155048558116,0.3504351377487182,0.3090413808822632,-0.8404627442359924
3.355152587890625,0.3137462890077382,-2.25183156318143,8.620748609328269,0.7074865102767944,0.2411281019449234,-0.8204783797264099
3.365132568359375,0.323919125312753,-2.10614196639508,9.480637007680537,1.0112971067428589,0.1278825253248214,-0.777534008026123
3.37511279296875,0.3224172328498214,-2.0197201127439737,10.49047397543788,1.2396104335784912,-0.0233663730323314,-0.6806489825248718
3.385093017578125,0.1691131242054514,-1.902015524339676,11.48463114350438,1.4005775451660156,-0.1954576820135116,-0.5160617828369141
3.39506787109375,-0.0714435989588964,-1.539271760994196,12.41619887666702,1.4769189357757568,-0.4163272082805633,-0.3023114502429962
3.405048095703125,-0.22864494337067,-0.9445224918037652,13.057908049952983,1.4395930767059326,-0.6592748761177063,-0.0604736916720867
3.415028076171875,-0.2752424438945949,-0.3440713577099144,13.374725928425788,1.2678459882736206,-0.7936034202575684,0.1940163820981979
3.425008056640625,-0.3268557998191565,0.1734983352860435,13.416542624413966,0.9493688941001892,-0.7501896619796753,0.4319990873336792
3.43498779296875,-0.1298047303769271,0.650412558092922,13.158279810762403,0.5446775555610657,-0.6796733736991882,0.5951454043388367
3.444967041015625,0.2109349164938554,0.761316453506425,13.02852296551466,0.131998062133789,-0.6330634951591492,0.662226140499115
3.45494677734375,0.4336336282785981,0.572672498471476,13.00707568833828,-0.2719752490520477,-0.6049700975418091,0.6440460681915283
3.4649267578125,0.572880040274933,0.3416624699372798,12.66340955042839,-0.6292295455932617,-0.5578122735023499,0.5693448185920715
3.474906982421875,0.6277198109000921,0.1477771253838203,12.066138069283962,-0.9005225896835327,-0.3674497604370117,0.4859923720359802
3.484885986328125,0.5519087465798482,0.0079818655993789,11.494897685974836,-1.078553557395935,-0.11451306194067,0.3831352591514587
3.494865966796875,0.5139050695411861,-0.2306153666608035,10.865520755517482,-1.1652040481567385,0.1416185796260833,0.2570396661758423
3.504845947265625,0.4055811076182872,-0.7026355703484266,10.403802238678932,-1.1663861274719238,0.3887487351894378,0.0940740555524826
3.514825927734375,0.31788218323607,-1.2114249043110756,9.896053792071342,-1.1128911972045898,0.7166429758071899,-0.0620226003229618
3.524804931640625,-0.0047524734904058,-1.653645597540587,9.26095030066073,-1.039879560470581,1.0502440929412842,-0.178471177816391
3.534784912109375,-0.3095566552981734,-1.9512562328487637,8.31173702069223,-0.94023334980011,1.2506543397903442,-0.2725297808647156
3.544764892578125,-0.7137255580309778,-2.30878737611249,7.637742365351319,-0.7932180762290955,1.2116819620132446,-0.3415298163890838
3.554744873046875,-1.0651430407200009,-2.426572190146148,6.829105430808663,-0.6489629149436951,0.962981343269348,-0.39938884973526
3.564723876953125,-1.527481808348745,-2.1729759070009,5.686025529253483,-0.5890758037567139,0.7442744970321655,-0.4577575325965881
3.5747041015625,-1.589036931768805,-1.5868468743786217,4.187410188296437,-0.6717824339866638,0.6821631789207458,-0.5720697641372681
3.58468408203125,-1.4026326088868082,-1.087784642247483,2.181421079263091,-0.8566021919250488,0.7940585017204285,-0.7559288740158081
3.5946640625,-1.0807650458090006,-0.6254974586755037,-0.2401180851519107,-1.0387184619903564,1.0036489963531494,-1.030005693435669
3.60464306640625,-0.8056915287405252,0.1642960975788533,-3.02403334864378,-1.1442842483520508,1.0643211603164673,-1.3494430780410769
3.614623046875,-0.5347993890099227,1.728848430301994,-6.30082974447906,-1.1115039587020874,0.968788206577301,-1.5798403024673462
3.62460302734375,-0.2465479720689356,3.502618829131126,-9.318962344646453,-0.9748062491416932,0.8280161619186401,-1.639329433441162
3.634582763671875,0.363150298319757,4.6253868872806425,-11.71053950151801,-0.8557512760162354,0.6917296648025513,-1.5044817924499512
3.64456201171875,0.7899979197200387,4.447919904091954,-13.60956344282627,-0.9415535926818848,0.6827534437179565,-1.167272686958313
3.6545419921875,0.6867359173618257,3.6116970434874296,-16.002811163258553,-1.1625813245773315,0.641772449016571,-0.7237954139709473
3.66452197265625,0.2848835479430854,3.2731007561877368,-18.58474371872544,-1.189191460609436,0.4430391788482666,-0.2228173017501831
3.674501953125,-0.2718381884090602,3.453239004412293,-20.285645134568213,-0.8510280251502991,0.0240160971879959,0.3120130896568298
3.684481201171875,-0.668385071830824,3.58196767565608,-21.114356888890264,-0.2793930470943451,-0.4380307197570801,0.830136775970459
3.6944609375,-0.6407600558675826,3.552110297530889,-21.247010624623297,0.2493634819984436,-0.762457549571991,1.1740342378616333
3.70444091796875,-0.0552859800226986,3.6311914330303674,-20.97958952200413,0.5707390308380127,-0.8837799429893494,1.287015676498413
3.714421142578125,0.5951406065955758,3.9503503216713662,-20.26240454423428,0.7355535626411438,-0.8441470265388489,1.1705764532089231
3.72439990234375,1.1076638663895428,4.415002553874254,-18.80881317087412,0.8084825873374939,-0.6483674049377441,0.8922914266586304
3.7343798828125,1.4429706106245517,4.884488489843904,-16.986741536343096,0.7794751524925232,-0.3553416132926941,0.5023386478424072
3.744360107421875,1.66595825888589,5.013894914218783,-15.137380912870167,0.6845055818557739,-0.0847832858562469,0.057277288287878
3.754340087890625,1.7027143104836344,4.564777520278096,-13.068455162930489,0.5597578287124634,0.1717507541179657,-0.3574823439121246
3.764319091796875,1.4004934049010276,4.005524804143607,-10.952067404592036,0.4753555953502655,0.3693482875823974,-0.6263836026191711
3.774298828125,0.8111099005274475,3.362339713086188,-8.648867619353533,0.4355546534061432,0.4005714356899261,-0.6984521746635437
3.784279052734375,-0.0125398211646825,2.604987560100853,-6.236756208497286,0.4025435149669647,0.2260482758283615,-0.592437744140625
3.794259033203125,-0.8349017680685966,1.8765284702531992,-3.883010477370024,0.3474770784378052,-0.0740462988615036,-0.3719299435615539
3.80423779296875,-1.2924682067289948,1.0506468247905374,-1.618162926879525,0.2607854008674621,-0.3998501300811767,-0.1493341922760009
3.814218017578125,-1.213165099041909,0.1374227037005126,0.5091232420921326,0.1703521907329559,-0.603217363357544,-5.6925200624e-06
3.824197998046875,-0.7324531279198825,-0.716970604366809,2.5447698227643967,0.1097869277000427,-0.6579378247261047,0.0453773327171802
3.834177734375,-0.1310123617341742,-1.4403750411733984,4.329423873049021,0.092772789299488,-0.6326808929443359,-0.0122803710401058
3.844156982421875,0.3916351459827273,-1.9725369212865829,5.800685927656293,0.1279540359973907,-0.5391150712966919,-0.1324228346347808
3.85413720703125,0.6465925614133476,-2.3675986076518893,6.925132440412044,0.2130596190690994,-0.3453298509120941,-0.2618330121040344
3.864116943359375,0.7206467355962842,-2.539891403073072,7.823131665971875,0.3426991105079651,-0.1567861288785934,-0.3943594098091125
3.874096923828125,0.8255387503091245,-2.5486133464500305,8.642385856118798,0.4944708049297333,-0.050724945962429,-0.5108487010002136
3.884076171875,0.8158181512836367,-2.5812381434619427,9.367150913754106,0.6055359244346619,-0.0085518602281808,-0.5740171074867249
3.894055908203125,0.7143908170066774,-2.5533231315761804,9.795042564314604,0.6644927263259888,-0.0020750518888235,-0.567717432975769
3.904035888671875,0.6283326090361923,-2.4714970812827346,10.111784454941748,0.6711701154708862,-0.0200933068990707,-0.4915283918380737
3.914015869140625,0.6077336557848378,-2.4260803149759766,10.490839886140822,0.6401224732398987,-0.0226177163422107,-0.3481728434562683
3.923994873046875,0.5837210216324776,-2.494122170066833,10.829763213437795,0.5809892416000366,-0.020024761557579,-0.1438411623239517
3.933974853515625,0.4394574390612542,-2.5701471328660843,11.054145969319343,0.5011298656463623,0.0144261559471488,0.1148777529597282
3.943955078125,0.1258531158074736,-2.522887953563034,11.184414855742451,0.418071448802948,0.0002824487164616,0.3984315395355224
3.95393505859375,-0.2299353850400075,-2.3432649613842367,11.14343051892519,0.3463274836540222,-0.089990459382534,0.6521602272987366
3.9639150390625,-0.4912214555028826,-2.120799145039916,11.054843888455627,0.2572118937969208,-0.20516899228096,0.8350503444671631
3.97389404296875,-0.6128437288075685,-1.992651342424005,10.80778635942936,0.1621285229921341,-0.2798693180084228,0.9415589570999146
3.9838740234375,-0.6445370901882648,-1.9713415740221736,10.541196446937322,0.097193643450737,-0.3333524465560913,0.9501022696495056
3.99385302734375,-0.6252552474174649,-1.964733554059267,10.35370988177657,0.0811843127012252,-0.3739438056945801,0.8639364838600159
4.0038330078125,-0.5627830091524869,-1.9734289016902449,10.21956093904972,0.0917370915412902,-0.3628193438053131,0.7008816599845886
4.01381201171875,-0.5305068063825369,-2.020210526609421,10.019207878053187,0.1179748252034187,-0.2522464990615845,0.4831048846244812
4.0237919921875,-0.3838672153949737,-2.07049168408215,9.81603274537325,0.1912979483604431,-0.0944296047091484,0.2082433402538299
4.033771728515625,-0.0853068324807565,-2.203256771235168,9.880872589552402,0.3249460160732269,0.1030930578708648,-0.1221612021327018
4.043751708984375,0.3412051911564543,-2.370552781282365,10.16368298448324,0.481320708990097,0.3614014089107513,-0.4627443253993988
4.05373095703125,0.7152515254892409,-2.514016664843261,10.436969179743528,0.5934224724769592,0.6266698241233826,-0.7937589883804321
4.0637109375,1.0223840223804117,-2.598735221707821,10.3771153072834,0.6289440393447876,0.7955665588378906,-1.124983787536621
4.07369091796875,1.487433437207341,-2.7758167127102613,10.200662177312374,0.5854796767234802,0.9876247048377992,-1.4487065076828003
4.083671142578125,1.8322652578957377,-3.1162250178679822,9.897985052394866,0.4711667001247406,1.2643345594406128,-1.7320204973220823
4.09364990234375,2.0222177747786043,-3.397032256282866,9.180394416433572,0.3491281569004059,1.541681170463562,-1.9918304681777956
4.1036298828125,2.019116886153817,-3.514797634963691,7.969542708900571,0.2828091382980346,1.789846897125244,-2.1571080684661865
4.113610107421875,1.6257567430093884,-3.570791324864328,6.356958458936214,0.2477483451366424,1.8667230606079104,-2.110922574996948
4.12358984375,0.7668295178394764,-3.6395556490108367,3.684399876126647,0.1929359585046768,1.736811637878418,-1.7282183170318604
4.13356884765625,-0.3763503369588404,-3.634039808198809,0.147879946437478,0.1083907261490821,1.3702802658081057,-1.0114879608154297
4.143549072265625,-1.556171311738342,-2.845499320745468,-3.837470961466432,-0.0012092707911506,0.8150250315666199,-0.0768447592854499
4.153529052734375,-2.359914336759597,-0.8346715395092964,-8.393760639384388,-0.0911660566926002,0.0279399938881397,0.949057400226593
4.163509033203125,-3.152496062427759,1.352262604086846,-12.868081059145927,-0.0016154150944203,-0.8818832635879517,1.873495101928711
4.173488037109375,-3.3373736141338943,2.8246470868527886,-15.673330202567575,0.1942646205425262,-1.6542034149169922,2.5145583152771
4.183468017578125,-2.547003865426779,3.900168532919884,-17.87006283273101,0.2805333733558655,-2.064727067947388,2.716778516769409
4.193447998046875,-1.2245881911363452,5.272435375767946,-20.235009172308445,0.2776867151260376,-2.146251916885376,2.2896924018859863
4.203427978515625,0.7482729206033051,6.404088458901644,-21.388348017549514,0.2969952523708343,-1.8062195777893064,1.310712218284607
4.213406982421875,2.898843957442045,7.023634315696358,-21.27758813371658,0.3653780519962311,-1.0698832273483276,0.0091430777683854
4.223386962890625,4.667463403248787,7.608343836909532,-20.620152983510494,0.4240008890628814,-0.1835390776395797,-1.2791218757629397
4.233366943359375,5.398517331895232,7.60747231477201,-19.67126119058132,0.3703437745571136,0.6770462393760681,-2.1925153732299805
4.243346923828125,4.685981933496892,6.920704102575779,-18.689046973764896,0.1567765474319458,1.3546987771987915,-2.5428168773651123
4.253326171875,3.039806671836972,6.032161856669188,-17.859097202080488,-0.1472800076007843,1.5384923219680786,-2.391876459121704
4.26330615234375,1.3219067749202251,5.275453846806287,-16.920131759881972,-0.4124878942966461,1.193558692932129,-1.8730413913726809
4.273285888671875,-0.10070325778611,4.417945329327881,-15.30168183275461,-0.5951679348945618,0.5828362703323364,-1.1407272815704346
4.283265869140625,-0.8011135533004998,3.573524256959557,-13.296362585806843,-0.6962489485740662,-0.0154970772564411,-0.3870086073875427
4.293244873046875,-0.6949341291256248,2.787350498637557,-11.169048944306374,-0.7844060063362122,-0.4521955549716949,0.2617891132831573
4.303224853515625,-0.105228772386536,2.1101395115986463,-9.107894997411966,-0.8704663515090942,-0.6843514442443848,0.7333176136016846
4.313204833984375,0.4964602329391986,1.486191620452702,-6.912789091667532,-0.958044171333313,-0.7730890512466431,1.0296398401260376
4.32318505859375,0.9719146488592028,0.9082646720517428,-4.672926344829797,-1.0134059190750122,-0.7631034851074219,1.1843763589859009
4.3331650390625,1.2340621949896216,0.259738950618729,-2.2432506357103583,-1.0040470361709597,-0.6839045286178589,1.2158043384552002
4.34314404296875,1.3993226075559857,-0.5696848974954336,0.2478448800116777,-0.9370341897010804,-0.5805002450942993,1.123600721359253
4.353124267578125,1.4992721974305807,-1.431068429776281,2.420775778827071,-0.796600341796875,-0.4537228643894195,0.9785577654838562
4.36310400390625,1.2211267255708576,-2.3298881779387592,4.045146912696957,-0.5693838596343994,-0.3188825845718384,0.846649169921875
4.373083984375,0.6502540065303445,-2.9444650141492485,5.460992200508714,-0.2576797604560852,-0.2912035584449768,0.7193048000335693
4.38306298828125,0.0703811116933822,-3.0779847190618512,6.5318105834513895,0.0789852514863014,-0.3522078096866607,0.6164485216140747
4.39304296875,-0.3573274008525535,-3.040685208237171,7.527438993114233,0.3708392083644867,-0.4376220405101776,0.5264917612075806
4.40302294921875,-0.5285499001611024,-3.042413639464974,8.49416864055097,0.5775745511054993,-0.4985010623931885,0.4459294378757477
4.4130029296875,-0.4778460602968931,-3.081029785846173,9.416181194382906,0.6876749396324158,-0.5068883895874023,0.345551460981369
4.42298193359375,-0.3185781661435961,-2.934562336555123,10.214030192929506,0.6974733471870422,-0.4171650409698486,0.2075730264186859
4.432962158203125,0.0331702837991528,-2.5386446178823707,10.839497840988637,0.6363426446914673,-0.2977156043052673,0.0405486188828945
4.44294189453125,0.4580431162614375,-2.19373593256548,11.294320168572664,0.5267106890678406,-0.1350846588611602,-0.145105242729187
4.452921875,0.7622513962689786,-1.998399822948128,11.535165398955344,0.3935489654541015,0.0200545955449342,-0.310942143201828
4.462901123046875,0.8514223294325173,-1.8501111495792864,11.471033995306492,0.2463648319244384,0.1396385133266449,-0.417193740606308
4.472880859375,0.7000140627384185,-1.7264263177216053,11.360444791865348,0.0977396741509437,0.1624415665864944,-0.4515503644943237
4.48286083984375,0.3703958124686032,-1.6039438473910093,11.154178707432749,-0.049329750239849,0.097896933555603,-0.4190724790096283
4.492841064453125,0.0654115248535759,-1.4424039166525005,10.877336280995609,-0.1754599809646606,0.014959443360567,-0.3468848466873169
4.50281982421875,-0.0988055161396972,-1.3122633327841755,10.565700773596763,-0.2593627870082855,-0.0588628128170967,-0.233178436756134
4.5127998046875,-0.2385955334934406,-1.2488269256621598,10.41668977730274,-0.3136268258094787,-0.1329631358385086,-0.1420482695102691
4.522780029296875,-0.0535803999475203,-1.1396797377228736,10.29294883134365,-0.4004176557064056,-0.2791796028614044,-0.105188563466072
4.532760009765625,0.2388435899703763,-1.2649243662431835,9.69183879494965,-0.5450747013092041,-0.4039305746555328,-0.1148869916796684
4.542739013671875,0.311429390367493,-1.640188296204805,9.14268866289556,-0.6723594665527344,-0.3499199450016022,-0.1423661410808563
4.552718994140625,0.3121257386012002,-2.089366772682965,9.274123670488596,-0.7587460279464722,-0.0972994118928909,-0.1689815074205398
4.562698974609375,0.0564670612997375,-2.3473741502687333,9.365831647849085,-0.7235379219055176,0.1777448207139969,-0.182380273938179
4.572678955078125,-0.3675906919199973,-2.553647541224956,9.23631094944477,-0.5199136734008789,0.3069842755794525,-0.2018783390522003
4.582658935546875,-0.7083927456356585,-2.5181512804299597,9.107839467832443,-0.2053202241659164,0.3194453418254852,-0.2588506042957306
4.592637939453125,-0.770133235559985,-2.1499349308922886,8.83220232553184,0.0713315978646278,0.2765910923480987,-0.3776736557483673
4.602617919921875,-0.583422769338265,-1.7219103016018866,8.242669914206862,0.2521085739135742,0.2551659643650055,-0.5235235095024109
4.61259814453125,-0.4083049796242267,-1.6837299162894486,7.788976298391819,0.3273955285549164,0.2352499365806579,-0.6387845277786255
4.622577880859375,-0.4491562646463513,-1.9731326952226456,7.045853746289015,0.335783839225769,0.2690862715244293,-0.7114884257316589
4.63255712890625,-0.4221108021367341,-2.013516143537313,6.4731859605252735,0.3464857637882232,0.3761498630046844,-0.7659492492675781
4.6425380859375,-0.072717263023369,-1.8063073714271187,5.92158025201261,0.3105589151382446,0.6024007797241211,-0.816356360912323
4.652516845703125,0.2171737012855708,-1.658338139270991,4.614833636823296,0.1787372380495071,1.0383743047714231,-0.8326325416564941
4.662496826171875,0.4299321068795397,-1.450070651888102,2.4451988569438456,-0.0628344640135765,1.4789890050888062,-0.7993907928466797
4.67247705078125,0.258674974649027,-1.2384174675896764,-0.8983867635726929,-0.3813141584396362,1.7469751834869385,-0.6950451731681824
4.682456787109375,-0.0954716407429426,-0.307342632510513,-4.898105219525099,-0.7317240238189697,1.7007089853286743,-0.4851514101028442
4.692435791015625,-0.7627250781953334,1.5313881681375203,-9.609248774546383,-0.8792274594306946,1.2534701824188232,-0.1902835369110107
4.702416259765625,-1.0071524779137224,3.4231431413561104,-13.473945012068748,-0.6381977200508118,0.6841586828231812,0.0987130627036094
4.71239599609375,-0.7757640810538083,4.075706301611661,-14.972926848250626,-0.0710804983973503,0.1135274022817611,0.3723643124103546
4.7223759765625,-0.2985565378561616,3.5809205046907064,-15.918062503516673,0.5786149501800537,-0.1940295100212097,0.6636992692947388
4.732355224609375,0.4634839921411126,4.079371546120941,-16.684010635411738,0.927746832370758,-0.3745726346969604,0.8777215480804443
4.7423349609375,1.8426055962547656,5.579413997271657,-17.872212704241274,0.7935773730278015,-0.3959271907806396,1.050233006477356
4.75231494140625,2.5915540780320763,6.403781000387668,-18.46721857854128,0.1650130748748779,-0.3763889074325561,1.2600733041763306
4.762294921875,2.5481468979820607,5.710420550319552,-18.93266634503603,-0.7235758304595947,-0.4065735936164856,1.5187280178070068
4.77227392578125,1.9635870143726464,4.054946422177553,-19.613933621728417,-1.4216804504394531,-0.478159099817276,1.721259832382202
4.78225390625,1.4666216814555226,2.7773008137881754,-19.65663879098892,-1.5730587244033811,-0.5783618092536926,1.7617107629776
4.792234130859375,1.285281510095298,2.29004585076347,-18.52891954017281,-1.320106029510498,-0.687724232673645,1.5941060781478882
4.8022138671875,1.324297761709988,1.899076986669749,-17.587762140887975,-0.8596410155296326,-0.6138946413993835,1.201547622680664
4.812193115234375,1.4749655853003265,1.0356688897587358,-16.271499509334564,-0.3148602247238159,-0.3283829987049103,0.6476105451583862
4.822173095703125,1.8568872195854784,0.2671110137566924,-14.24187467316985,0.1551920473575592,-8.97906720638e-05,0.1110372468829155
4.83215283203125,1.8049920510448516,-0.0809345082812011,-12.257800458824631,0.4051531553268432,0.2349160611629486,-0.2838656008243561
4.842133056640625,1.1792317036494613,-0.0204097508221864,-10.567073230993747,0.4648536741733551,0.2493253499269485,-0.4782838821411133
4.85211181640625,0.1455645821671932,0.0645752018935978,-8.694125980228185,0.469414621591568,0.0090850424021482,-0.4926830530166626
4.862091796875,-0.7518782516188919,0.021480156532675,-6.263725463965534,0.5140344500541687,-0.331424355506897,-0.4294618964195251
4.872072021484375,-1.0138022181265056,-0.1578258786514401,-3.4460675053477283,0.5916410684585571,-0.6012675762176514,-0.3646732866764068
4.88205224609375,-0.8113691359855234,-0.5589959648944437,-0.7345394326746464,0.6878454685211182,-0.7531766295433044,-0.3657630383968353
4.89203076171875,-0.3061380790263414,-0.9385786348380148,1.717508267250657,0.7752602696418762,-0.8024355173110962,-0.4446951448917389
4.902010986328125,0.2025742441773414,-1.1832291027225554,3.926665494701266,0.854878306388855,-0.7771403789520264,-0.5620914697647095
4.9119912109375,0.4398353324629366,-1.346556647530198,5.7723985753268,0.8970379829406738,-0.6063480973243713,-0.6323230266571045
4.921970947265625,0.3337629853917285,-1.2919690250352025,7.308297060495614,0.91986483335495,-0.3851959705352783,-0.6467096209526062
4.931949951171875,0.3077241791740059,-1.0703324260566385,8.594315360432862,0.931726336479187,-0.2551881968975067,-0.623574435710907
4.941929931640625,0.267380186086893,-0.920050679174438,9.738796945479512,0.9452296495437622,-0.188984528183937,-0.5380035042762756
4.951909912109375,0.1331644982667639,-0.9203654442120344,10.842492931151387,0.960318088531494,-0.1634109914302826,-0.3675369322299957
4.961889892578125,-0.1590771938867866,-0.8190529684863984,11.747044062572716,0.9425451159477234,-0.2094680666923523,-0.1303248554468155
4.971869873046875,-0.5057947552565485,-0.4160590278171002,12.236203544044496,0.8598342537879944,-0.2963912487030029,0.1495051831007003
4.981848876953125,-0.6548990558572113,0.0466668029004707,12.461135750502349,0.6941935420036316,-0.404596745967865,0.4243833124637604
4.9918291015625,-0.6265108735017478,0.2365562279518693,12.576055092102289,0.4515777230262756,-0.4899161458015442,0.6650313138961792
5.00180908203125,-0.5659127585455775,0.1846439621459692,12.682067489147183,0.1486817747354507,-0.5164647698402405,0.8608465790748596
5.011788818359375,-0.5099438377600163,-0.0133556493259035,12.575054390627145,-0.1603570282459259,-0.5111715197563171,0.992916464805603
5.02176806640625,-0.4503779519284144,-0.1097686443058773,12.321091319996118,-0.4106327295303345,-0.5265478491783142,1.0677446126937866
5.031747802734375,-0.4921483610894531,-0.1629733245424926,11.981908464980124,-0.5499330759048462,-0.5492222905158997,1.068166732788086
5.041727783203125,-0.4575623104745522,-0.2648457357058301,11.585308024740218,-0.5988394021987915,-0.5224421620368958,1.0093674659729004
5.0517080078125,-0.386210819379054,-0.4713063563298433,11.18837674511075,-0.5784332156181335,-0.4521142244338989,0.8771665692329407
5.061686767578125,-0.2392812507352791,-0.7641827296577394,10.740566342115402,-0.5263878703117371,-0.3620877563953399,0.6987454295158386
5.071666748046875,-0.1671419154640287,-1.0340925803527234,10.289177496111392,-0.457663893699646,-0.2573469579219818,0.5247610807418823
5.081647216796875,-0.1851487333303317,-1.1986333003424108,9.790379248678684,-0.3953539133071899,-0.196968600153923,0.3725889325141907
5.091626953125,-0.2523093486072495,-1.371948862940073,9.275541136071086,-0.3135746419429779,-0.2121763229370117,0.255329966545105
5.10160595703125,-0.3364374287653714,-1.714611230634898,8.95340995362103,-0.2094823122024536,-0.2449527233839035,0.1759442090988159
5.111586181640625,-0.3298006210993975,-1.968652334938198,8.77584155588448,-0.0936976596713066,-0.244317814707756,0.1287314146757125
5.12156591796875,-0.2561313911134377,-2.059121272023022,8.619400701850653,0.0313760079443454,-0.2283370047807693,0.0938669890165329
5.1315458984375,-0.112356030450575,-2.134321328305453,8.52274182408452,0.1493492573499679,-0.2059427499771118,0.0667687952518463
5.141525146484375,-0.0430710799634456,-2.2023753122255205,8.309522851774096,0.2585026323795318,-0.1831430792808532,0.0661917999386787
5.1515048828125,-0.0135760871435515,-2.170751801210642,7.953838943812251,0.3541178405284881,-0.2064931392669677,0.0523966252803802
5.16148486328125,0.2048550485908985,-2.0577913385935127,7.41964555787146,0.423414021730423,-0.2069631069898605,0.0212027002125978
5.171465087890625,0.4167203412700444,-2.116490341930091,6.829886352053284,0.4315854012966156,-0.1563595831394195,-0.0133622027933597
5.18144482421875,0.6632029199525713,-2.274974392229318,5.724743090182543,0.3842189311981201,-0.0054917740635573,-0.085924819111824
5.191424072265625,0.9177972011592238,-2.497858141724765,4.349705613577366,0.3140782117843628,0.259063184261322,-0.1846868246793747
5.201404052734375,0.9677678313780576,-2.7240938319966195,2.593246561163664,0.200771614909172,0.5948411226272583,-0.245474636554718
5.2113837890625,0.4051702617950737,-2.7002234193265435,-0.196743053805828,0.0762081071734428,0.8617998361587524,-0.2371836900711059
5.221364013671875,-0.3591202390860766,-2.046113029628992,-3.585128770035505,-0.0646296143531799,0.9532493948936462,-0.170440062880516
5.231343017578125,-1.033589160875231,-0.2629775672137737,-8.140403717952966,-0.3040898740291595,0.8555049896240234,-0.0097342636436223
5.24132275390625,-1.8914456150084733,3.1509181455865503,-14.71698692458868,-0.4046719670295715,0.6121430993080139,0.1929869353771209
5.251302978515625,-2.539302497269213,6.750660839647054,-19.50488404894471,-0.1379113644361496,0.0439217314124107,0.261018693447113
5.261283203125,-1.8758290898121888,7.6081579589486115,-20.03726307893991,0.2380769848823547,-0.3561801612377167,0.2028797566890716
5.271261962890625,-0.5958498508434742,6.456977168524265,-19.53158150173425,0.2411316335201263,-0.3322559297084808,0.0648220255970954
5.281241943359375,0.7457569191943854,5.5053650107204914,-20.248605151462552,-0.0130583886057138,-0.1557807326316833,-0.1231947317719459
5.29122216796875,1.49829458457008,4.323521955528855,-20.525687231874464,-0.2102734595537185,-0.0444366261363029,-0.2667119801044464
5.301201904296875,1.5552534662410615,3.063172057594359,-19.79962219755649,-0.3248268365859985,0.0162334572523832,-0.3004251420497894
5.311180908203125,1.2247516380697487,2.985105944356322,-20.024777691376208,-0.3901935815811157,0.0088410545140504,-0.2397828251123428
5.3211611328125,0.8725353331532328,3.696697924424708,-20.50977420794964,-0.4180264770984649,-0.0268944948911666,-0.1384135782718658
5.331140869140625,0.7643056984502822,3.985232249960303,-19.87887635153532,-0.477200835943222,-0.0356754697859287,-0.0474655665457248
5.341120849609375,0.9914441097155212,3.2657340268120167,-18.317794909793136,-0.5633479952812195,-0.0342393293976783,-0.0135654211044311
5.351099853515625,1.3068899691827591,1.852937020654976,-16.259042178821563,-0.606202244758606,0.0482430271804332,-0.0299760866910219
5.361080078125,1.4706759252823889,0.8035407073821872,-14.069909502267835,-0.5776765942573547,0.2011023014783859,-0.0737464055418968
5.37106005859375,1.5098592040270566,0.3878340001340955,-11.92268470711708,-0.5182103514671326,0.3366540074348449,-0.1169966757297515
5.3810400390625,1.3410367150649427,0.1690698147866874,-9.733761873921752,-0.4597815573215484,0.4186945855617523,-0.0992138385772705
5.39101904296875,0.957237815665826,-0.0243885182600468,-7.33070295357108,-0.3911412358283996,0.4216272532939911,-0.0385153405368328
5.4009990234375,0.6114003250662237,-0.1062815693750977,-4.658867424339055,-0.3126950860023498,0.3093951940536499,0.0052465796470642
5.410978759765625,0.4706279090790077,-0.1718682863987982,-2.0532477038145065,-0.2314132750034332,0.1018539667129516,0.0159841794520616
5.420958740234375,0.4255623308300971,-0.4913351450104266,0.3455219949096441,-0.1355987638235092,-0.0736709088087081,-0.0215583741664886
5.430939208984375,0.5870209764933213,-1.141582210343331,2.767794149774313,-0.0361480824649333,-0.1733618080615997,-0.0902407690882682
5.44091796875,0.7707383618462831,-1.856609863948822,4.889250297418236,0.0442261174321174,-0.2181364744901657,-0.1660191416740417
5.45089794921875,0.82391524076052,-2.444679509244859,6.526976587423682,0.0884625613689422,-0.2296999245882034,-0.2270127236843109
5.460878173828125,0.7061964046351611,-2.80825124784708,7.766793108156323,0.088567666709423,-0.0937617570161819,-0.2201217859983444
5.470858154296875,0.2205786691571585,-2.9623724267616867,8.665883051562309,0.0775568261742591,0.0918808132410049,-0.1536239832639694
5.4808369140625,-0.0824699742201715,-2.9308132131546736,9.4527430385828,0.1188403517007827,0.1471125781536102,-0.0995028093457222
5.490817138671875,-0.2888262942194938,-2.9397376933664083,10.388414115411043,0.2173091322183609,0.1025815904140472,-0.0802510827779769
5.500796875,-0.5427804508917033,-2.8694994972750543,11.155938118320703,0.3400055766105652,0.0272675734013319,-0.0899401307106018
5.51077685546875,-0.6852283623430877,-2.5368387375041843,11.627623902422188,0.4630217850208282,-0.0514248386025428,-0.1316601634025573
5.520756103515625,-0.6243241040471941,-2.0358779052101075,11.995281156772377,0.5603563785552979,-0.1243412420153617,-0.1851013898849487
5.530736083984375,-0.5883251909596845,-1.613746279481053,12.335230904507636,0.6117556691169739,-0.1962769478559494,-0.224303126335144
5.540716064453125,-0.4737512652639299,-1.1912114797785878,12.747486009997129,0.5639420747756958,-0.249609038233757,-0.228043258190155
5.550696044921875,-0.3514680803650989,-0.8790057712763547,12.927463806962969,0.4114223122596741,-0.2811280786991119,-0.1933894008398056
5.560675048828125,-0.304840020306129,-0.6949984995987266,12.894419615495204,0.1828131228685379,-0.3123363256454468,-0.1124165058135986
5.570655029296875,-0.3563649490285664,-0.662182490863651,12.748140674513577,-0.0698116794228553,-0.3786865770816803,0.0034895939752459
5.580635009765625,-0.3983577322360128,-0.7798133564446121,12.50516544636488,-0.3090130686759949,-0.4988539814949035,0.1141681000590324
5.59061474609375,-0.2817814537419006,-0.9237256413601338,11.973028408432006,-0.506771445274353,-0.5103335380554199,0.211303174495697
5.600593994140625,-0.2370373990649357,-1.0314166391417383,11.311157906126976,-0.6670421957969666,-0.3233761191368103,0.2766962051391601
5.610573974609375,0.1188803359190933,-1.1005004775661975,10.66967903446555,-0.7544205188751221,-0.0696684569120407,0.2652257084846496
5.620553955078125,0.5616536397963762,-1.550697556502372,10.228463207429646,-0.7610561847686768,0.139233186841011,0.1970291137695312
5.6305341796875,0.8361642622850834,-2.1169299023911354,9.928971726810932,-0.7196711897850037,0.2189202904701233,0.1005015149712562
5.64051416015625,0.8207941130653024,-2.619068984684348,9.44496597484052,-0.6621342301368713,0.202101394534111,0.0462356247007846
5.650492919921875,0.4168033068457618,-3.065966949009895,8.856673334443569,-0.5924877524375916,0.1263182163238525,0.0528514496982097
5.660472900390625,0.0737948747927788,-3.353076210178435,8.283108307579159,-0.5146470069885254,-0.0270536020398139,0.091383084654808
5.670453125,-0.2297158970704302,-3.569082767380774,7.5951599456876515,-0.4235666394233703,-0.1786857396364212,0.1577527970075607
5.680432861328125,-0.4933222637070342,-3.558713641318678,7.018590476310253,-0.3050268590450287,-0.2587475180625915,0.212224930524826
5.690411865234375,-0.3245852610712871,-3.2673341554850337,6.667884356760978,-0.1587066650390625,-0.181810662150383,0.2141993939876556
5.70039208984375,0.0129327112060971,-2.892993770109117,6.512910068148374,-0.0466332174837589,-0.02293361723423,0.1512324064970016
5.7103720703125,0.6533426201954483,-2.558859138393402,6.281100961658359,-0.0019632163457572,0.1279400587081909,0.0047561656683683
5.72035205078125,1.1482828770257532,-2.4110141171388326,6.122749305567145,0.0022853291593492,0.274813711643219,-0.2055201828479766
5.730331298828125,1.430803641360253,-2.6347528760284185,5.994155658879876,0.0145076401531696,0.5129282474517822,-0.356982946395874
5.74031103515625,1.457280291005969,-2.881411176604032,5.097611892825364,-0.0120965428650379,0.9793784022331238,-0.4077217876911163
5.750291015625,1.455298615669459,-2.5920500448554757,2.674700271013379,-0.0832221135497093,1.4405237436294556,-0.4075478911399841
5.76027099609375,1.3714046730607747,-2.083705970442295,-0.9569453355252742,-0.2393136322498321,1.801398515701294,-0.3638953864574432
5.77025,0.7386940681360662,-0.926530908039212,-5.426846769800782,-0.5039008259773254,1.7692700624465942,-0.178970530629158
5.78022998046875,-0.2827196113748476,1.6529539620146154,-11.37855094192028,-0.8396394848823547,1.1262978315353394,0.1663416773080825
5.7902099609375,-1.0816490621019157,5.119729616609216,-17.454214086663722,-1.1458780765533447,-7.52182677388e-05,0.6252908706665039
5.80018994140625,-1.500384104195237,6.898382965174317,-21.675930449187756,-1.3068053722381592,-0.9226475954055786,1.1428523063659668
5.810170166015625,-1.404924811477214,6.276482654207944,-23.658256943082808,-1.1266403198242188,-1.3283169269561768,1.6206929683685305
5.820149169921875,-0.5104787483543157,4.702812949049473,-23.16442479362488,-0.6734244227409363,-1.4131149053573608,1.912564754486084
5.83012890625,0.3804293499007821,4.119883296990395,-22.493066332006453,-0.2108916938304901,-1.0510119199752808,1.9785616397857664
5.840109130859375,1.0262179014548658,4.475874663466215,-21.28564752153158,0.0182001981884241,-0.9848070740699768,1.7694389820098877
5.850089111328125,1.8779317611798645,4.752630580663681,-20.92467719759941,-0.3021684885025024,-0.9803355932235718,1.368952751159668
5.86006787109375,2.0657024039790035,5.841960771852731,-21.12528978631496,-0.826712429523468,-0.6952504515647888,0.8901837468147278
5.870048095703125,2.148658919607102,6.325432855337858,-18.760426448845863,-1.001630187034607,0.2378117740154266,0.445670485496521
5.880028076171875,2.266067009282857,5.344146859282255,-13.947681298959257,-0.660298764705658,1.440962791442871,0.0188271310180425
5.890008056640625,2.672320097878575,4.171685964941978,-10.362845958912372,-0.1043092906475067,2.452224969863892,-0.2910982370376587
5.899987060546875,2.425069968889653,3.1029250990509984,-8.885544039618969,0.3735877871513366,2.927921295166016,-0.353013277053833
5.90996728515625,1.37652815355435,2.449070291549712,-8.933728517073392,0.6342231035232544,2.7522075176239014,-0.0874452516436576
5.919947021484375,-0.574476004229486,1.656785356871039,-9.609528760531544,0.8296663165092468,1.96600878238678,0.5046268105506897
5.929927001953125,-2.904850504380464,1.2986299442291258,-8.437572893103956,1.0235761404037476,0.8180122971534729,1.1694144010543823
5.939906005859375,-3.9572108550906178,1.078170060879737,-5.761237714365125,1.15094256401062,-0.0409323200583457,1.6532535552978516
5.949885986328125,-3.3921915382534262,0.4704891216628253,-2.452379123836756,1.1205918788909912,-0.3175899982452392,1.897285342216492
5.959865966796875,-2.5125427928984165,0.4065018026597797,0.5362970802217721,1.0333869457244873,-0.2436316460371017,1.8709863424301147
5.969845703125,-2.120472689564526,1.550254342779517,3.4867473062604666,0.8896992206573486,-0.1344372481107711,1.614240050315857
5.979824951171875,-2.248796141008288,2.6352286768466238,5.813370052662491,0.6582033038139343,-0.1000774130225181,1.193243145942688
5.98980517578125,-2.4250091786131263,2.777881828546524,7.4825892130404705,0.3338156640529632,-0.2218134403228759,0.772451639175415
5.999784912109375,-2.923730269156396,2.4666823744773865,7.732243188300728,-0.009982974268496,-0.4955120384693146,0.524254560470581
6.00976513671875,-3.198751617646217,1.62759068043828,7.477600318711995,-0.2791555821895599,-0.8728689551353455,0.4281946122646332
6.0197451171875,-3.0496590805485844,0.5404620909467339,7.985537565889954,-0.4400054514408111,-1.184614181518555,0.4502217471599579
6.029723876953125,-2.6463842771112915,-0.1241891281180083,9.064273297828436,-0.5317891836166382,-1.3124756813049316,0.5078256726264954
6.039703857421875,-1.8415990495607253,-0.7452486043460667,9.716975574293732,-0.6130519509315491,-1.2900686264038086,0.5366963744163513
6.04968408203125,-1.1701877617765215,-1.1637538562715053,9.620210898065569,-0.6646714210510254,-1.1482348442077637,0.5401023030281067
6.059663818359375,-0.6334346814155578,-1.6193403000958262,9.739580789333582,-0.6309894323348999,-1.0260604619979858,0.4993674755096435
6.069642822265625,-0.3799258573580533,-2.1631613460816443,9.931889660084249,-0.4824308454990387,-0.9987350702285768,0.3810714781284332
6.079623291015625,-0.3081189141126349,-2.6691300696656106,10.0359719658494,-0.2316240072250366,-0.9873329401016236,0.2062734812498092
6.08960302734375,-0.378449026271142,-3.015159429575503,10.13388172045946,0.0785503610968589,-0.986707329750061,-0.0065375859849154
6.0995830078125,-0.4454682603159919,-3.0167911224305626,10.096203439450264,0.3761435151100158,-1.0935494899749756,-0.2275902777910232
6.109562255859375,-0.5800359033789485,-2.998569821563363,9.716172441217305,0.6040464639663696,-1.2485651969909668,-0.3762508332729339
6.1195419921875,-0.856601412570849,-2.8739868718221784,9.250520092061162,0.7207018733024597,-1.3386945724487305,-0.4485242366790771
6.12952197265625,-0.7191674568239599,-2.702701792138815,9.100700701993704,0.6911333203315735,-1.2321665287017822,-0.522571325302124
6.139501953125,0.0308386899132747,-2.632837397795916,8.899851966434717,0.5426951050758362,-0.962019979953766,-0.6998135447502136
6.14948095703125,1.0871335579276085,-2.635152689000964,8.245604798614979,0.3758352994918823,-0.6568864583969116,-0.9697616696357728
6.1594609375,1.794246785146743,-2.8544349068731067,7.638537315121293,0.2595570683479309,-0.3069493472576141,-1.28243887424469
6.169441162109375,2.22166526523754,-2.92658536632657,7.627298128226399,0.2391604483127594,0.060852363705635,-1.5945972204208374
6.1794208984375,2.348115616285801,-2.7881027783095838,7.681320225793123,0.3048073649406433,0.3437241911888122,-1.8333669900894165
6.189401123046875,2.0865743654854594,-2.760342956985533,7.761476297047734,0.4189214408397674,0.4808245003223419,-1.9329838752746584
6.199380126953125,1.5522874560423194,-2.8129350217491385,7.68104725407064,0.5418827533721924,0.482304036617279,-1.891834020614624
6.20935986328125,1.1553201552513983,-2.9485084443211558,7.524553793066739,0.6112847328186035,0.4162014424800873,-1.7705813646316528
6.219340087890625,1.0033389109749349,-2.9237393292456866,7.188264321404695,0.6222779750823975,0.3708608746528625,-1.6340526342391968
6.229320068359375,0.8192173652678728,-2.572911044621468,6.566214372834563,0.5783818960189819,0.3221684098243713,-1.5242550373077393
6.239298828125,0.6299154212482273,-2.548618022625148,5.567209180215001,0.5462762713432312,0.0839546620845794,-1.419135332107544
6.249279052734375,0.0693490652319043,-2.964770720075071,4.525428091186285,0.6320931911468506,-0.0550761893391609,-1.27535080909729
6.25925927734375,-0.0863778318462893,-2.834837056955695,3.652727557533979,0.8669306635856628,0.0675432458519935,-1.2048451900482178
6.269239013671875,0.6127983552958816,-2.6643554026097056,2.797169297340512,1.2288661003112793,0.2996973991394043,-1.2046585083007812
6.279218017578125,0.9616776247441768,-2.93923938845545,1.7807973748564718,1.604758620262146,0.4774714112281799,-1.2517035007476809
6.2891982421875,0.9167647163063288,-2.762202905638516,-0.04084346704185,1.7634321451187134,0.7190715074539185,-1.3779823780059814
6.299177978515625,0.765089907630533,-1.65924020267725,-3.019392829361558,1.6099014282226562,1.0194518566131592,-1.5548735857009888
6.309157958984375,0.3058338719153776,0.2177866455521434,-7.470515913408994,1.2836331129074097,1.21755051612854,-1.6766698360443115
6.31913720703125,-0.5574444246035068,2.8651410098046064,-11.577364372259378,1.030004382133484,0.9665653109550476,-1.6591308116912842
6.329116943359375,-1.3328418643020092,4.925262691041827,-13.410896142959594,0.928374409675598,0.4355871975421905,-1.499679684638977
6.339096923828125,-1.3267550917342303,5.011560918313265,-12.807042945337296,0.8627984523773193,0.0069000907242298,-1.1866679191589355
6.3490771484375,-0.6946965209774673,4.160621550092101,-11.85459141409993,0.7019144892692566,-0.1715743094682693,-0.7687516212463379
6.359055908203125,-0.0444165032230317,3.778101073130965,-11.725511445200445,0.4089846611022949,-0.1531254053115844,-0.2963153421878814
6.3690361328125,0.4712411090739071,3.726784142869711,-12.097725632202623,-0.0023927795700728,-0.1055842489004135,0.242654412984848
6.37901611328125,0.4098131191648542,3.028719460633397,-12.884402079349757,-0.5112704634666443,-0.1382617652416229,0.8831079602241516
6.38899609375,-0.3004944288498722,2.113171426640451,-14.078137232387066,-1.0850107669830322,-0.4019594490528106,1.537537693977356
6.39897998046875,-0.9083052232578396,1.90219438803792,-15.536575461256502,-1.6045361757278442,-0.8445313572883606,2.008002758026123
6.408958740234375,-1.2166230574760586,1.8355065779045223,-17.480249860674142,-1.856600642204285,-1.239450216293335,2.232665061950684
6.418938720703125,-1.619182771446556,1.1268968285173178,-18.754501734972,-1.6913652420043943,-1.4994350671768188,2.135727643966675
6.4289189453125,-1.2809827899880706,0.7875153821893036,-17.823481114298104,-1.2730345726013184,-1.4890010356903076,1.655598521232605
6.438898681640625,-0.3916234190123155,1.1584686093449592,-15.2296757502079,-0.9120272397994996,-1.1199018955230713,0.921306848526001
6.448877685546875,0.8598809456981718,1.4942366874814033,-12.50417409723997,-0.6807122826576233,-0.465473473072052,0.1715830564498901
6.45885791015625,1.6089005930155516,1.139177341158688,-9.841195243680476,-0.5026769638061523,0.1949498206377029,-0.3725655078887939
6.468837646484375,1.52636274119094,0.4813210794636979,-7.76847711572051,-0.3604345321655273,0.7446614503860474,-0.6308282613754272
6.478817626953125,1.0696760810397563,-0.1322613388819619,-6.104575935494899,-0.2506173253059387,1.1393059492111206,-0.6761232614517212
6.488796630859375,0.7663447299972176,-0.4608836369169876,-4.516673706844449,-0.2236903607845306,1.5135467052459717,-0.5896615982055664
6.49877685546875,0.8454434011533856,-0.7591804643910378,-2.47447112865746,-0.2925670742988586,1.939706802368164,-0.4489764273166656
6.5087568359375,1.0643301169019193,-1.2664859164714812,-0.0890180076241493,-0.5509656667709351,2.414450168609619,-0.2501480281352997
6.51873681640625,0.8095655936948954,-1.357409465456009,1.1485253074795008,-0.7005605697631836,2.741575241088867,-0.0683520808815956
6.5287158203125,0.504744150225073,-1.1984688304957,3.079999566015601,-0.6887297034263611,2.634715795516968,0.1938640922307968
6.53869580078125,-0.6111136170793324,-1.2781228705123069,3.1263088972479105,-0.5661177635192871,2.39496111869812,0.5595313310623169
6.548675537109375,-2.2229570586137477,-1.3113390575461088,3.7296938928365706,-0.2420725673437118,2.082869052886963,0.9093205332756042
6.558655517578125,-3.3854104998111723,-1.2492261541128158,6.412157783588767,0.1494854241609573,1.7304368019104004,1.0875706672668457
6.568634765625,-3.998098745796084,-0.7353411044463515,9.0432088824898,0.5188784003257751,1.4451192617416382,1.0557276010513306
6.578614501953125,-3.765883396592736,-0.2393554302163422,11.108361543631553,0.6424127221107483,1.3219493627548218,0.8796781897544861
6.5885947265625,-3.385415468247235,-0.1191132861584425,11.715123322176932,0.5281879305839539,1.606369137763977,0.5921912789344788
6.598574951171875,-2.715644860342145,-0.0844152996016666,12.079276952320336,0.2356530725955963,2.120021343231201,0.2133072912693023
6.608554931640625,-2.015957545340061,-0.1600027112338692,11.624629981303212,-0.1141475364565849,2.550090074539185,-0.1789997816085815
6.61853369140625,-1.8442124469295145,-0.1994705060083419,10.869910514909028,-0.4747101664543152,2.802406072616577,-0.4696494042873382
6.628513671875,-2.257548917914927,-0.4428909206412732,9.500138411486148,-0.7944580912590027,2.456568479537964,-0.6037039160728455
6.63849365234375,-3.3899212552338835,-1.1142600497841837,7.414434545224904,-0.979422688484192,1.2738600969314575,-0.3834111094474792
6.6484736328125,-5.416607699859142,-2.399639759556949,6.038275955635309,-0.9611377120018004,0.0496118813753128,0.1949643492698669
6.65845263671875,-7.003325687161087,-3.6932770100653167,7.645459807860851,-0.7254835963249207,-0.7239413857460022,0.866936206817627
6.6684326171875,-7.409681797739863,-3.777935653436184,10.012104768049715,-0.3006026446819305,-1.2181596755981443,1.3564163446426392
6.678412841796875,-6.252226164829731,-2.902898785790801,10.902351479786631,0.1817339211702346,-1.6897460222244265,1.53972327709198
6.688392822265625,-4.600115083380043,-2.0896227932706477,10.471848769944906,0.4920840561389923,-1.854622840881348,1.5041898488998413
6.698371826171875,-3.172779264260828,-1.701507857303321,9.585307342466711,0.5682278871536255,-1.7554398775100708,1.303870677947998
6.708351806640625,-1.8475417374826968,-1.6782307343512772,8.757110551929474,0.5527333617210388,-1.5814869403839111,0.9401044249534608
6.718331787109375,-0.7584713662736118,-1.3841829060912132,8.380193886324763,0.5451178550720215,-1.2600045204162598,0.4610736072063446
6.7283115234375,0.0172683840565383,-0.8165151936370879,8.524056998336315,0.5718778371810913,-0.9193726181983948,-0.0572012402117252
6.738290771484375,0.6965864263772964,-0.4887670480880886,8.502523796442151,0.5749557018280029,-0.5837470293045044,-0.504458487033844
6.748270751953125,1.1684582345701753,-0.6469951508648694,8.170251743727922,0.5097543001174927,-0.3885501027107239,-0.7325766086578369
6.75825048828125,1.0489046572983265,-1.1135634458221495,7.547754635912179,0.3386050164699554,-0.3023949265480041,-0.7185330986976624
6.768230712890625,0.7344530695654451,-1.5425833697602152,6.612785569873452,0.084374338388443,-0.2303407192230224,-0.4930400848388672
6.7782109375,0.6981465153008699,-1.987376178500056,5.241704721939564,-0.0569590032100677,-0.1873140782117843,-0.1427792459726333
6.788189697265625,0.9431501805372536,-2.49438929657042,4.47586531111598,0.0081949662417173,0.1370706558227539,0.157475933432579
6.798169677734375,1.366724260159582,-2.088312587454915,4.357466895228624,0.2525604963302612,0.4421641230583191,0.2920620143413543
6.80814990234375,1.9680342030398543,-1.5487920151419936,3.577445229795575,0.4850701689720154,0.6860747337341309,0.3673522472381592
6.818129638671875,1.962527276186645,-1.4342285012423992,1.505156725424528,0.5190224051475525,0.7371125221252441,0.5209627151489258
6.828108642578125,1.28474638030529,-1.300586777385324,-2.5184452949404714,0.4095198512077331,0.3784380257129669,0.6931096911430359
6.8380888671875,0.5923001224726439,-0.1230187143654562,-7.688252655404805,0.1765471994876861,-0.0978508666157722,0.7147859334945679
6.848068603515625,0.5547150727048515,2.5163676118835805,-12.148453948920965,-0.1131056472659111,-0.4227969944477081,0.3945029973983764
6.858048828125,2.0491823540717364,3.563435116882622,-13.940534934335949,-0.2819391191005707,-0.4700691699981689,-0.2074701935052871
6.86802783203125,4.399888571372628,1.596803327986598,-13.263276308763029,-0.2430441826581955,0.0925308093428611,-0.8518438339233398
6.8780078125,6.223392284533381,-0.2699990633483975,-12.50117199281454,0.052216924726963,1.1160486936569214,-1.4528141021728516
6.88798779296875,7.406285141038894,-0.483882965840958,-12.1494324385643,0.5477691292762756,2.1174795627593994,-1.8489409685134888
6.8979677734375,7.598236284393072,-0.1278017839235253,-12.273593071240184,1.0340735912322998,2.670417547225952,-1.8853837251663208
6.90794677734375,6.498218694972992,0.1660367307011038,-12.885359526205065,1.24986732006073,2.7712206840515137,-1.5996453762054443
6.9179267578125,4.865673022475838,0.7503210853047668,-13.572445133787392,1.1381744146347046,2.5293209552764893,-1.1603317260742188
6.92790673828125,3.769609723639488,1.1544914493422955,-13.8886621237576,0.7896153330802917,2.200533390045166,-0.6844480633735657
6.937886474609375,3.447171374936401,0.8574874746903777,-13.572237043994663,0.4085975885391235,1.93911874294281,-0.2465378791093826
6.947866943359375,3.765650172358751,0.2416475414752028,-13.029773842358589,0.1898727118968963,1.8930295705795288,0.1181772425770759
6.957845703125,4.425998871923983,-0.3493118156466633,-12.2994534886837,0.213643193244934,2.2375497817993164,0.293148785829544
6.96782568359375,5.327659834861755,-0.7820715106349438,-11.2835100207448,0.4687705636024475,2.8252482414245605,0.1799282431602478
6.977805908203125,5.998099428069591,-0.4415705222250893,-9.883479557180404,0.7975879311561584,3.2666540145874023,-0.1889040470123291
6.987785888671875,5.654247412198782,0.4008754872106015,-8.319606438893079,0.967161238193512,3.7135510444641113,-0.6759088635444641
6.9977646484375,4.457108295936882,1.040280402142182,-7.316092828938364,0.8586788177490234,3.905174493789673,-1.149915337562561
7.00774462890625,3.2442256670981644,0.998924090207368,-7.017399220699072,0.5389308929443359,3.6865737438201904,-1.4979223012924194
7.017724853515625,1.949859810054302,0.4946265877712518,-6.028473523545265,0.1838307082653045,2.702110528945923,-1.597606539726257
7.02770458984375,1.2665601507514714,0.1131686346082482,-4.195486527246237,-0.0845946222543716,1.3643088340759275,-1.2760004997253418
7.03768359375,-0.1679524281293153,0.7656384083587676,-1.952441058719158,-0.24019256234169,0.5430427193641663,-0.7073508501052856
7.047663818359375,-2.4388491956561804,-0.6697218733925372,0.1136778171062469,-0.2508127391338348,0.18768410384655,0.0016604207921773
7.057643798828125,-2.8111200812816617,-2.137546573962271,2.083672068172693,-0.1322966367006302,-0.1901803612709045,0.7030208706855774
7.067623779296875,-2.362762565797567,-1.7579061824820934,3.1741648734003305,0.0409742146730423,-0.7782215476036072,1.2324665784835815
7.077602783203125,-1.7757874377399685,-1.2274680574215948,3.333521322619915,0.2197324186563491,-1.504397749900818,1.5811972618103027
7.087582763671875,-2.9730127709805965,-1.010575438099727,3.8815930117875337,0.3907361328601837,-2.363933563232422,1.80647087097168
7.097562744140625,-1.951723265838623,-0.2671075796905904,4.490590002039075,0.4270476996898651,-2.50005841255188,1.8584452867507932
7.10754248046875,-0.8591910637378692,-0.0339786227736622,6.68914341788888,0.3920641541481018,-2.329333782196045,1.816993236541748
7.117522705078125,-1.112968548668921,-0.5035780655877664,7.2656281315922735,0.2836457192897796,-2.128380298614502,1.7516415119171145
7.127501708984375,-1.2382915031224488,-0.6470804910607636,6.952164824244379,0.137451484799385,-2.008107185363769,1.6384941339492798
7.137481689453125,-1.2349074136421083,-0.3099756113626062,6.4035156274497504,-0.0565670765936374,-2.03134560585022,1.4585962295532229
7.147461669921875,-0.8603066237643361,-0.036843656815961,5.520169781142473,-0.3538948893547058,-2.01569938659668,1.2358819246292114
7.15744189453125,-0.5707789032772184,-0.2346660302910953,4.752267008048296,-0.7557666301727295,-1.7025054693222046,1.0388795137405396
7.167420654296875,-0.7774415858119725,-0.9183366417981684,4.6800861534565685,-1.1775615215301514,-0.9188039898872375,0.9633026719093324
7.177400634765625,-1.6321230631709098,-1.6853732995823023,5.499329822209477,-1.562956929206848,-0.1505013406276703,1.0158761739730835
7.187380859375,-2.9660397170975803,-1.897106709510088,6.211733410921693,-1.8096492290496824,0.2944705188274383,1.131214261054993
7.197360595703125,-3.443894252961874,-1.1373558248199522,6.309108328002691,-1.8822824954986568,0.4470120966434479,1.2567187547683716
7.207339599609375,-3.31296807167381,-0.2442130628479644,6.3414259587615724,-1.7908329963684082,0.3116180598735809,1.295840620994568
7.21731982421875,-3.079825086231529,0.4419860076908022,6.699239279967546,-1.6247612237930298,0.0791988000273704,1.230015516281128
7.2272998046875,-2.9955548576563595,0.681403689488396,7.512981428694725,-1.46342933177948,-0.0662470757961273,1.2246215343475342
7.23727978515625,-3.6072917942658074,0.3424360115930437,8.152569372043013,-1.3181787729263306,-0.089769147336483,1.3041092157363892
7.2472587890625,-3.912780761733651,-0.023543534786289,8.299750230300425,-1.1783998012542725,0.0278325825929641,1.3998267650604248
7.25723876953125,-3.549270397929847,-0.407245277970843,8.299824464580416,-1.011846899986267,0.2409814149141311,1.5193150043487549
7.26721875,-3.167842976902425,-0.858394944924116,8.43879922002852,-0.7519088387489319,0.50456702709198,1.6331899166107178
7.27719873046875,-2.559211605092883,-1.1573424548592417,8.261717144504189,-0.3206056356430053,0.5740355849266052,1.7983348369598389
7.287178466796875,-1.6171362141802903,-1.7293378212541342,7.04923695898652,0.2436092644929886,0.1477977186441421,2.042635679244995
7.29715771484375,-0.5292401474475861,-2.264642821698636,5.086657952612638,0.7407428026199341,-0.1559821367263794,2.2424333095550537
7.3071376953125,0.2090399330601096,-1.9491643751360477,4.522590821933746,1.2170735597610474,-0.0725604742765426,2.374252319335937
7.31711767578125,0.1752776564508676,-1.1628618758678435,5.681643953168392,1.6721121072769165,0.3419474065303802,2.47379732131958
7.327097900390625,-0.2787406612738967,-0.1379039844114333,6.792310946896672,2.1162171363830566,0.8224535584449768,2.579089879989624
7.337076904296875,-0.6911383901044726,0.8273688883457332,6.6696320772111415,2.563251495361328,1.0998224020004272,2.597740888595581
7.347056640625,-0.7930255239129066,1.6906689217723905,5.403595658072829,2.917886257171631,0.8876537680625916,2.422339916229248
7.357036865234375,-0.3251896932378411,1.852085664522648,3.08432853513062,2.328962564468384,-0.7568195462226868,1.4641404151916504
7.367016845703125,3.863289293333888,1.9717798193089664,-3.6386207062482834,1.168018102645874,-2.2378129959106445,0.3019939064979553
7.37699560546875,4.266190879544616,1.0540158628322185,-3.5599949133008715,0.2827646434307098,-2.8512184619903564,-0.280432254076004
7.3869755859375,-0.9445017412766814,0.7361946525357663,0.8006558726608752,-0.4084146022796631,-3.265577554702759,-0.5294197201728821
7.396951416015625,-2.031179956652224,1.1087589681498706,0.7935732209235429,-0.6535970568656921,-3.579267263412476,-0.6137198805809021
7.40693115234375,-1.1754805344223975,0.5291561224259436,-0.7475006210565567,-0.2548052370548248,-3.637839317321777,-0.586318850517273
7.416910400390625,-1.2969056046545504,0.3222428261309862,-1.827592443779111,0.531393826007843,-3.696556568145752,-0.5767561793327332
7.426890380859375,-1.4276615439422429,1.630447823435068,-3.633531858676672,0.5509576797485352,-3.2681307792663574,-0.7747496366500854
7.436870361328125,-0.5290047312565147,4.5595986563354725,-9.081346597704291,0.155789315700531,-2.334012031555176,-0.7892475724220276
7.446850341796875,-2.059974966242909,6.495061107724904,-10.723379060471055,-0.7116113305091858,-0.7773009538650513,-0.4745218455791473
7.45682958984375,-4.100292461335659,6.029793958494067,-12.286682854437828,-1.240896463394165,0.0941907986998558,-0.0705738589167594
7.466809326171875,-4.164543399710953,3.4078970569074154,-11.308616404950618,-1.925083041191101,0.5305436253547668,0.2325639277696609
7.476789306640625,-3.0918729591608045,1.8335444840513169,-12.507976996654271,-2.412787914276123,0.3375696837902069,0.4328361451625824
7.48676953125,-1.949739836936444,0.4141184151433408,-11.780449488568305,-2.650334596633911,-0.1497879922389984,0.5212259292602539
7.496749267578125,-1.4043978649936617,-0.6555685526166111,-9.931741191524267,-2.871250629425049,-0.688551127910614,0.4875146150588989
7.506728271484375,-0.8913197477959096,-1.2238741976480931,-9.148124716469646,-2.997125625610352,-1.228019952774048,0.2151512503623962
7.516708251953125,0.4205274054028093,-1.1478064916856587,-7.981111566141247,-3.069441556930542,-1.708608627319336,-0.2920272648334503
7.5266884765625,1.4672358678311108,-0.6071728800969198,-7.412119254019856,-3.025554895401001,-2.3990378379821777,-0.8131740689277649
7.53666845703125,1.4196202763058243,-0.4762809664046392,-8.190242976877093,-2.588982582092285,-2.8733646869659424,-1.2107359170913696
7.5466474609375,0.8476359427615999,-0.4014467477599158,-7.363177236196399,-1.825042963027954,-2.6026957035064697,-1.4294514656066897
7.55662744140625,0.2263789712000638,0.3489973063373938,-5.115421690282226,-1.048909068107605,-1.7860898971557615,-1.443371295928955
7.566607421875,-0.8562635589186102,1.5826017841547726,-3.959928297355771,-0.452399879693985,-0.9101201891899108,-1.3190979957580566
7.57658740234375,-1.804805734692514,2.8651661442458627,-3.639865737873316,-0.0411278344690799,-0.0413955226540565,-1.1916241645812988
7.58656640625,-1.4951305675812063,2.730696883523464,-2.6724925318360326,0.1896393299102783,0.4244510233402252,-1.039794683456421
7.59654638671875,-0.6979701358206569,1.670635164655745,-2.0245558623373507,0.1456293612718582,0.1159047782421112,-0.8561592102050781
7.6065263671875,0.1754482637774199,0.4064096673969179,-2.7434657642036675,-0.100304789841175,-0.505003809928894,-0.571498692035675
7.61650634765625,0.6795354844637215,-1.1099540231533347,-1.923600748682022,-0.2115847915410995,-0.6750757098197937,-0.285456120967865
7.626485595703125,1.085064350438118,-1.8896736368998883,1.5412491985470056,-0.2573064863681793,-0.6608584523200989,-0.1373604089021682
7.636465576171875,1.4816753120720385,-1.7800617540583012,2.865934206008911,-0.3028911650180816,-0.8094915151596069,-0.0416161827743053
7.6464453125,1.234024493327737,-1.798553688560426,2.793428357246518,-0.3359769582748413,-1.0582799911499023,0.0695577412843704
7.65642529296875,1.056641681291163,-2.4187398890852925,2.933678539457917,-0.4369508922100067,-1.2270904779434204,0.1345352530479431
7.666404296875,1.4000155582562088,-2.9662898924663663,2.846131773430109,-0.6596825122833252,-1.1062616109848022,0.0897203758358955
7.67638427734375,2.1384042137049137,-3.402990580165386,2.9624679960906506,-0.7062778472900391,-0.7526218891143799,0.0129525903612375
7.6863642578125,2.133284678734094,-3.534797343680262,4.209292349758744,-0.6681357622146606,-0.4211225211620331,-0.0454132482409477
7.696344482421875,1.8354780824624,-3.409361576502025,4.128849862778186,-0.60819011926651,-0.2098820954561233,-0.092708483338356
7.706324462890625,1.5351961821183562,-3.2482308110862967,3.7505683385610578,-0.4713901877403259,0.0246965996921062,-0.1352847069501876
7.716303466796875,1.2619943041406572,-2.977578471460938,4.352776107063889,-0.2995386123657226,0.2619478106498718,-0.1831645965576172
7.72628369140625,0.9448495318010448,-2.73710265891254,5.172461674365401,-0.094023011624813,0.4512247741222381,-0.2005486488342285
7.736263427734375,0.6166317959789186,-2.685008022277057,6.079616850805282,0.1168452724814415,0.5702653527259827,-0.1712708473205566
7.746243408203125,0.2855261749618686,-2.7129043294623494,6.902221520423889,0.3274976015090942,0.5754532217979431,-0.11387600004673
7.75622216796875,0.0382619535155128,-2.717110256719589,7.422571089929342,0.4858685135841369,0.4752041697502136,-0.0933598652482032
7.766202392578125,0.2813349703497253,-2.5525547775521877,7.533703898727893,0.6136709451675415,0.3384455442428589,-0.1592928022146225
7.776182373046875,0.9343927274554968,-2.3175433678895234,7.493752996611595,0.6998640298843384,0.182856410741806,-0.2841726839542389
7.786162353515625,1.441363321558386,-2.1042006230689583,7.331071202361583,0.729766309261322,-0.0002095373347401,-0.4112909734249115
7.796141357421875,1.8204485633738337,-1.9293851773023605,6.914219416731596,0.7218822836875916,-0.1584741473197937,-0.4697990715503692
7.80612158203125,1.887351185301691,-1.889630966801941,6.458109387424588,0.6980288624763489,-0.1569276452064514,-0.4347214996814728
7.816101318359375,1.6837606036886572,-1.8164868201360105,6.418221613672375,0.6774315237998962,0.012684253975749,-0.3109029233455658
7.826081298828125,1.3260196170665324,-1.6303446553215384,6.425125986233353,0.6372915506362915,0.1819718033075332,-0.1133488342165947
7.836060546875,0.9714623019818216,-1.4647881824180482,6.023134500604868,0.5979991555213928,0.3020561933517456,0.106962077319622
7.846040283203125,0.9506240966144948,-1.372136786727607,5.444611559072136,0.6082885265350342,0.3392496407032013,0.3043942153453827
7.856020263671875,1.1587510795481502,-1.2976090767487882,4.657060667178034,0.6576020121574402,0.2138827741146087,0.4174379706382751
7.86600048828125,1.3988644885249435,-1.1452473087221384,3.536221823525429,0.7351676225662231,-0.0147898159921169,0.4341447651386261
7.875979248046875,1.379429574084282,-0.9416470824979244,2.606530405628681,0.8842157125473022,-0.174745887517929,0.4309366643428802
7.885959228515625,0.8363011865377425,-0.7847855188339948,2.1354513552486893,1.078626275062561,-0.278566300868988,0.4280218183994293
7.895939453125,-0.113208245099429,-0.4228827363573014,1.575782751789689,1.2179815769195557,-0.5001133680343628,0.3843463361263275
7.90591943359375,-1.246816170361638,0.7325218092419207,0.5302198061347008,1.2161543369293213,-0.8483222126960754,0.2856045663356781
7.9158984375,-1.836073271876573,1.9420655029162763,-0.7253185998648405,1.0302722454071045,-1.052263855934143,0.2064675241708755
7.92587841796875,-1.7654627353414891,2.311345390032232,-1.8417367044657469,0.6980849504470825,-0.8329743146896362,0.1909024119377136
7.9358583984375,-1.420258135817945,2.0308364039115605,-2.7893431337594983,0.4583266079425812,-0.3629856705665588,0.2840777635574341
7.94583837890625,-1.5464613802373408,1.781531826610863,-3.767136611524224,0.2736590206623077,-0.1246876195073127,0.4606091380119324
7.955818359375,-1.9149781740263103,1.9408920752227303,-6.246134277695417,0.2211511880159378,-0.2539051473140716,0.6509659290313721
7.96579736328125,-2.004149034124613,2.2873441905893386,-8.301284600260853,0.3092738687992096,-0.6494386196136475,0.8223976492881775
7.97577734375,-2.2370026812314987,2.397756722289324,-9.610122634771466,0.4653375744819641,-1.0882033109664917,0.9661946892738342
7.985757568359375,-2.9817741695851088,2.284960656453669,-10.33194345564842,0.6434907913208008,-1.4481558799743652,1.037844181060791
7.9957373046875,-3.5953728084132077,2.192293478672206,-10.841683952856064,0.7729816436767578,-1.738634467124939,0.983124613761902
8.005716552734375,-3.840903566263616,2.1873924087576566,-11.64612518927455,0.7894682288169861,-1.905039429664612,0.8065969944000244
8.015696533203124,-3.7353359903767696,1.9931600225985049,-12.570388736903666,0.6785194277763367,-1.8012250661849976,0.544016420841217
8.02567529296875,-3.415079661887884,1.5369228597804905,-13.050477607691288,0.425788402557373,-1.4559828042984009,0.2175488471984863
8.035655517578125,-2.9818191777706144,0.984320249184966,-13.37177526192665,0.063134916126728,-0.845376193523407,-0.1395406872034073
8.045635498046876,-2.5740190058633683,0.6553835514385253,-12.874103972697258,-0.3906389772891998,-0.1927928179502487,-0.4771246016025543
8.055615234375,-2.294379788314551,0.6409874348826706,-12.2272767257452,-0.9556058645248412,0.3852589428424835,-0.7641838192939758
8.065594482421876,-1.787248450691998,0.6952341349855065,-11.659895355951786,-1.4107520580291748,1.0247858762741089,-0.9158271551132202
8.07557421875,-1.6385853910528123,0.8898444145463407,-9.655689623203871,-1.592192769050598,1.5059925317764282,-0.9155187606811525
8.085554443359374,-1.4230866372421382,1.3705676377147435,-7.078111755815148,-1.0654631853103638,1.378242015838623,-1.0280895233154297
8.095534423828125,0.3720586311142891,2.026138747614622,-4.626207848274707,-0.7273712754249573,0.2924322187900543,-0.8369423151016235
8.1055146484375,0.7078537433881312,0.314492065873742,-6.387302159273624,-0.3107714056968689,-0.3575409948825836,-0.4884296059608459
8.115493408203125,0.8501946142684668,-0.4507237331587821,-3.082283877560496,0.0781303867697715,-0.7885681390762329,-0.0662959888577461
8.125473388671875,-0.0925212665047496,-0.0017365780016407,-2.0295921029388904,0.2961260974407196,-1.045704364776611,0.2269137799739837
8.135453369140626,0.1200290858291089,0.2861904840894974,-1.3980880973249672,0.3524484038352966,-1.064085841178894,0.4231662154197693
8.145433349609375,0.4006713429406285,-0.1849316017146222,-0.9026315615355968,0.2828560173511505,-0.8963649868965149,0.4920344948768616
8.155412353515626,0.916399536255747,-0.6361775503829121,-0.6768588126003742,0.1749612390995025,-0.5571789741516113,0.4370456039905548
8.16539208984375,1.4516552907310425,-0.9219875655211508,0.0792395409315824,0.0386657081544399,-0.114175945520401,0.3171319961547851
8.175372314453124,1.7023007612466812,-1.235658670400828,1.01603640691936,-0.0949189066886901,0.3423070013523102,0.1461168676614761
8.1853525390625,1.9215644205488265,-1.5497700663939118,2.0581471662938595,-0.1766206920146942,0.7564282417297363,-0.0325897634029388
8.195331298828124,2.0683255920894443,-1.6787926060177385,3.384716087806225,-0.1609761118888855,1.0558656454086304,-0.1695467233657837
8.2053115234375,2.0593334534689784,-1.577489994098991,4.638424940291047,-0.1190110966563224,1.1327604055404663,-0.2742286622524261
8.21529150390625,2.336841065816581,-1.3175268062703311,5.0257472645759576,-0.0341347344219684,1.005992412567139,-0.3448734581470489
8.225271240234376,2.7028423696532844,-1.1830166290156543,5.313635401162505,0.111491709947586,0.7626847624778748,-0.3417900502681732
8.23525048828125,2.8689123450368643,-1.2713117291927336,5.691578487205505,0.3039295077323913,0.5148392915725708,-0.2306895554065704
8.24523046875,2.673094297121465,-1.5554975041300056,6.01113777334094,0.5122385025024414,0.3283866047859192,-0.0596504248678684
8.255210205078125,2.432642011579126,-1.59823540661633,6.325936713206768,0.7277377247810364,0.1964565366506576,0.0878604650497436
8.265190185546874,2.258065343004465,-1.1755061072550714,6.552821222776174,0.9325838088989258,0.1163619607686996,0.180408239364624
8.27516943359375,2.0326829085610805,-0.6882821238905191,6.699781716281176,1.1033848524093628,0.0807918310165405,0.2356761544942855
8.2851494140625,1.805057079105079,-0.4785566927842795,6.785636875960231,1.2289613485336304,0.0602727122604846,0.2544565200805664
8.29512939453125,1.657082440121472,-0.3813306095894426,6.859433933576941,1.2891876697540283,0.0637615993618965,0.2479407638311386
8.305109375,1.4660399360448122,-0.1892947105612605,6.88817487489283,1.308564305305481,0.0789309665560722,0.2279880940914154
8.31508837890625,1.1385342209495604,0.0925800840198993,6.917042657458782,1.307180643081665,0.1031129881739616,0.2005507946014404
8.325068359375,0.8285296026881783,0.3215379657972604,6.894681772568822,1.272673487663269,0.0909404829144477,0.1448041796684265
8.33504833984375,0.7967490744806826,0.5194286552682519,6.637488049453497,1.219664216041565,0.0851419866085052,0.0709923580288887
8.3450283203125,0.7754560380179435,0.6449225823745132,6.515161646467447,1.1777708530426023,0.1022842228412628,0.0008122059516608
8.35500732421875,0.5802868094000965,0.7613866691984236,6.545662583193183,1.1317754983901978,0.083055630326271,-0.049309566617012
8.3649873046875,0.3418226289350539,0.8518915543794632,6.326351139226556,1.0777535438537598,-0.0120365303009748,-0.0759912431240081
8.37496728515625,0.1302735625982284,0.8699177710659801,5.849359065410495,0.9970765709877014,-0.1142370849847793,-0.0764713659882545
8.384947509765626,-0.1172448619380593,0.8538653386704623,5.220363827747106,0.8952865600585938,-0.1210997849702835,-0.065963864326477
8.394927490234375,-0.4396581492651253,0.835595376355946,4.572537048363685,0.8370051383972168,0.1109586358070373,-0.0864428207278251
8.40490625,-0.6641296794086694,0.9537677284024656,4.315394178652763,0.893549382686615,0.468539148569107,-0.1374468803405761
8.414886474609375,-1.163492063530162,1.1757954455904662,3.996920349666476,0.9460318684577942,0.7309091687202454,-0.2110955417156219
8.424866455078124,-1.2247360021091998,1.1945910392142831,2.7431524604707955,1.0085142850875854,0.8553254008293152,-0.3368622660636902
8.43484619140625,-0.5820764327632263,0.925622122631222,1.3838760320991277,1.116238713264465,0.9255080223083496,-0.4913887679576874
8.444825439453124,-0.1944215520557016,0.4562804174378514,0.582749034795165,1.2378311157226562,1.1200871467590332,-0.5823104381561279
8.454805419921875,-0.8235739530421793,0.5715244609475135,0.9023246875435114,1.2711906433105469,1.3173030614852903,-0.5667393803596497
8.464785400390625,-1.636399133054912,1.572526964864135,1.1067144567102194,1.1404904127120972,1.441655158996582,-0.4915681779384613
8.474765380859376,-1.6394668500624596,2.1678107793226835,0.7721481555789709,0.9061760306358336,1.454728603363037,-0.3544638454914093
8.48474462890625,-1.1682760098710656,1.4700141003727911,0.2385457212686538,0.6665067076683044,1.3103822469711304,-0.2233825325965881
8.494724365234376,-0.3804453511875122,0.185605281458795,-0.6718062053859234,0.4234983623027801,0.9010227918624878,-0.1232072710990905
8.504704345703125,0.3741132620891556,-0.8361191079691052,-2.2594237718760968,0.1163146942853927,0.1727345138788223,-0.0433092415332794
8.514684326171874,0.6329958516068757,-1.2662483083233236,-4.715113043174148,-0.1554907262325287,-0.5464205145835876,-0.0229826066642999
8.524663330078125,0.4071669155050069,-1.0391934106230736,-6.24957886519134,-0.2707329094409942,-0.9727163910865784,-0.0360523350536823
8.534643310546874,-0.2558272753340192,-0.3601271511062979,-6.63295040602386,-0.2627168595790863,-1.2816383838653564,-0.0112368315458297
8.544623046875,-1.0749522678770125,0.2561629187628627,-7.4708046672225,-0.1613172739744186,-1.5257937908172607,0.0584069602191448
8.554603515625,-1.6697312015533443,0.5256850853145122,-8.286888995161652,-0.0116601372137665,-1.6503818035125732,0.1041262149810791
8.56458447265625,-1.9170649171724916,0.5516586077436805,-8.93641848680973,0.1294210851192474,-1.5573028326034546,0.0770229548215866
8.574564453125,-1.8516648087620733,0.5403638912692665,-9.199677209052442,0.1896769702434539,-1.171111226081848,-0.0115999616682529
8.584543212890624,-1.54161817798987,0.4212850919023156,-8.881963843044637,0.1088380441069603,-0.5625703930854797,-0.0782666057348251
8.5945234375,-1.1989911738693713,0.1113791847750544,-8.258646651017665,-0.131040945649147,0.0820081681013107,-0.0711577013134956
8.60450341796875,-0.8460205434542148,-0.1648316657602787,-7.523736046943068,-0.5013220906257629,0.6171759963035583,-0.0142198530957102
8.6144833984375,-0.4858444386396557,-0.3082280370429158,-6.620053515049815,-0.8865871429443359,0.894223690032959,0.0673061162233352
8.62446240234375,0.0183169432613998,-0.3918851021558046,-5.8018169775128365,-1.1779406070709229,0.8809413909912109,0.1466177105903625
8.634442626953126,0.5151924790032207,-0.6355676017910241,-5.0206326980412,-1.3030794858932495,0.7210184931755066,0.2449187636375427
8.64442236328125,0.6932941798988729,-0.8651942496754229,-3.75794968098402,-1.2724400758743286,0.4406533539295196,0.3208214938640594
8.65440234375,0.7636299180805682,-0.7771192219898104,-2.647943196991086,-1.129124402999878,0.1143903732299804,0.3703937828540802
8.664381591796875,0.7093753269322216,-0.5368751723706722,-1.5544050327181815,-0.900452733039856,-0.1797136813402176,0.3804836869239807
8.674361328125,0.6388553912900388,-0.3161114837691187,-0.2088052475214004,-0.3374844789505005,-0.1362735629081726,0.2950206398963928
8.68434130859375,0.9072744919706136,0.2538575644299388,2.810093660843372,-0.1002919152379036,-0.727178156375885,0.275654673576355
8.6943212890625,0.6834087457004934,-0.1714221500664949,0.6411638143628835,0.0373768284916877,-1.130797266960144,0.3648794591426849
8.704301513671876,0.4961114925667643,-0.3483557570308446,1.3900012369811534,0.0520750805735588,-1.2760876417160034,0.510313868522644
8.7142802734375,0.0940253143921494,-0.086010350240767,2.035043938603997,0.0256087630987167,-1.2772223949432373,0.6157801151275635
8.724260498046876,0.0588654459446668,0.3758510821998119,2.2059394344478847,-0.0467213615775108,-1.1643526554107666,0.6496736407279968
8.734240234375,0.5394971914373338,0.5146098568096756,2.2083353896737097,-0.1183326095342636,-0.9303172826766968,0.6433101892471313
8.744220458984374,0.9626243310097604,0.3121040016934275,2.6125568263113497,-0.1835036128759384,-0.6275217533111572,0.6168516874313354
8.754199462890625,1.1593664349675177,0.1859416738063097,3.0745570827007294,-0.2619731426239013,-0.3353544771671295,0.5671296715736389
8.76417919921875,1.2431953495159744,0.1713968694947659,3.5365468176960944,-0.3308107852935791,-0.0325216427445411,0.4628349244594574
8.774159423828126,1.2469566017456353,0.1163842995859682,4.274845895165205,-0.3417737782001495,0.2554423213005066,0.3016297221183777
8.784139404296875,1.2443679004266857,0.0427707818426191,5.019450794780254,-0.3233665227890014,0.3965773284435272,0.129785269498825
