seconds_elapsed,ax,ay,az,gx,gy,gz
0.076496826171875,0.1064218180960044,-0.1207132687009871,0.2875274865806103,0.0974121913313865,-0.2541501522064209,-0.0186251420527696
0.086522705078125,-0.0964590808777138,0.0186055509444326,0.3932745106875896,0.0458880104124546,-0.2332693934440612,-0.011330209672451
0.096548828125,-0.2683285363202914,0.1049830174645408,0.408555666449666,-0.0016416981816291,-0.2047132700681686,-0.0227698851376771
0.10657470703125,-0.3420113564401865,0.110957269568555,0.3062561524480581,-0.0196920707821846,-0.1756264865398407,-0.0459668189287185
0.116600830078125,-0.3531266612270847,0.1101395965101197,0.1832879444271326,-0.003300804644823,-0.1283009052276611,-0.065834455192089
0.12662646484375,-0.3476471703700721,0.0790647688865661,0.0916039324641227,0.027433406561613,-0.0865084454417228,-0.0764921605587005
0.136651611328125,-0.3121011886818334,0.0344765623584389,0.065786185118556,0.0544085204601287,-0.0535210892558097,-0.0772917121648788
0.146677734375,-0.2377643250999972,-0.0338705958219245,0.1072054062217473,0.067103810608387,-0.0395402945578098,-0.0697134211659431
0.15670361328125,-0.1987579372921958,-0.1219124884229153,0.1366758308559656,0.0707182511687278,-0.0581877455115318,-0.0601175241172313
0.166729736328125,-0.141219173374027,-0.2076103021157905,0.1042675992041826,0.0776251628994941,-0.078159861266613,-0.0376130156219005
0.176755615234375,-0.071780822423473,-0.2346507231241092,0.045265375137329,0.0772619172930717,-0.105920597910881,-0.0012045693583786
0.18678173828125,-0.0181523638168349,-0.2560818163506687,0.0561398203730583,0.0748632103204727,-0.1313015818595886,0.0357856713235378
0.196807861328125,0.0029044892698526,-0.2526951330544427,0.0682248104423284,0.0797799676656723,-0.1587642729282379,0.0667576789855957
0.20683251953125,0.0364211570875719,-0.2891089105531573,0.110255441442132,0.0896099582314491,-0.1815388351678848,0.0978032127022743
0.21685888671875,0.0893396407939493,-0.2921315097773447,0.1789817716658115,0.0881276205182075,-0.1879447400569915,0.1223549917340278
0.226884765625,0.0705369233096018,-0.1974752040052786,0.3395101872742176,0.064575158059597,-0.1740153431892395,0.1348606497049331
0.236910888671875,0.049332734174095,-0.126238973319903,0.3918289880543947,0.0453062206506729,-0.148365169763565,0.1448485404253006
0.246936767578125,0.119862424025312,-0.1187158112734556,0.3566787642180919,0.047183483839035,-0.1267560273408889,0.1522398740053177
0.256962646484375,0.1600414358090609,-0.1515097543071955,0.2965706247359514,0.0723092705011367,-0.1019583567976951,0.1650574058294296
0.26698876953125,0.1253298225857317,-0.1445083876451477,0.2401724456876516,0.098964050412178,-0.0699085444211959,0.1829147040843963
0.2770146484375,0.0746895129444077,-0.0648835006577894,0.1848410190880298,0.1140816211700439,-0.0231345742940902,0.1975496113300323
0.287039794921875,0.0175716413194313,0.0099724914273247,0.1124170033901929,0.103818342089653,0.0150729995220899,0.1962896734476089
0.297065673828125,-0.0748971278131008,0.0422200891572982,0.0595510901212692,0.0845348760485649,0.0390428937971591,0.1705717146396637
0.307091552734375,-0.1957531294530257,0.036126265794225,-0.0744967303186655,0.082328975200653,0.0595798604190349,0.1164640039205551
0.31711767578125,-0.3775532099425792,0.0403944446327164,-0.2901040590703487,0.1113466396927833,0.0734980106353759,0.0462158769369125
0.3271435546875,-0.4550115300131961,0.0389676266999915,-0.4845990416884422,0.1575506180524826,0.0592791326344013,-0.0195508878678083
0.337169677734375,-0.385341306535527,-0.0388598554765805,-0.5680331117004156,0.1977285891771316,-0.0153080206364393,-0.0821865946054458
0.34719580078125,-0.2842805405486375,-0.2216072267536074,-0.6025239948451518,0.2422971278429031,-0.1272745132446289,-0.1407042294740677
0.357221923828125,-0.1638632956521585,-0.3974821184452622,-0.6284948869258165,0.2908265888690948,-0.2470305114984512,-0.1887589246034622
0.367246826171875,-0.0292469911418855,-0.4784756999699399,-0.5682189896613359,0.3335330486297607,-0.3507396280765533,-0.2071123719215393
0.377272705078125,0.0723955933209508,-0.4478081014404073,-0.4007160588651895,0.365567147731781,-0.4184369146823883,-0.2059293985366821
0.387298828125,0.1623090154148638,-0.3217584036149084,-0.1334065999269485,0.3775031566619873,-0.4571672677993774,-0.1872952580451965
0.39732470703125,0.2601879364952444,-0.2715503661773167,0.1573176368683576,0.3719439804553985,-0.4707822501659393,-0.1576994210481643
0.407350830078125,0.3828152951892465,-0.1996292402340099,0.4076987573593855,0.348559021949768,-0.4612569212913513,-0.1241694167256355
0.417376708984375,0.3870909266818315,-0.1280272723756264,0.681959935131669,0.3027608692646026,-0.4303436279296875,-0.0936472713947296
0.427402587890625,0.3476032581631094,-0.0166609607818769,0.8856219745457172,0.2566817998886108,-0.3786500692367553,-0.0724154859781265
0.437427734375,0.2849799940548837,0.1184549501138739,0.9954875398874282,0.2207676172256469,-0.304424375295639,-0.0558068491518497
0.44745361328125,0.2648492793697863,0.243019323018752,1.0186743542075156,0.1936736851930618,-0.2257913500070572,-0.0374174527823925
0.457479736328125,0.284638048749417,0.3294866963120177,1.0795125615298748,0.1718672662973404,-0.1732435524463653,-0.0166492369025945
0.467505615234375,0.325342837972939,0.4293543800568208,1.1251286498010158,0.1519185900688171,-0.1425897777080536,-0.0085257971659302
0.477531494140625,0.3267032396059483,0.5494543026324361,1.1780629521310328,0.1382014006376266,-0.1354581266641616,-0.0132123073562979
0.4875576171875,0.2745818610940128,0.7088846938710659,1.2056640757620334,0.1270842850208282,-0.1418206840753555,-0.0177743006497621
0.497583740234375,0.314599837097153,0.8866516098544001,1.2269038476675749,0.1201145946979522,-0.142629399895668,-0.0111584942787885
0.50760986328125,0.3123636024776846,1.0876176151175052,1.2831839532941578,0.1025760918855667,-0.1333416253328323,-0.0036923226434737
0.517634765625,0.2381745498687028,1.2897899274304507,1.4100871626764535,0.0720848068594932,-0.1121516153216362,-0.0125413285568356
0.52766064453125,0.1189605067495256,1.4217746778607367,1.5063900666117669,0.0410469956696033,-0.0886449515819549,-0.0407386124134063
0.537686767578125,-0.0335473186843097,1.472083453992754,1.5122645116031168,0.0239292625337839,-0.0367468670010566,-0.077537901699543
0.547712646484375,-0.0382942940156906,1.4595564192444086,1.497478445881605,0.0054162973538041,0.0127048389986157,-0.1058236062526702
0.55773876953125,0.1384651984907686,1.347458126414567,1.5410785181552171,-0.0201921127736568,0.0175435915589332,-0.1166969165205955
0.5677646484375,0.3665765464413911,1.1208047952525315,1.5445423948734998,-0.0344762429594993,-0.0210256371647119,-0.1065002083778381
0.577790771484375,0.6054526687081903,0.8348496725551784,1.5038777915298938,-0.030088648200035,-0.0927331298589706,-0.0771404206752777
0.587815673828125,0.8239924707151949,0.5869920061271637,1.6051999849319456,-0.0199579857289791,-0.1863453686237335,-0.0211594384163618
0.597841552734375,0.9758925395142286,0.4071832821179181,1.834334319254756,-0.0209908448159694,-0.27072873711586,0.046362992376089
0.6078681640625,1.022421212585643,0.3103786757381633,2.1443787580698728,-0.0413688197731971,-0.3480898141860962,0.1101480945944786
0.61789404296875,0.991690047300607,0.1818279000782407,2.47092775696218,-0.0754621922969818,-0.4260660111904144,0.1587437242269516
0.627920166015625,0.8605968388825654,0.0769457309059798,2.6466508190929887,-0.1017233505845069,-0.4945896565914154,0.1801986843347549
0.637946044921875,0.5175776205740868,0.0920723993592429,2.677996974471211,-0.1144996359944343,-0.5283575654029846,0.1497047245502472
0.647971923828125,-0.0661481502987444,0.2190481716542504,2.622592482635379,-0.1160831451416015,-0.5149061679840088,0.0789709016680717
0.657998046875,-0.615601210822165,0.3646785673329606,2.3703239409625527,-0.0975232496857643,-0.431549996137619,-0.0113281207159161
0.66802294921875,-1.136418982361257,0.4672986185258254,1.915200584605336,-0.0785945653915405,-0.2869805693626404,-0.1076898127794265
0.678049072265625,-1.743185437081754,0.5763386562962085,1.2653601273119448,-0.0918332561850547,-0.1097185462713241,-0.2100136578083038
0.688074951171875,-2.273983335365355,0.593555821622163,0.3334720761537552,-0.1368734389543533,0.0548885092139244,-0.3064866364002228
0.698100830078125,-2.505572077102959,0.3457119279911741,-1.093346441093087,-0.1992496699094772,0.2491403073072433,-0.3629162311553955
0.708126953125,-2.486521047413349,0.0075323773993644,-3.1939240513592955,-0.2764336764812469,0.5275080800056458,-0.3113321363925934
0.718153076171875,-1.876196754080802,-0.1693301462233066,-6.008697394451499,-0.3735628426074981,0.8453488945960999,-0.0388288237154483
0.72817919921875,-0.385617493128404,-0.2967020873622037,-8.56517226805687,-0.520581841468811,1.1845961809158323,0.4482124447822571
0.7382041015625,0.684971318842098,-0.4385953423392027,-10.402205324876308,-0.7780901789665222,1.499081254005432,0.9745050668716432
0.74822998046875,1.025547893238813,-0.6958617653645575,-11.48705457125902,-1.0788371562957764,1.6134613752365112,1.370273470878601
0.758256103515625,1.076585495102033,-1.0661897002287208,-12.19150632418394,-1.247033715248108,1.4484964609146118,1.531729221343994
0.768281982421875,0.5737317617334425,-1.2424284567967057,-12.856260857492684,-1.1892505884170532,1.0828551054000854,1.4595386981964111
0.77830810546875,-0.0360498030245304,-0.8568584560718386,-13.283920452862978,-0.9115304350852966,0.5868650674819946,1.2131493091583252
0.788333984375,-0.3461312859144062,-0.3030585985157639,-12.97822134977579,-0.4784495532512665,0.0874033346772193,0.8698182106018066
0.798360107421875,-0.4393805744327604,0.1274156158838421,-11.948319499111175,-0.0036951676011085,-0.335805594921112,0.508798360824585
0.808385986328125,-0.5769742873186245,0.5104841551817954,-10.265677378058433,0.3915576040744781,-0.6208500862121582,0.1645291298627853
0.818410888671875,-0.9133567344937472,0.9605574616078288,-8.279612866678834,0.6507201790809631,-0.6830527782440186,-0.1600387096405029
0.82843701171875,-1.514888138104975,1.407475518873334,-6.190236449384689,0.7529608011245728,-0.5448219776153564,-0.4715204238891601
0.838462890625,-2.0378464288040994,1.6680834343463182,-4.428610807988047,0.7864068746566772,-0.2112191617488861,-0.7537482976913452
0.848489013671875,-2.09692990141362,1.534310339194536,-3.3981928244948385,0.8344495296478271,0.2271496653556823,-0.9606705904006958
0.858514892578125,-1.7774108011581002,0.9032881988134236,-2.692990545463562,0.898464024066925,0.6650023460388184,-1.0610337257385254
0.868541015625,-1.0062865817993878,-0.1164769645717926,-1.881974022307992,0.8979175686836243,1.0377109050750732,-1.0108989477157593
0.878567138671875,0.1973818996986374,-1.120584503565356,-0.5775204864919186,0.7613036632537842,1.29548442363739,-0.8074397444725037
0.888592041015625,1.2585668139100077,-1.8473055906392637,1.075938794696331,0.4713785946369171,1.4177688360214231,-0.5216399431228638
0.8986181640625,1.855660600399971,-2.130576588819176,2.8918180043280124,0.0961174592375755,1.3961820602416992,-0.2507784962654114
0.90864404296875,1.7666178967259822,-2.1026411186672744,4.319526748412847,-0.2140095084905624,1.2066129446029663,-0.0796863734722137
0.918669921875,1.0094249528903514,-1.796277414191514,4.991637489703297,-0.3523941040039062,0.932667911052704,-0.0406432561576366
0.928696044921875,-0.0874042431514244,-1.2146909934349357,5.357347701638937,-0.3105305433273315,0.6684508919715881,-0.1171958148479461
0.938721923828125,-1.148443620545417,-0.530401117518358,5.903953994429111,-0.1494142711162567,0.4638643562793731,-0.2513884305953979
0.948748046875,-1.8540007043637332,0.0018103008249774,6.617252486154436,0.0903162881731987,0.4010494351387024,-0.4202786386013031
0.95877294921875,-2.263104506215453,0.2844440057483501,7.153594574561715,0.3605446815490722,0.5027015805244446,-0.5596594214439392
0.968798828125,-2.029572229194641,0.3567081364430487,7.578985055956244,0.5619779229164124,0.7037060260772705,-0.5814869403839111
0.978824951171875,-1.1973596271447835,0.1391278088516555,7.991649326768517,0.6044902801513672,0.9751991629600524,-0.4734808504581451
0.988850830078125,-0.2888865730393677,-0.1834216538093984,8.299783548048138,0.4610506296157837,1.1722350120544434,-0.2647838294506073
0.998876953125,0.4526669761810451,-0.3826603238232433,8.838004289808868,0.1574054360389709,1.131629467010498,-0.0318380929529666
1.00890283203125,0.6603509645875543,-0.6082882939929142,9.401553534093498,-0.1795600950717926,0.892075777053833,0.1829362511634826
1.01892919921875,0.5197453200019896,-0.8098211028259247,9.479016128480431,-0.4362078011035919,0.6027215719223022,0.3620269000530243
1.028955078125,0.1382467334344983,-0.6669828768827021,9.196816558924317,-0.5833524465560913,0.3479310572147369,0.4850066304206848
1.03897998046875,-0.403245504277572,-0.1754629864225164,8.944351617896556,-0.6336647868156433,0.1657789051532745,0.5538331270217896
1.049006103515625,-0.8709440453737973,0.3159907434662803,8.928593492272496,-0.6083450317382812,0.0383975133299827,0.5730955004692078
1.059031982421875,-1.1655054491791874,0.6066640903245657,8.996312106758355,-0.5111108422279358,-0.0616739206016063,0.5576525330543518
1.06905810546875,-1.3282279407657682,0.6936966962851584,9.129718706685304,-0.3750248849391937,-0.1695654988288879,0.5103673338890076
1.079083984375,-1.5109918613187967,0.6696357294790446,9.25382264073789,-0.231299340724945,-0.2888833284378052,0.4477227032184601
1.08910986328125,-1.6427726136095822,0.6184554312095045,9.324428208836911,-0.1202122345566749,-0.3836047649383545,0.3837983012199402
1.099135986328125,-1.6588848133683205,0.5651991303835063,9.335542892569302,-0.0358856730163097,-0.4662153720855713,0.3290992975234985
1.1091611328125,-1.5405635543704033,0.3254723095715046,9.2983240457654,0.0407068394124507,-0.5364932417869568,0.2943210899829864
1.119186767578125,-1.471108471480757,-0.1552099787983112,9.09613617055714,0.1316674053668975,-0.5798669457435608,0.2829507887363434
1.129212890625,-1.3947563225537538,-0.4874692633625119,8.736289297696947,0.2356883585453033,-0.5716511011123657,0.2965531349182129
1.13923876953125,-1.3788171412743626,-0.6394082759324461,8.37708481439352,0.3244765102863312,-0.5345566272735596,0.3140878677368164
1.149264892578125,-1.545849970340729,-0.8025346721448003,7.946102796602249,0.3691129386425018,-0.5110821723937988,0.3110564053058624
1.159290771484375,-1.5868911519117652,-1.0825731181442737,7.248889762759208,0.3510279357433319,-0.4851007163524627,0.3159106969833374
1.169317138671875,-1.1809186338230966,-1.4286851879015563,6.066244743534922,0.2650491297245025,-0.5148681998252869,0.4037769138813019
1.179342041015625,-0.6449098690234124,-1.5682596628084775,4.599299383082986,0.1737441122531891,-0.6668825149536133,0.5266150236129761
1.189367919921875,-0.5389258212901652,-1.4198784888505935,2.881566074904799,0.1604903489351272,-0.9593250155448914,0.5643134117126465
1.199394287109375,-1.1259621780157087,-1.1932063068576155,0.5945803423643112,0.2441719770431518,-1.211983323097229,0.4612259268760681
1.209419921875,-2.326928743611276,-0.5790460520913824,-2.500243283295631,0.3944722712039947,-1.1693400144577026,0.2485765218734741
1.219446044921875,-2.748665670934319,0.4790306669715791,-5.911599540746212,0.5395268797874451,-0.8847994804382324,0.1330979913473129
1.229471923828125,-1.4958222031071782,1.3413205004423856,-8.966094078627227,0.5927070379257202,-0.4882409274578094,0.2175716012716293
1.239497802734375,0.0526331639589741,1.4980680823378263,-11.83973169862032,0.5257400274276733,-0.1707766503095626,0.4500710368156433
1.249523193359375,1.5636626904070376,0.9301323665972798,-13.833630556887387,0.3514931201934814,-0.1857862174510955,0.7119564414024353
1.259549072265625,2.6873341271370648,0.016699552926328,-15.034638331276176,0.1254712045192718,-0.5696674585342407,0.8965428471565247
1.2695751953125,3.465535299144685,-0.730435212226212,-15.980325775206088,-0.110575683414936,-1.076176404953003,0.8898774981498718
1.27960107421875,2.0388846858106557,-0.3844669713864103,-16.28122361549139,-0.249943345785141,-1.59840726852417,0.6797264814376831
1.289626953125,0.3419363915078341,0.8403826106324791,-16.376463274109362,-0.2465344965457916,-1.9577656984329224,0.361846774816513
1.299653076171875,-0.893402764615044,2.176912077406049,-16.141353372508288,-0.1020671352744102,-2.0317344665527344,-0.0012768183369189
1.309678955078125,-1.8094933079868556,2.8461849649220703,-15.604256081819534,0.0731385052204132,-1.8176922798156736,-0.3640758097171783
1.319705078125,-2.368242458513379,2.737545434243977,-14.44335118523836,0.1439529955387115,-1.4964220523834229,-0.7009130716323853
1.32972998046875,-2.726180282881856,2.209905269338936,-12.955329134488103,0.1214988231658935,-1.200615406036377,-0.9963937401771544
1.339755859375,-3.0712428435862065,1.5755430978149174,-11.84517242836952,0.1011121794581413,-0.8912910223007202,-1.2483603954315186
1.3497822265625,-3.109810474650561,0.8390629063360393,-11.043002644014358,0.1150437071919441,-0.5877569913864136,-1.388582706451416
1.35980810546875,-2.7318676808685063,-0.0306566387441009,-10.067802689874172,0.1273358613252639,-0.3188721537590027,-1.379168152809143
1.369834228515625,-2.218393403960019,-1.0153756779883056,-8.671165960401297,0.0831907615065574,-0.0689131766557693,-1.1965378522872925
1.379860107421875,-1.683731085333228,-1.742254293711483,-6.651970163792371,-0.0682631283998489,0.1719603985548019,-0.8774675130844116
1.38988623046875,-1.290980160128325,-1.9431693725049493,-3.951653220963478,-0.3366154730319977,0.424889862537384,-0.5020155906677246
1.3999111328125,-1.172340044439584,-1.8164425426028667,-1.056491166904569,-0.6296343207359314,0.7421019077301025,-0.2057274430990219
1.40993701171875,-1.4738278134420513,-1.8641816143773493,1.13903384103477,-0.8265977501869202,1.16886305809021,-0.0566282346844673
1.419963134765625,-1.718623242755234,-2.0524623986557127,2.646296014305949,-0.8904624581336975,1.5735055208206177,-0.025852957740426
1.429989013671875,-1.5355213224194943,-2.168536024857312,3.6453935613840818,-0.8514516949653625,1.815515756607056,-0.072062000632286
1.44001513671875,-1.1668106134936214,-2.308501398777961,4.2370004408955575,-0.7516801357269287,1.7924537658691406,-0.1744360774755478
1.450041015625,-0.8842982516612857,-2.484270638138056,4.669072007489204,-0.5933901071548462,1.5525016784667969,-0.3214234113693237
1.46006689453125,-0.6279414908267558,-2.722651524233818,5.079356105166673,-0.3576109409332275,1.2097795009613037,-0.4698789119720459
1.470092041015625,-0.5139487990850582,-2.751793739826977,5.673263078314066,-0.0876524448394775,0.840591311454773,-0.5761563777923584
1.480117919921875,-0.2465013564482331,-2.498144557450712,6.434468399596214,0.1720746159553527,0.5347135066986084,-0.6135877370834351
1.49014404296875,0.0821789188517257,-2.207599038223177,7.291174660781025,0.3810866773128509,0.3474877178668976,-0.5676172971725464
1.500170166015625,0.3365563059046864,-1.951188574440032,8.170773721775412,0.5091816186904907,0.2835493087768554,-0.4662185609340668
1.510196044921875,0.5044691692085936,-1.6885278180904686,8.965352320349217,0.5514094829559326,0.3888115286827087,-0.3394188284873962
1.52022216796875,0.4761597877103835,-1.2820422359131276,9.511831187367438,0.4885194301605224,0.5742805004119873,-0.2260235548019409
1.530248046875,0.3871325008012354,-0.8200834075126796,9.951489848089215,0.3465449810028076,0.7474339008331299,-0.1091081202030181
1.540274169921875,0.6986730233930051,-0.5082806537881494,9.998001423895358,0.1864121258258819,0.8811291456222534,0.0281162057071924
1.550299072265625,1.0637043131537736,-0.181847408496309,9.833520471268892,0.0224860440939664,0.9232137203216552,0.1630588471889495
1.560324951171875,1.108652804361656,0.17347526493771,9.571506196129322,-0.131527841091156,0.8908536434173584,0.2664143741130829
1.57035107421875,1.0691474540557713,0.5673334024658426,9.08319134878814,-0.2302853167057037,0.7901502251625061,0.3314530253410339
1.580376953125,0.9551461771488188,0.9742865656223147,8.62276053367257,-0.2700483500957489,0.6217567920684814,0.3482093214988708
1.590403076171875,0.774685784297809,1.300337478799373,8.19522836407423,-0.2400997579097747,0.4374203085899353,0.3167389929294586
1.600428955078125,0.5120351840160787,1.5439764315538107,7.749848403096198,-0.1396555751562118,0.2691468298435211,0.2415969371795654
1.6104541015625,0.2113173399401828,1.7438230043329297,7.4589423799932,0.0053886994719505,0.0845618098974227,0.1290093958377838
1.620479248046875,-0.0183796697666868,1.840408962993324,7.50226655793488,0.1453358978033065,-0.1158747673034668,-0.0085059264674782
1.630505126953125,-0.1025025988256558,1.7297626225374638,7.506249490091204,0.2632023394107818,-0.2830102443695068,-0.1358889192342758
1.64053125,0.0689001889532432,1.4585191851511596,7.514901583102345,0.3536745309829712,-0.4157364964485168,-0.2214104831218719
1.65055712890625,0.2527503155740909,1.137373068215698,7.657993126219511,0.3963125348091125,-0.5488351583480835,-0.2562978863716125
1.660583251953125,0.3712546943202615,0.7780501461643725,7.726380433747172,0.4011163711547851,-0.6369292140007019,-0.2394558191299438
1.670609375,0.4379630357850342,0.4683266098666936,7.694531005021929,0.3685733377933502,-0.6542264223098755,-0.1713007390499115
1.68063525390625,0.4591365009887144,0.1734541125518269,7.687953964719176,0.2839278280735016,-0.6204900145530701,-0.0722225978970527
1.690660400390625,0.4354825075482949,-0.0806044178103096,7.623335069814324,0.1460935473442077,-0.5505013465881348,0.0212580859661102
1.700686279296875,0.3035028899508528,-0.3357613196020945,7.302966805383563,-0.0248869992792606,-0.489847719669342,0.0924408510327339
1.710712158203125,0.1190417735585011,-0.6767340902421624,6.548295269784331,-0.167318969964981,-0.4736543595790863,0.135347843170166
1.72073828125,0.2209563616294413,-1.204314049392566,5.187162984412908,-0.2073206603527069,-0.5749981999397278,0.1887105405330658
1.73076416015625,0.5969950753558426,-1.784895311694592,3.5012440336465835,-0.117266945540905,-0.7664262652397156,0.2415756285190582
1.740790283203125,0.6350710504457354,-1.9272139707431195,1.5105080233246089,0.1033605337142944,-0.8929301500320435,0.2606401443481445
1.750816162109375,0.3950268342476338,-1.419605809389055,-0.8572750009834766,0.3950965106487274,-0.8592424988746643,0.2927482724189758
1.760841064453125,0.4198194032639264,-0.6429810198526829,-3.2420483230590817,0.6740348935127258,-0.6197956800460815,0.4477265775203705
1.7708671875,0.9006875147957354,0.1922118583832867,-5.317901241913438,0.7924811244010925,-0.1142369210720062,0.725744903087616
1.78089306640625,0.7519947176054119,1.2003759062260388,-6.768444918140768,0.6201016902923584,0.4399077594280243,0.9989314675331116
1.790919189453125,0.5507110977604985,1.516803177946061,-8.549252229869365,0.1944084465503692,0.940431833267212,1.1007739305496216
1.800945068359375,-0.2325259860550984,1.2134921390391886,-10.853746146571636,-0.2377904802560806,1.10838520526886,1.0121126174926758
1.81097119140625,-0.4199473039599135,0.753750475231558,-13.86508718690276,-0.4650952816009521,0.9319689869880676,0.8623554110527039
1.820997314453125,0.2727360322979278,0.308194828893058,-16.93643992060423,-0.437784194946289,0.4438408017158508,0.6910175085067749
1.831022216796875,0.0895827653674408,0.2219104474838823,-19.0532345061779,-0.189093679189682,-0.3680728375911712,0.4174054265022278
1.84104833984375,-1.550664677146077,0.5972543838791549,-19.72837833155393,0.2092121392488479,-1.209847331047058,0.0117248548194766
1.85107421875,-3.2460537593081598,1.08403712628223,-19.50821114754081,0.6385940909385681,-1.8149482011795044,-0.4366382956504822
1.861100341796875,-3.979333255049586,1.0397488525487482,-18.30436844198704,0.9841334223747252,-2.155914068222046,-0.8509606122970581
1.871126220703125,-4.143587997704744,0.3967445614183321,-16.496718131518364,1.1975468397140503,-2.231685161590576,-1.13972806930542
1.881152099609375,-3.821428758203983,-0.4066981289494782,-14.544178873121735,1.2335333824157717,-2.05271053314209,-1.20124089717865
1.89117822265625,-3.078262659220397,-0.949562970189005,-12.377702265012264,1.0820658206939695,-1.646872878074646,-1.0556882619857788
1.901203369140625,-2.4097606099464,-1.4349594458654522,-10.168988105154035,0.8075709342956543,-1.1797866821289062,-0.7977141737937927
1.9112294921875,-1.8118420630700884,-1.8767180014759304,-7.953677031248808,0.4820357263088226,-0.7312788963317871,-0.5299487709999084
1.92125537109375,-1.388018684861809,-1.987123665043712,-5.9387371385186905,0.132660686969757,-0.2970759570598602,-0.2911164164543152
1.93128125,-1.0080699580848216,-1.8119908238910136,-3.912365166670084,-0.2312895655632019,0.0967853441834449,-0.0667618885636329
1.94130712890625,-0.6094058633133769,-1.5611774494625628,-1.9932050307840108,-0.5509650111198425,0.4353833496570587,0.1028538271784782
1.9513330078125,-0.509451597263664,-1.3870786275327205,-0.4703571658462285,-0.7808504104614258,0.6389764547348022,0.1668309420347213
1.961359130859375,-0.5486310766160488,-1.1100278190419075,0.7304653151035309,-0.8866277933120728,0.687296450138092,0.1124514564871788
1.97138427734375,-0.5178938469164073,-0.824210862706229,1.4801310052394867,-0.8443863391876221,0.6533962488174438,-0.0448444262146949
1.98141015625,-0.4080969628967344,-0.6643703562967479,1.9968062701463696,-0.6875008344650269,0.5584320425987244,-0.2751988172531128
1.9914365234375,-0.2062592893656343,-0.4471766716690734,2.729483416080474,-0.4878998100757599,0.3749782741069793,-0.5373774170875549
2.00146240234375,0.1245708939772099,-0.2884847507728263,3.44244697676301,-0.2610689401626587,0.1434916853904724,-0.7774642705917358
2.011488525390625,0.5321010167714209,-0.2921331172125413,4.0199236241132015,-0.0085325669497251,-0.0775605365633964,-0.9635465145111084
2.021514404296875,0.6866906169153749,-0.2418389541277661,4.741082181689143,0.2292263060808181,-0.2207594364881515,-1.0892192125320437
2.0315400390625,0.6586834697667509,0.0325637510070577,5.776069372794032,0.3928032517433166,-0.242145150899887,-1.1603507995605469
2.0415654296875,0.6151300861790776,0.3883011792544275,6.885594210749864,0.4478816986083984,-0.1423960328102111,-1.191051721572876
2.05159130859375,0.6156045718230306,0.5610035053245723,7.87230281637609,0.4135383665561676,0.0208056811243295,-1.180469632148743
2.061617431640625,0.7216823622543365,0.4966216340459883,8.501177058008313,0.3228210210800171,0.1695105582475662,-1.1277813911437988
2.071643310546875,0.9706406834006308,0.4013778837747871,8.902869852951168,0.1929591447114944,0.2642423808574676,-1.030269980430603
2.08166943359375,1.218769787181169,0.2930098635144531,9.11165405768454,0.0501237213611602,0.2913156747817993,-0.8768566250801086
2.0916953125,1.5429161088459191,0.2585651575990021,9.114705261948703,-0.100746214389801,0.2529235482215881,-0.6876645684242249
2.10172119140625,1.7130875281989573,0.4560492390304803,9.092835959967973,-0.2443313896656036,0.1688665747642517,-0.4889536798000335
2.111747314453125,1.8067665133714677,0.681403689488396,8.909047664803266,-0.3425985872745514,0.0978768169879913,-0.2896725535392761
2.121772216796875,1.9084388353854416,0.8316971998736262,8.621054898798466,-0.3934159576892853,0.0611017607152462,-0.0983909964561462
2.131798095703125,1.8861534999497236,1.0649443032775074,8.495926882395148,-0.4200994968414306,0.0520526058971881,0.0612263604998588
2.141824462890625,1.759523700681329,1.4379171266272663,8.509325877672433,-0.4516365826129913,0.0784213989973068,0.1796098798513412
2.151850341796875,1.5885826121300457,1.7785457965373992,8.596732358446717,-0.4931275546550751,0.1214149445295333,0.2499751299619674
2.16187646484375,1.4427455696970224,1.964033881357312,8.611074772053957,-0.5428110957145691,0.1535568237304687,0.2585456669330597
2.17190234375,1.247025136937201,2.0027586026795205,8.46475725262761,-0.5801368951797485,0.140422910451889,0.191678762435913
2.181928466796875,0.929825346474722,1.9468572672374544,8.078864668884872,-0.5693646669387817,0.0805527493357658,0.0674547776579856
2.191953369140625,0.596670081185177,1.8796458716213704,7.579995694303512,-0.5019707083702087,-0.0100397365167737,-0.0681416615843772
2.201979248046875,0.5273490730039775,1.7558596252158285,7.0682409346640105,-0.3899293541908264,-0.1123908758163452,-0.1776601523160934
2.21200537109375,0.7202708880212157,1.4885999967686832,6.593719634875654,-0.2669490873813629,-0.2116767168045044,-0.2302511930465698
2.22203125,0.9176532626438886,1.0177728753231463,6.21485183520317,-0.1809717714786529,-0.2889985144138336,-0.2330860048532486
2.232057373046875,1.0820688949491828,0.4608149555949494,5.909957034236192,-0.1637512296438217,-0.2946689128875732,-0.1683370918035507
2.242083251953125,1.4103614495731889,-0.0417397217618301,5.53177487874031,-0.2513239979743957,-0.2603549659252167,-0.0321399942040443
2.252109130859375,1.660008264440298,-0.4741198793806135,5.108812501275539,-0.4425400197505951,-0.2670594751834869,0.1139703392982482
2.26213427734375,1.488822115086764,-0.7407520966444164,4.349892660582065,-0.6261300444602966,-0.2096336781978607,0.2310939133167266
2.27216015625,1.1426480860091746,-0.7710768000204116,2.758023281866312,-0.7098001837730408,-0.1280639767646789,0.289309561252594
2.282186279296875,0.5051036311872303,-0.6353950217030943,0.8914297840416431,-0.7004432678222656,-0.1961315274238586,0.2747851610183716
2.29221240234375,-0.2835880282398313,-0.6433671696260571,-1.1032862358272075,-0.6052483320236206,-0.5334568023681641,0.1357684284448623
2.30223828125,-1.971812260273844,-0.8994096038144082,-3.278484495052695,-0.3762218058109283,-1.0558247566223145,-0.1193523779511451
2.312264404296875,-3.8478222596108913,-1.0309367466703057,-5.766794763970375,-0.0217968709766864,-1.4933542013168335,-0.3195698857307434
2.322290283203125,-4.84956564502269,-0.5371005420917645,-8.04936677172184,0.29481041431427,-1.7366505861282349,-0.3826003670692444
2.3323154296875,-5.313188241916895,-0.2527505530361086,-9.6393937374413,0.5294884443283081,-1.700320601463318,-0.3408704996109009
2.34234130859375,-4.827336277557909,-1.2550102904722094,-10.977103646171091,0.6553534269332886,-1.4519011974334717,-0.1876363456249237
2.3523671875,-2.899850504136085,-3.181616358450055,-11.495829413866996,0.5233631730079651,-1.227738618850708,0.092811033129692
2.362393310546875,-0.8906345420107245,-4.701433477389812,-11.117950040709973,0.1442636847496032,-1.173170566558838,0.4293452501296997
2.372419189453125,-0.6653180124104022,-4.355777919228375,-10.741468843913076,-0.2708597481250763,-1.0526883602142334,0.6804019808769226
2.3824453125,-2.481123572283983,-2.32362458749935,-11.325928774279356,-0.5200372934341431,-0.6059439182281494,0.7250217199325562
2.39247119140625,-4.164169597962498,-0.1746269922561012,-12.598408378207685,-0.559945821762085,-0.0408578366041183,0.5852651596069336
2.40249609375,-4.068310346141457,0.8002364051397889,-13.216126435053347,-0.5284515619277954,0.3262337744235992,0.3405148983001709
2.412522216796875,-3.731476100078225,0.8360510111689567,-13.05108667950034,-0.5139514803886414,0.5036362409591675,0.0061177317984402
2.422548095703125,-3.887965469428897,0.971346712778136,-13.088698325014114,-0.4798066914081573,0.6195001602172852,-0.3375964164733886
2.43257421875,-3.857528245589137,1.4116986895263195,-13.449222074222565,-0.3931461274623871,0.6670548915863037,-0.6611902117729187
2.442600341796875,-3.6365459458008407,1.538751974903792,-13.568113826584815,-0.2353162765502929,0.5005796551704407,-0.9456903338432312
2.45262646484375,-2.742515916132927,1.0180090952318162,-13.00802495188713,-0.0107707995921373,0.1584398597478866,-1.1611404418945312
2.46265234375,-1.4841324959658089,0.2209190983589738,-11.549489692384004,0.204203724861145,-0.2630321979522705,-1.3167887926101685
2.47267724609375,-0.4732996490389108,-0.8302170443184673,-9.346015771266815,0.393675148487091,-0.5816216468811035,-1.3750134706497192
2.482703369140625,0.3445547573126852,-1.7444463969282804,-6.741645758542418,0.5313843488693237,-0.649641215801239,-1.3008315563201904
2.492729248046875,1.020034390514344,-2.2317580585762857,-3.750972827708721,0.5757438540458679,-0.4215643405914306,-1.0816558599472046
2.50275537109375,1.6631437859870493,-2.538508132021129,-0.7658195370793343,0.4762984216213226,-0.001808762550354,-0.7737268209457397
2.51278125,1.954118490412086,-2.6848621840655804,1.9290251118183133,0.2362903505563736,0.4079843461513519,-0.4978475868701935
2.52280712890625,1.9072619005605576,-2.822849097520113,3.8792818122357127,-0.0273935887962579,0.7101916074752808,-0.3023210167884826
2.532833251953125,1.7510101393580435,-2.804215708720684,4.94870084977448,-0.2170823067426681,0.888444185256958,-0.1797879189252853
2.542858154296875,1.5296549146041274,-2.4002606679342686,5.421823388680815,-0.2701798677444458,0.9567833542823792,-0.0809810757637023
2.55288427734375,1.4912125173546371,-1.7689912017285825,5.706483795392513,-0.2014729976654052,0.9483124017715454,0.001574250170961
2.56291015625,1.355839878051728,-1.102647645662725,6.264085529449582,-0.0744046792387962,0.8774580955505371,0.0476494617760181
2.57293603515625,1.0963121590308844,-0.5013838434791192,7.021424238431453,0.0685173273086547,0.8004255890846252,0.0192465838044881
2.582962158203125,0.80325334180817,-0.128437113551842,7.969832631757855,0.2023174166679382,0.7468883991241455,-0.0817307084798812
2.59298828125,0.5739712695777416,0.0162166830465197,8.771851609465479,0.3198011815547943,0.7162767648696899,-0.202453926205635
2.603014404296875,0.5935587442316115,0.1524659042545594,9.451825339215992,0.4002860784530639,0.6583490371704102,-0.2814762592315674
2.613039794921875,1.021017264071852,0.2108762451091781,9.85840123002529,0.4418465495109558,0.5637908577919006,-0.2768668532371521
2.623065673828125,1.6240464319601655,0.184810587417148,10.01127708505392,0.4331119954586029,0.4369110763072967,-0.1792248785495758
2.633091796875,2.115645269408077,0.1668014314632862,10.18768812944889,0.3770394027233124,0.3085342049598694,-0.0264710187911987
2.64311767578125,2.314938592218608,0.3141305025523528,10.325207425391673,0.2833937108516693,0.2168068885803222,0.128879889845848
2.653143798828125,2.262492365666479,0.6774674460180103,10.437925457555057,0.1849616765975952,0.2165994197130203,0.2527597546577453
2.663169677734375,2.051744021253288,1.061823979299888,10.28925699108839,0.1100149676203727,0.3180946111679077,0.3497171700000763
2.67319580078125,1.7519602796897291,1.3971565155632792,9.999121367836,0.0529660582542419,0.455293208360672,0.4207293093204498
2.6832216796875,1.575659417670965,1.6177144524596632,9.671413262036442,-0.0131704360246658,0.5482710599899292,0.4546767175197601
2.69324658203125,1.4985349691972136,1.7086691272348165,9.288487126883863,-0.0862318649888038,0.5772976279258728,0.4465413093566894
2.703272705078125,1.2668532884791492,1.81114034454152,8.9722450024724,-0.1630751639604568,0.5509657263755798,0.377909392118454
2.713298828125,0.9177207018569112,1.9014421083658928,8.513463123607634,-0.2286230027675628,0.5181771516799927,0.2868074476718902
2.723324951171875,0.905701543565467,1.9113833644047376,7.808845950987934,-0.2671070396900177,0.4560048580169678,0.2215057760477066
2.733350830078125,1.1669358473084863,1.7678534298703072,7.103455455908179,-0.2612640857696533,0.3413935899734497,0.1783311367034912
2.743376953125,1.261430386647582,1.5420730821505189,6.545531650289893,-0.2317519634962082,0.2084655910730362,0.1459014564752578
2.75340283203125,1.1097356311623006,1.2957203403927384,6.078517949652672,-0.2000907063484192,0.1072281897068023,0.1230395585298538
2.763427734375,1.066579284068197,1.0259475600808858,5.715204861986637,-0.1874386072158813,0.0301009863615036,0.1499734967947006
2.773453857421875,1.2009699996616692,0.8682597016606479,5.464517452025413,-0.2008502930402755,-0.0270371362566947,0.2148124128580093
2.783479736328125,1.1630953923627734,0.7893993693049997,5.14060932303071,-0.2434199750423431,-0.0493766814470291,0.2904386222362518
2.793505615234375,0.9258116538539528,0.6398492976982146,4.5986569935262205,-0.3307812213897705,-0.0464642457664012,0.3708487749099731
2.80353173828125,0.7530345820471644,0.3792231524487957,3.724805536273122,-0.444240003824234,-0.0187229737639427,0.4381657242774963
2.8135576171875,0.1247443508479744,0.2257255487926304,2.524082424044609,-0.5416022539138794,0.0254639293998479,0.4581778049468994
2.823583740234375,-1.1409520226810126,0.4867274685518816,0.809354727423191,-0.5717872381210327,0.1111967712640762,0.451560378074646
2.833608642578125,-2.364469661976397,0.9270004983123392,-1.4258838667452334,-0.4950858056545257,0.25282022356987,0.4879285097122192
2.843634521484375,-3.1658854130938647,1.3133289161890744,-4.187334784972667,-0.3306986093521118,0.4962975084781647,0.5706155896186829
2.85366064453125,-3.94245459998548,1.6443755187615752,-7.098246781349181,-0.2273690402507782,0.80608069896698,0.6354460120201111
2.8636865234375,-4.856429393312335,2.0526134975641965,-9.55772726162374,-0.2905443608760834,1.0342100858688354,0.6210159659385681
2.873712890625,-5.392109802940488,1.935539169887453,-11.82437864666581,-0.4639566242694855,1.0887577533721924,0.5168064832687378
2.88373876953125,-4.599052130323648,0.6055450231667607,-14.530288294935223,-0.546528160572052,0.8530672192573547,0.3793872594833374
2.893764892578125,-2.368461654222012,-1.623528837826848,-17.22058770161867,-0.4280675649642944,0.2285961359739303,0.3707921504974365
2.9037900390625,-0.2357089634727686,-2.8988609085768458,-18.82306615263224,-0.1597904860973358,-0.5344990491867065,0.4687670767307281
2.913815673828125,-0.620654548688978,-1.9590911642581224,-19.21626701356173,0.1614972651004791,-0.9703384041786194,0.4742388129234314
2.923841796875,-2.506711602526903,-0.4182348009536042,-18.88659549873471,0.4245505630970001,-1.0134540796279907,0.3255665600299835
2.93386767578125,-3.1682118102148173,-0.0294188405774533,-17.739533249545097,0.5604186058044434,-1.0654553174972534,0.1352597028017044
2.943893798828125,-2.326902147865295,-0.8108964039072394,-16.20278545407057,0.6171079277992249,-1.193649172782898,0.0407462976872921
2.953919677734375,-1.2370130076192318,-1.1653197904139756,-15.206692349505424,0.6567307114601135,-1.2120063304901123,0.0462800823152065
2.963945556640625,-0.6476859826732426,-0.5570362821940332,-13.94492936990261,0.6626821160316467,-1.1619396209716797,0.1151348873972892
2.973970947265625,0.0241208802998065,0.1646751782906241,-12.000318566417691,0.6319931745529175,-1.1050153970718384,0.1813487857580185
2.983996826171875,0.4950935476958751,0.5968439399147406,-9.897319866484404,0.5591297745704651,-1.0543333292007446,0.1883649975061416
2.99402294921875,0.7838005994498729,0.8369727291237562,-7.71017748696506,0.476117730140686,-1.0039247274398804,0.1288795620203018
3.004048828125,1.0544590765550732,1.056127302028239,-5.46075663818717,0.4128911197185516,-0.9694575667381288,-0.0045206863433122
3.01407470703125,1.1420621028147635,1.173206159749627,-3.319532544755936,0.4265922904014587,-0.8901483416557312,-0.2312885820865631
3.024100830078125,1.1089154738858342,0.9402776938408612,-1.4182576096504926,0.499736338853836,-0.7378816604614258,-0.4595580101013183
3.034126708984375,1.2226723475776613,0.7539318962130696,0.5623544815421104,0.5598215460777283,-0.5547749996185303,-0.6343052983283997
3.044152099609375,1.498439107607305,0.6642002604268491,2.3602368467122314,0.5875974893569946,-0.3664253950119018,-0.7300186157226562
3.054177978515625,1.971011026893556,0.2762469447620213,3.7179087624967098,0.580183744430542,-0.187594935297966,-0.7552981376647949
3.064203857421875,2.272786672926694,-0.2562305041063576,4.934980367457866,0.5166587829589844,-0.0766518786549568,-0.7406883239746094
3.07422998046875,2.310744647660106,-0.656483110178262,5.953464752051234,0.4060742259025574,-0.0268041640520095,-0.6830061078071594
3.084255859375,2.264412812335044,-0.8244730938389897,6.608918957573175,0.2945493757724762,-0.0207293983548879,-0.5844305753707886
3.094281982421875,2.0777666435211897,-0.6341286550290882,7.25987117550075,0.1936347633600235,-0.0279822517186403,-0.452820360660553
3.104307861328125,1.7787854505121707,-0.2391606382966041,7.929694098114967,0.0942833572626113,0.0078290086239576,-0.324385404586792
3.114333740234375,1.3634895160220564,0.0881391058977693,8.52591402437985,0.0080651203170418,0.0900700837373733,-0.2500211894512176
3.12435888671875,0.9569503039613364,0.2000951407127082,8.937459520295262,-0.0386017635464668,0.1875743865966797,-0.2188513576984405
3.134384765625,0.7789021598838269,0.2195617654658853,9.208293061706422,-0.0537000223994255,0.233252927660942,-0.2003586292266845
3.144410888671875,0.7355183607093989,0.2050456757921725,9.28043475333154,-0.0233524367213249,0.2410118728876114,-0.1787438988685608
3.154436767578125,0.814312057569623,0.1312806207489222,9.20567265007496,0.041765846312046,0.2282859534025192,-0.132512480020523
3.164462890625,0.8991048487141727,0.0389985698275268,9.30389921554923,0.1105114445090293,0.2203151583671569,-0.0394553616642952
3.174489013671875,1.066023549881577,0.058311684519425,9.473348019716145,0.1413162350654602,0.262383759021759,0.0916163697838783
3.184514892578125,1.1834069435074923,0.2184220939114689,9.783664845731854,0.1029383465647697,0.3852796852588653,0.2393856197595596
3.1945400390625,1.2267135857924818,0.4733834548648447,10.158085602867605,-0.0154279759153723,0.5677698254585266,0.3916095197200775
3.20456591796875,1.190904898047447,0.7140160654101521,10.358770672297478,-0.1892389357089996,0.7301769256591797,0.5074445605278015
3.214592041015625,1.1420520198121666,0.8155776205260307,10.239746817988156,-0.3643575012683868,0.8213236331939697,0.5630423426628113
3.224617919921875,1.089466823180765,0.784672925304994,9.830990660530327,-0.4824643731117248,0.8020880222320557,0.5510770082473755
3.234643798828125,0.9656181790634988,0.8025245160769671,9.223030027589202,-0.5037912130355835,0.6764344573020935,0.4893995225429535
3.244669921875,0.7865943948868661,0.791411366714537,8.576486273753643,-0.4152742624282837,0.4824950993061065,0.3889788687229156
3.25469580078125,0.6451503997810184,0.7524874695584177,7.987720755147934,-0.2479191124439239,0.2927406132221222,0.2805919349193573
3.264720947265625,0.6172922326490282,0.7754708702608942,7.71375885258317,-0.0585474446415901,0.1093577072024345,0.1685299128293991
3.274746826171875,0.5971802226644009,0.7515687472783029,7.710669654396176,0.0856874957680702,-0.0223728939890861,0.0710132047533989
3.284772705078125,0.7709481321394444,0.5879707149662077,7.787372370326518,0.1409226059913635,-0.0418989397585392,0.0207516811788082
3.294798828125,1.0243027154833078,0.3972203987691551,7.915687784594297,0.072988286614418,0.0224763192236423,0.0310109760612249
3.30482470703125,1.2157775465626268,0.1994998051680624,8.003425104758144,-0.110372357070446,0.1634109914302826,0.0697799101471901
3.314850830078125,1.3530924790397283,0.0883084345826879,7.868159140700102,-0.3426814973354339,0.3740193545818329,0.1122727766633033
3.324876953125,1.4047975318357349,0.1517306305162608,7.118729012885689,-0.5521197319030762,0.6170455813407898,0.1508402526378631
3.334901611328125,1.3311989194005729,0.2808105994157493,5.840856025481224,-0.6959858536720276,0.848127543926239,0.2089834511280059
3.344927978515625,1.431334241105616,0.2338256522105075,4.236552112606168,-0.7640610337257385,0.9854574203491212,0.2588988244533539
3.354953857421875,1.224694135728851,-0.0179083441941998,2.370764085945487,-0.7969542741775513,0.919861614704132,0.2407147586345672
3.36497998046875,0.5872474421929568,-0.4612245227765291,0.2619797883480787,-0.7842382788658142,0.6878461837768555,0.1928549259901046
3.375005859375,0.1074137152101844,-0.5985567717146129,-2.269652904945612,-0.6594609022140503,0.4185209572315216,0.1781582832336425
3.385031982421875,-0.3668514178600162,0.1287361238978803,-5.046009715881944,-0.4398329555988312,0.4209837913513183,0.2041125446557998
3.395057861328125,-1.0237966656573116,1.5538697567977011,-7.755141248807311,-0.2758086025714874,0.7913914322853088,0.3023906648159027
3.405082763671875,-1.3917378515154122,2.9174948818981647,-9.912116453599928,-0.3358209133148193,1.2589459419250488,0.4410398602485657
3.41510888671875,-1.3858638449154794,3.0863436743453145,-11.44949553271532,-0.6096867918968201,1.4560188055038452,0.507145345211029
3.425134765625,-0.8947355475887656,1.715462440636754,-13.06628892480731,-0.8985891938209534,1.267709732055664,0.4890559315681457
3.435160888671875,0.336719058718346,-0.3004453107448294,-15.216540374302864,-1.0401146411895752,0.7597863674163818,0.45309978723526
3.445186767578125,1.5175531195305287,-1.3017270334616302,-16.801099722266198,-0.9910134673118592,-0.0518062263727188,0.4665860831737518
3.455212646484375,1.686791641947627,-0.3848133736712857,-17.461167559063433,-0.7464407086372375,-0.8301363587379456,0.4260533154010772
3.46523876953125,-0.3769877580795437,1.5661771574459968,-17.91918020712137,-0.3543949723243713,-1.2335679531097412,0.2162781506776809
3.475263671875,-2.628923731483519,2.925109448555112,-17.960385493212936,0.0873318240046501,-1.3588507175445557,-0.117380790412426
3.48528955078125,-3.488452941134572,2.985355827464163,-17.280519900012017,0.4620306491851806,-1.371722936630249,-0.4647169113159179
3.49531591796875,-3.688865331102908,2.5546958812341094,-16.167835721242426,0.6742417216300964,-1.2545816898345947,-0.7412140369415283
3.505341796875,-3.576192014864087,2.2287004245713358,-15.058237818050385,0.732181191444397,-1.0402051210403442,-0.8913711309432983
3.515367919921875,-2.957159368288517,1.6276229752726852,-14.254291087150571,0.7248572111129761,-0.8249949812889099,-0.9149491786956788
3.525393798828125,-2.2707857083678245,0.8564910109989344,-13.60995390344858,0.7132622003555298,-0.6456426382064819,-0.8542521595954895
3.535419921875,-1.6278119219735263,0.3879576265137642,-12.696695733958482,0.6852409243583679,-0.5350942611694336,-0.7397940158843994
3.54544580078125,-0.9594304303392768,0.0973126928992103,-11.05830893421769,0.6032142043113708,-0.5592533349990845,-0.5868680477142334
3.555470703125,-0.5336545298237353,-0.0920101660443004,-8.68827900776565,0.4682893753051758,-0.6925647854804993,-0.4334939420223236
3.565496826171875,-0.3507152527038008,-0.053975459113135,-6.072874390807748,0.3098761439323425,-0.8686564564704895,-0.2955066263675689
3.575522705078125,-0.2191314112246036,0.3089290249191224,-3.490962878128886,0.1684223413467407,-0.9758049845695496,-0.1691582798957824
3.585548828125,-0.0254163269378244,0.6471715303450822,-1.1905419099539518,0.083388976752758,-0.8615437150001526,-0.0931244641542434
3.59557470703125,0.2377178921423852,0.4823518472835421,0.7155769580513238,0.0372782088816165,-0.5623506307601929,-0.098743200302124
3.6056005859375,0.4831514732286334,0.108192663693428,2.6882430586755275,-0.0274920836091041,-0.2245612442493438,-0.1534835398197174
3.61562646484375,0.7823528848595916,-0.1759884350687265,4.663024544018507,-0.1196323931217193,0.0972647294402122,-0.2165711522102356
3.6256513671875,1.0104862254463136,-0.4212685791589319,6.06070990576148,-0.2062920778989792,0.3483891785144806,-0.2576983273029327
3.635677490234375,1.390437436441332,-0.7220677083101124,6.720740917679667,-0.2669794261455536,0.4199744164943695,-0.2478797733783722
3.645703369140625,1.8178117851294573,-1.0249999039672315,7.037165412920713,-0.2886870503425598,0.3205944001674652,-0.2064612507820129
3.655729248046875,2.204343981949985,-1.174420503975451,7.189500585201382,-0.2536539435386657,0.1347749829292297,-0.1444745808839798
3.66575537109375,2.344507801052183,-1.142380009657517,7.385878312826156,-0.1863041073083877,-0.0768541246652603,-0.0705208331346511
3.675781494140625,2.454381403569877,-1.066785181903839,7.780611205628514,-0.0944351777434349,-0.1959067434072494,0.0233079213649034
3.6858076171875,2.4894904186129567,-0.8232291581925004,8.312174243065714,-0.0182408802211284,-0.1895676106214523,0.1064602807164192
3.69583251953125,2.1346569900006056,-0.4238124184228479,9.12448489768505,0.0099409567192196,-0.0896559208631515,0.1491004079580307
3.7058583984375,1.8784521317921576,-0.1583718220964074,9.910360549843311,-0.0175756439566612,0.0644287690520286,0.1460642516613006
3.715884521484375,1.749485414008796,0.0418650560413952,10.40242510510683,-0.0617990270256996,0.1766647696495056,0.1038198545575141
3.725910400390625,1.7528215726941825,0.1734010854566469,10.621454809522628,-0.0793709903955459,0.2160845845937729,0.0611057393252849
3.7359365234375,1.9410709389209744,0.2048001035332679,10.560192239308355,-0.0688043683767318,0.2041038274765014,0.0542616806924343
3.74596240234375,2.0602644507087766,0.2709090543327853,10.505810660779476,-0.0896671265363693,0.157900333404541,0.0796036347746849
3.755988525390625,2.1779136556640264,0.311720847594738,10.50649338234663,-0.1384402513504028,0.0812106281518936,0.1067590937018394
3.766013671875,2.1896124228946863,0.2309130344331264,10.335112733334302,-0.1564657092094421,-0.0043012145906686,0.1123683750629425
3.77603955078125,1.889478698849678,0.1970292320697568,10.148903933024403,-0.1193327233195304,-0.0520053543150424,0.087371677160263
3.7860654296875,1.636208725049347,0.2040828221093863,9.935396791422368,-0.0456186309456825,-0.0507818982005119,0.0651811361312866
3.79609130859375,1.6341504773452875,0.1686928529667667,9.81211177253723,0.0402094647288322,-0.0110259614884853,0.0750036686658859
3.806117431640625,1.5725200967319308,0.137020461308863,9.866044438254832,0.0901350677013397,0.0795979872345924,0.1023896560072898
3.816143310546875,1.4907349629707634,0.1395244069538079,9.912280119729042,0.0757286995649337,0.2135440707206726,0.1400084048509597
3.82616943359375,1.4215611812405289,0.1313225601945072,9.840657483541966,-0.006385363638401,0.3159031271934509,0.1689672470092773
3.836195556640625,1.4340724338978528,0.0526434661572799,9.54381154899597,-0.1062637642025947,0.4264839589595794,0.2023643553256988
3.846220703125,1.652434614315629,-0.0448318790908902,8.901082385012506,-0.1809531301259994,0.5453284978866577,0.2665383517742157
3.856246826171875,1.7660839359797535,-0.0561943453055806,8.246512561109661,-0.2437853664159774,0.5644851326942444,0.3382509052753448
3.866272705078125,1.529875279356539,-0.0035577107478864,7.58350574825108,-0.3109461069107055,0.4691768586635589,0.3529365062713623
3.87629833984375,1.0525217518169432,0.0024404884872958,6.66739511193931,-0.3545774817466736,0.2416265308856964,0.2673529088497162
3.886324462890625,0.4925169752061367,0.015405805055052,5.349682866099476,-0.3276928961277008,-0.1280931979417801,0.0832869112491607
3.896350341796875,0.3376841408908367,0.0156375314516946,3.6357910357803114,-0.1595408916473388,-0.3745706081390381,-0.1228739768266677
3.90637646484375,0.7148099192015827,0.0159553286965936,1.3390589852511885,0.0983380451798439,-0.2911995649337768,-0.2683960199356079
3.916401611328125,1.0042149631571025,0.2348469763485714,-0.7461164732217789,0.2683310806751251,0.151492103934288,-0.3092483878135681
3.926427490234375,0.8135578051362187,0.4413466868739575,-2.259634199756384,0.1476707309484481,0.6670334339141846,-0.257526695728302
3.93645361328125,0.2186553181454539,0.4701561268487945,-3.288538856077194,-0.2369341999292373,0.8410630226135254,-0.1870016604661941
3.9464794921875,-0.6622654929719864,0.1930312302084639,-4.580004900026321,-0.5416275858879089,0.8029139041900635,-0.1430603861808776
3.956505615234375,-1.8013440499313174,0.1737151198418811,-7.354511114659905,-0.5945008993148804,1.0017340183258057,-0.1118326857686042
3.966531494140625,-2.3736487014710903,0.4708187554759904,-10.475055457031726,-0.5538678765296936,1.4883747100830078,-0.0205213520675897
3.9765576171875,-1.7588636293374,0.2204015042256563,-12.28401042035818,-0.6416933536529541,1.8258140087127688,0.1417602300643921
3.98658251953125,-0.3854557997606694,-1.2464946833223105,-12.61135436902046,-0.8511175513267517,1.780137062072754,0.2420860975980758
3.996608642578125,0.1544949075978249,-2.6404499186262487,-12.817443927842378,-0.9588016867637634,1.4762227535247805,0.2098306864500045
4.006634765625,-0.780236477227509,-1.789866816496849,-13.712871841609475,-0.8366788029670715,1.0505534410476685,0.0544152073562145
4.01666064453125,-2.6404130937471986,0.4017348805189132,-15.074885001468658,-0.431530237197876,0.7193260192871094,-0.1954819709062576
4.026686767578125,-3.8516575999900695,1.4920817014046013,-16.16648430663347,0.0997239127755165,0.4456290602684021,-0.4594669938087463
4.036712646484375,-3.8517040694803,0.9758752230532468,-16.317372787237165,0.5424661636352539,0.2889704704284668,-0.6743050217628479
4.046738525390625,-3.8018247708067294,0.2975827974531799,-15.858198109662531,0.7453436255455017,0.3572322428226471,-0.7790079712867737
4.056763671875,-3.687484690399468,0.1035786670919507,-15.266637407380342,0.7133068442344666,0.6043893098831177,-0.7573066353797913
4.06678955078125,-3.333423122942448,-0.0206969702657312,-14.849397499215602,0.5297233462333679,0.776717483997345,-0.6561285853385925
4.076815673828125,-2.5238386784166096,-0.3188964017799124,-14.388646950626372,0.3241899311542511,0.6814711093902588,-0.5075332522392273
4.086841552734375,-1.380080146947503,-0.610772438958846,-13.938151254069805,0.209041342139244,0.3483488261699676,-0.3551291227340698
4.096867431640625,-0.6626712972939014,-0.4989159920608624,-13.06830084915161,0.2171927541494369,-0.1448302417993545,-0.2239117324352264
4.1068935546875,-0.2537893214993179,0.0764770174156874,-11.31989650837779,0.2911974489688873,-0.6978241801261902,-0.1523250639438629
4.11691943359375,-0.3706240682665258,0.6670392832450568,-8.76371915641427,0.3899698257446289,-1.2267670631408691,-0.1997543573379516
4.12694580078125,-0.7734134262744337,0.9370315515264868,-5.881693062782287,0.5306469798088074,-1.5997697114944458,-0.372014433145523
4.136970458984375,-0.8077067410204559,0.8072291135713457,-3.26842311976552,0.7195857167243958,-1.749869704246521,-0.5488211512565613
4.14699658203125,-0.1014028208902105,0.5288767940279097,-0.6530079814136028,0.8895952701568604,-1.7011529207229614,-0.6300041079521179
4.157022705078125,0.9466956711243838,0.324764088236913,2.01855223800838,0.9631943702697754,-1.4801558256149292,-0.5853338837623596
4.167048583984375,1.6843755207166076,0.1065059070497285,4.503303353139758,0.9019469618797302,-1.1017345190048218,-0.4850858449935913
4.17707470703125,1.9266154203280803,0.0307861719914595,6.691227238425612,0.722194254398346,-0.6571080088615417,-0.3822886347770691
4.1871005859375,1.996087892743945,0.051614474735991,8.326536530417203,0.4644622504711151,-0.2707002162933349,-0.3126309514045715
4.197126708984375,2.0254086797744035,0.0849513518402818,9.210843330711128,0.1944329142570495,-0.0133751928806304,-0.2656187117099762
4.207151611328125,1.9762781536415217,0.2091639247659593,9.475615964648126,-0.026026464998722,0.1236458718776702,-0.2483127117156982
4.217177490234375,1.6426295518770813,0.4607718836382031,9.26412074739039,-0.1671993136405944,0.176230251789093,-0.2479334771633148
4.22720361328125,1.4424565236225724,0.5847087905608117,8.817380019453168,-0.2074176967144012,0.1586756706237793,-0.2554063498973846
4.2372294921875,1.3915681940369309,0.5724927214577794,8.42663824211359,-0.1564376056194305,0.0665516108274459,-0.2849136292934418
4.24725537109375,1.1818935432698576,0.4933903239745646,8.314348664495348,-0.0313646830618381,-0.0440219193696975,-0.3276854157447815
4.257281494140625,1.0466798939209432,0.4398533065110445,8.296616608449817,0.1160977408289909,-0.1040399819612503,-0.3547556400299072
4.267307373046875,0.9785958071235566,0.5396184797294438,8.488100134292244,0.2259048223495483,-0.1053775548934936,-0.3608573377132416
4.27733251953125,0.9063695059549064,0.7000280181985348,8.821855119040608,0.2498152107000351,-0.0428752973675727,-0.3593510687351227
4.2873583984375,0.6348027548983692,0.7690629759799689,9.249414761167763,0.1711690574884414,0.0256382152438163,-0.3697202205657959
4.297384521484375,0.3804092569608241,0.7034238711819052,9.543635607907175,0.0269114691764116,0.0553732067346572,-0.3841742575168609
4.30741064453125,0.3219534147303551,0.4726605839503929,9.487748300990464,-0.1150002405047416,0.0360510386526584,-0.3647772669792175
4.3174365234375,0.3451894750196486,0.1407121189010329,9.080422468596696,-0.2099411338567733,-0.0072144079022109,-0.3113944828510284
4.327462646484375,0.256989286584407,-0.057143563188659,8.678947700318693,-0.2482475936412811,-0.0576011314988136,-0.2320312410593032
4.337488525390625,0.203782597053796,-0.1319661735939793,8.444121291834115,-0.2479900419712066,-0.0974433496594429,-0.140610784292221
4.3475146484375,0.1187500058040022,-0.13594435650995,8.340373332589865,-0.2389306277036667,-0.1273036748170852,-0.0728859007358551
4.35753955078125,0.0789224378064274,-0.1194177307314239,8.337691546159983,-0.2349824905395507,-0.1445550918579101,-0.0156937222927808
4.3675654296875,0.1931699445594102,-0.0950806321313604,8.337558859691024,-0.2398768067359924,-0.1530297994613647,0.0259988736361265
4.377591552734375,0.2617454681355506,0.0263963806338724,8.386766834974289,-0.2554696202278137,-0.1712069362401962,0.054409209638834
4.387617431640625,0.3126468763984739,0.1571887315253727,8.282674592337012,-0.261242926120758,-0.1860808283090591,0.0834231525659561
4.3976435546875,0.5483354546703398,0.1880559625465422,8.030388515007495,-0.2481961250305175,-0.2025026828050613,0.1360418945550918
4.40766943359375,0.8668237505733967,0.1155255090658552,7.933950586515665,-0.2475836426019668,-0.2163264900445938,0.2067636549472808
4.4176953125,1.0153503243513404,0.0472412052549421,7.854165102139115,-0.2844188511371612,-0.1923889368772506,0.2831897139549255
4.427720458984375,1.1044195507060737,0.0338989268672652,7.7150886398822065,-0.3436772227287292,-0.1452402174472808,0.3650507032871246
4.437746337890625,1.2106567694827914,0.062646608451195,7.513263752767443,-0.4210250079631805,-0.1032810509204864,0.4313564896583557
4.447772705078125,1.0482960238806902,0.0105082605381496,7.207137364178895,-0.4925754070281982,-0.0566763654351234,0.4417414665222168
4.457798583984375,0.7025957497946917,-0.0462943528588861,6.542378739216924,-0.5370429754257202,0.0048985811881721,0.4112365543842315
4.467824462890625,0.3782093357637524,-0.1604413949120789,5.44229334525764,-0.5461574792861938,0.0583552792668342,0.3738208711147308
4.4778505859375,0.0501324697170406,-0.392515326350741,4.056735643681884,-0.5137311220169067,0.1187994554638862,0.3280896246433258
4.48787646484375,-0.6506987546231597,-0.5674172813570126,2.218236605963111,-0.4443705677986145,0.2303720712661743,0.2631044387817383
4.497902587890625,-1.4606211258664723,-0.5000172678336501,-0.2512216629683971,-0.3461686372756958,0.4851196706295013,0.2845942974090576
4.507927490234375,-1.7289970449924468,-0.0996133436575531,-3.1954204273968934,-0.2975599765777588,0.7896881699562073,0.4375802874565124
4.517953369140625,-2.063835441063344,0.5614300601735711,-5.899098371091485,-0.3676692843437195,0.9665569067001344,0.5785025358200073
4.5279794921875,-2.754371481360495,1.0390441383454947,-8.5024700204283,-0.4635627865791321,1.0571104288101196,0.6123641729354858
4.53800537109375,-2.9716730468094346,0.9986940808437764,-11.617688199341297,-0.4836494028568268,1.1237701177597046,0.5585164427757263
4.548031494140625,-1.9322363289497797,0.2418452012054622,-14.562164611667392,-0.4504798352718353,0.9788135886192322,0.4859261810779571
4.558057373046875,-0.0520905815148726,-0.8672354731794446,-16.911082191985845,-0.3860491812229156,0.6371619701385498,0.4598191976547241
4.56808349609375,0.6602942659642547,-0.4420985281545668,-18.492072449290752,-0.3106566369533539,0.3517830669879913,0.4488533437252044
4.5781083984375,-0.058287079801131,1.5321319722421467,-19.52216134696007,-0.2167495638132095,0.2151591777801513,0.3482167422771454
4.58813427734375,-0.6874203194294124,2.433750703473389,-20.09192990415096,-0.0466353073716163,0.0598709844052791,0.1295826137065887
4.59816064453125,-1.0520981195773929,2.0128104794859887,-20.379213060581684,0.2092238962650299,-0.1223923042416572,-0.164130225777626
4.608186767578125,-1.4086042306423183,1.8834524242974815,-20.06288618049621,0.4624919891357422,-0.2826600074768066,-0.4096416234970093
4.618212890625,-1.2433574082098902,2.213911436240375,-19.020159919571874,0.6451387405395508,-0.4170891940593719,-0.5443525910377502
4.62823876953125,-0.6630602235462516,2.195558033426106,-17.655502382683753,0.7189313173294067,-0.5229182839393616,-0.5589998364448547
4.6382646484375,-0.0738389605296775,1.7996059740923345,-15.725329269874097,0.6393571496009827,-0.6233450174331665,-0.4765332043170929
4.648289794921875,0.4517428836060688,1.4786226465031505,-13.220844695746898,0.4562020301818847,-0.7414303421974182,-0.326388269662857
4.658315673828125,0.8980753595359623,1.322999830853939,-10.47483918393254,0.2784943580627441,-0.844248354434967,-0.1546626091003418
4.668342041015625,0.8917077242001891,1.4996949528872965,-7.8306188068568705,0.1861811280250549,-0.8290795087814331,-0.0834547877311706
4.678367919921875,0.2446705608244985,1.729843724949658,-5.4137102248519655,0.1987009197473526,-0.7482706904411316,-0.194417268037796
4.688393798828125,-0.3783621151726692,1.7141585184313357,-3.102148269459605,0.2931693494319916,-0.6578550934791565,-0.4264605939388275
4.698419921875,-0.3541311255618929,1.3367736507929862,-1.2213795312881468,0.4551180303096771,-0.5395841002464294,-0.6509370803833008
4.70844580078125,0.2292647557694464,0.8174042514313012,0.2806786435991525,0.6140103340148926,-0.4497885704040527,-0.7675943374633789
4.718471923828125,1.0056133587129414,0.3224841971388086,1.8179285433769223,0.6989302635192871,-0.4140556156635284,-0.7774565815925598
4.728496826171875,1.6200585313677789,-0.1932836340669542,3.2297868073791265,0.7011628746986389,-0.418014794588089,-0.7214382290840149
4.738522705078125,1.8856512495160105,-0.6218964385088532,4.541245838043094,0.6433866620063782,-0.4428623616695404,-0.6239084601402283
4.748548828125,2.0088155646309254,-0.8724669440921395,5.707567498975992,0.5580809712409973,-0.4436858892440796,-0.4795459508895874
4.75857470703125,2.135633872208744,-0.8934260724253952,6.646686670431494,0.4769525825977325,-0.3961103856563568,-0.3208218216896057
4.768600830078125,1.883615359774232,-0.6996529012758285,7.59130034765005,0.3934240341186523,-0.3114588260650635,-0.1968324482440948
4.778626708984375,1.427564951699972,-0.4647796579748391,8.40931359782517,0.3106521964073181,-0.1778738647699356,-0.119073212146759
4.78865283203125,1.112514521291107,-0.2665587136361748,9.060297964456677,0.2319002300500869,-0.0263115167617797,-0.0813998058438301
4.798677734375,0.935936449766159,-0.0881357905626762,9.517489943781497,0.1633509844541549,0.0956591293215751,-0.0402952469885349
4.80870361328125,0.9687020434882492,0.0390567480218596,9.71149801966548,0.105600006878376,0.1703952550888061,0.021761380136013
4.81872998046875,1.0857718411203474,0.1989302981844171,9.804537537890672,0.0428047999739646,0.2153329104185104,0.093892827630043
4.828755859375,1.10512324199602,0.3919787352560088,9.796607913935183,-0.0184088442474603,0.2565010786056518,0.1627654880285263
4.838781982421875,1.0806460225392132,0.5814396326970309,9.76833985082805,-0.0727051049470901,0.2729394435882568,0.2127250581979751
4.848807861328125,1.0533526496831327,0.6937938730493187,9.677839495691655,-0.1185162216424942,0.264363944530487,0.2410704791545868
4.858833740234375,1.0654454577326773,0.7342514095135033,9.476703175362944,-0.1518073379993438,0.2407057583332061,0.2465880215167999
4.86885888671875,0.8846772410415112,0.8236552746500819,9.230480343595149,-0.1660194247961044,0.2376510947942733,0.2295438647270202
4.878884765625,0.785235454558581,0.9111691613215952,8.946161297667025,-0.1777205467224121,0.2330446243286132,0.1955046653747558
4.888910888671875,0.68877246469073,0.8883413165070116,8.745120254406332,-0.1767358928918838,0.2036110311746597,0.1516138613224029
4.898936767578125,0.7186315963815897,0.7260381463110447,8.556594993847607,-0.1554609686136245,0.1293434500694275,0.1079372242093086
4.908962646484375,0.6833988088283688,0.5851898520760238,8.427996086463331,-0.1214271411299705,0.0264013223350048,0.0489304848015308
4.91898876953125,0.5662894098382443,0.5020664189158007,8.34357242089212,-0.0790192335844039,-0.0662868022918701,-0.0015955384587869
4.9290146484375,0.5651611364606768,0.3060982584726065,8.345582591670752,-0.0295790992677211,-0.1249634698033332,-0.0145306764170527
4.939040771484375,0.7258997607536614,0.0563174099962459,8.460248835292457,0.0030960221774876,-0.1370078772306442,0.015841344371438
4.94906591796875,0.9056115271944551,-0.1925193899624981,8.562843532848358,0.0124975573271512,-0.0733254253864288,0.0859398171305656
4.959091796875,1.1374448913428932,-0.3882295022577047,8.582550688359142,-0.0286165904253721,0.0718813017010688,0.2041665911674499
4.969117919921875,1.3905565327763556,-0.4385292913656681,8.570396724706887,-0.1442001014947891,0.2724489271640777,0.3531537652015686
4.979143798828125,1.6335791071981192,-0.3421494132040068,8.39465028170049,-0.3269568681716919,0.4715409874916076,0.4908519685268402
4.989169921875,1.7211211970508098,-0.2697827719829045,7.905446961086988,-0.526201605796814,0.5967338681221008,0.5771608352661133
4.99919580078125,1.591124697828293,-0.2548895743587985,7.132670444476604,-0.6829984188079834,0.63863605260849,0.5869916081428528
5.009221923828125,1.3329805421203371,-0.2436575113244354,5.98959697266221,-0.7416923642158508,0.6027730703353882,0.5600064992904663
5.0192470703125,1.2391241545543077,-0.2441198864054866,4.594111166790127,-0.7125547528266907,0.4694607853889465,0.5165051221847534
5.02927294921875,0.9831104350037873,-0.3496242791293188,3.018663346043229,-0.6028203368186951,0.2965704798698425,0.4349501430988312
5.039299072265625,0.4974314525915309,-0.5383144479261711,1.0714145952701568,-0.4103627502918243,0.1256261616945266,0.3789012432098388
5.049324951171875,0.571747456048429,-0.5907381338529288,-0.82854750367105,-0.1435209661722183,0.0797280222177505,0.4328781366348266
5.05935107421875,1.1083652926571663,-0.0537207034673541,-2.532570266404748,0.0972823277115821,0.3004723787307739,0.5873124003410339
5.069376953125,0.4277073069695383,1.321580319444835,-4.037223133960366,0.1274789571762085,0.8831758499145508,0.6922999620437622
5.079402587890625,-1.7982612814851104,2.9585870630040763,-5.730077436947823,-0.1391327530145645,1.6447728872299194,0.668257474899292
5.0894287109375,-3.357227484638989,3.4031089458480475,-7.723769958987831,-0.5736518502235413,2.181118965148926,0.5875686407089233
5.099453857421875,-3.217641027033329,2.0588219968155026,-10.72667693297267,-0.911231517791748,2.288412094116211,0.5101470947265625
5.10947998046875,-1.8968010045617816,-0.2544206782054156,-14.969251374608277,-1.0030728578567505,1.916697382926941,0.5129813551902771
5.119506103515625,-0.0898187295477837,-2.0108619757667183,-18.861139570438866,-0.8694740533828735,1.072853684425354,0.6353210806846619
5.129531982421875,0.5864985235217959,-1.5184215729281303,-21.107267807412143,-0.5658904314041138,0.2462871968746185,0.7402403950691223
5.13955810546875,-0.7399222947567701,0.7920288410257548,-22.160716537880894,-0.2188022434711456,-0.1833981275558471,0.6651054620742798
5.149583984375,-1.9790343204818663,2.2454954920277,-21.42623205026388,0.0608380623161792,-0.3892875611782074,0.4531620442867279
5.159610107421875,-1.9982859873101115,1.7057912337109449,-19.57256466950774,0.2043123990297317,-0.4485380947589874,0.1747533529996872
5.169635009765625,-1.930055331648886,0.9371351580314338,-17.524945911490917,0.1958114951848983,-0.3280860781669616,-0.1007996946573257
5.179660888671875,-1.7236816951885818,0.9967769951760768,-15.96460213637352,0.1196759790182113,-0.1415558755397796,-0.2654288411140442
5.18968701171875,-1.1549896081227808,1.265016720701754,-14.794071333312989,0.0113023649901151,0.0022364461328834,-0.3284014165401459
5.199712890625,-0.5054754967069253,0.9836415462058036,-13.668674972486496,-0.0945886522531509,0.0467232204973697,-0.3354438841342926
5.209739013671875,-0.2201603524135425,0.3836553992751985,-12.289591435360908,-0.1727038621902465,-0.0241687186062335,-0.334329605102539
5.219764892578125,-0.3761770262185483,-0.0020659926190972,-10.59351466319561,-0.197066456079483,-0.2115652412176132,-0.3015511631965637
5.229791015625,-0.0591789323406293,-0.3291004369407892,-8.722788595610856,-0.1304812729358673,-0.424908310174942,-0.2063269168138504
5.23981689453125,0.3732404247773811,-0.668968716937676,-6.591573855018615,-0.0161174088716506,-0.5856153964996338,-0.094761773943901
5.249841796875,0.4073883031707256,-0.7686347406305373,-3.937227805247903,0.0640745386481285,-0.653372049331665,-0.0105725573375821
5.259867919921875,0.6806388425957411,-0.8424007455218583,-1.1863374440014365,0.1037740111351013,-0.6259697079658508,0.0628563836216926
5.269893798828125,1.0364251149535175,-0.9581141601089388,1.389481597021222,0.1050040051341056,-0.5637827515602112,0.1067413538694381
5.279920166015625,1.073332265459746,-0.9496532788209616,3.639488721254468,0.0889858901500701,-0.53181391954422,0.0696991756558418
5.289946044921875,0.7789664572916924,-0.8256498825334012,5.401175152927637,0.1007070243358612,-0.5569250583648682,-0.0658914297819137
5.299971923828125,0.2689112133127637,-0.5770400094985961,6.712572224271297,0.2024949043989181,-0.5622040033340454,-0.2845201790332794
5.309998046875,-0.2689701952246949,-0.1410553611144423,7.665180407375097,0.3804948627948761,-0.5187945365905762,-0.5081554651260376
5.32002294921875,-0.5656927591193467,0.2103476546578109,8.599135912457108,0.5644758939743042,-0.3986009955406189,-0.6763988137245178
5.330049072265625,-0.7371586752623319,0.1867647536922246,9.419759052869678,0.6747974157333374,-0.1881886571645736,-0.7575878500938416
5.340074951171875,-0.6526403171449899,-0.2916496810771525,10.032667079085112,0.6776217222213745,0.0285100899636745,-0.718192994594574
5.350100830078125,-0.1544574799305759,-0.8607616740554571,10.598574284672736,0.5572161674499512,0.1627005934715271,-0.5695592164993286
5.360126953125,0.3298381766308099,-1.1552983087457716,10.945579211616517,0.3489343822002411,0.2556987106800079,-0.3396244943141937
5.37015283203125,0.7030301956892013,-1.2442267383903265,10.855871468162537,0.1394017338752746,0.306522935628891,-0.0757556334137916
5.380178955078125,0.7998078044641762,-1.000899920324981,10.599710595226288,-0.0136860813945531,0.2754190862178802,0.1209856569766998
5.390204833984375,0.3540506807368248,-0.4069713198676705,10.292195967149734,-0.0728401988744735,0.2182143181562423,0.1780861318111419
5.400229736328125,-0.2132889505404047,0.1862749608812853,9.740658647698163,-0.0245573502033948,0.1653622835874557,0.1106282621622085
5.410255859375,-0.504455067618005,0.6310786198087036,9.202924228149651,0.0933754593133926,0.0748548209667205,-0.0167199913412332
5.42028173828125,-0.4484770867431536,0.7656577706463634,8.988916151288151,0.2147415727376938,-0.0384195446968078,-0.1281604915857315
5.43030810546875,-0.1159982411441393,0.640799072703719,8.940925735101104,0.2966932952404022,-0.142045572400093,-0.202280968427658
5.440333984375,0.0702976757602067,0.4998278827413916,9.061509093812107,0.32393479347229,-0.2275804430246353,-0.2514479756355285
5.450360107421875,0.1699767370311543,0.3860637755911797,9.19999928061366,0.2956513464450836,-0.2543524801731109,-0.2542552351951599
5.460385986328125,0.3621748774163424,0.2479040628530085,9.245100405099988,0.2354892045259475,-0.2370240837335586,-0.2289067506790161
5.470411865234375,0.4192171995870768,0.1252424730958417,9.159273302471638,0.1600368916988372,-0.1785671114921569,-0.1957809925079345
5.48043701171875,0.611082600886561,-0.0031754151657223,8.885299709469079,0.0716447085142135,-0.083926610648632,-0.1283976882696151
5.490462890625,0.913763123337552,-0.1111586921584792,8.522739485996961,-0.0179244726896286,-0.0072695156559348,-0.0250647831708192
5.500489013671875,1.1330962676793337,-0.1789402706116437,8.103474794006347,-0.0896756201982498,0.0519549250602722,0.0759888589382171
5.510514892578125,1.0581637032266706,-0.0711008408026769,7.727310408073663,-0.1568752080202102,0.087685190141201,0.1232755407691001
5.520540771484375,0.8269456214323639,0.2453499579234048,7.459263282510638,-0.2209561914205551,0.0882806703448295,0.0994775295257568
5.53056689453125,0.744256159242615,0.6109753776524216,7.091766771680116,-0.2422855794429779,0.0256991256028413,0.0353790074586868
5.5405927734375,0.8861893991701304,0.6658684859000146,6.636704205599427,-0.2050625830888748,-0.1253990530967712,-0.0251181591302156
5.55061767578125,1.2114182553745805,0.3591032514186575,6.198892049527168,-0.1489485800266266,-0.3006481528282165,-0.0517197102308273
5.560643798828125,1.411011291784048,0.0460747918240726,5.910020747122168,-0.1446355879306793,-0.442508339881897,-0.0387581028044223
5.570669677734375,1.3972282656252384,-0.0826266260866075,5.804834279507398,-0.2068429440259933,-0.4811177253723144,0.0140715455636382
5.580696044921875,1.0228446256294843,-0.1214252528952434,5.4957811898171895,-0.2926329374313354,-0.3931537866592407,0.0910502150654792
5.590721923828125,0.4960979024328291,-0.1947376322675496,4.994713828408718,-0.3882853388786316,-0.2645863592624664,0.1569292247295379
5.600748046875,0.0542821367423981,-0.3889285173725336,4.334151486092805,-0.4799739718437195,-0.137845441699028,0.1594088971614837
5.610773193359375,-0.8341400629810989,-0.4221344752732664,3.1137007600873705,-0.5316151976585388,0.0636118501424789,0.1303671449422836
5.620799072265625,-1.447787655517459,-0.211824449212104,1.085811953935027,-0.5188855528831482,0.3677736222743988,0.2290878593921661
5.63082421875,-1.086800380450487,0.1247778147261589,-1.3886375474125146,-0.4820319414138794,0.7466219067573547,0.5004715323448181
5.64085009765625,-0.824723780664429,0.4751810058061033,-3.910036431461573,-0.4332295060157776,1.114578366279602,0.7865496277809143
5.6508759765625,-0.9935656319141388,0.7632314933475106,-6.583462444755434,-0.4882042706012726,1.3721542358398438,0.953501045703888
5.660902099609375,-0.9986902814514934,0.8236004757229238,-8.836225005176663,-0.6599587202072144,1.3430228233337402,0.9845753908157348
5.67092822265625,-0.522907254631631,0.1317527683053165,-11.094073490560056,-0.7331758737564087,1.0275129079818726,0.9120014309883118
5.680954345703125,0.3409385395769029,-0.9207589735742658,-13.818678486949205,-0.4836320877075195,0.4598459303379059,0.8025434017181396
5.690980224609375,0.5389869038276374,-0.3706455494459718,-15.949037487494945,-0.0084178885444998,-0.1222883239388465,0.6543911695480347
5.70100634765625,-0.5871830351872369,1.8552099340230224,-16.4756835267961,0.4330897331237793,-0.400570809841156,0.3722228705883026
5.71103125,-2.141546895644814,2.5045064936980603,-15.829074891030787,0.6806749701499939,-0.3222709894180298,-0.1148912459611892
5.72105712890625,-3.846639187306165,1.7932180266208946,-15.250124663996695,0.6647958755493164,0.0256771352142095,-0.6172742247581482
5.731083251953125,-4.284180417482554,1.4305113804154097,-15.426488946640491,0.47080859541893,0.3803423047065735,-0.9107376337051392
5.741109130859375,-3.478294242952764,0.6849512989673763,-16.597260572719573,0.2753338813781738,0.5203484296798706,-0.9223349094390868
5.75113525390625,-1.875978435155004,-0.4888996614918112,-17.99492255358696,0.1347785592079162,0.381956398487091,-0.6111032962799072
5.7611611328125,-0.3774301315521821,-0.9917436771839856,-18.55298664445877,0.1520731151103973,0.0772891566157341,-0.1622341424226761
5.771187255859375,-0.2806862058511004,-0.7846073127228766,-18.26338644325733,0.3342800736427307,-0.2177488654851913,0.1848869919776916
