seconds_elapsed,ax,ay,az,gx,gy,gz
0.068888671875,0.1197774491555988,-0.3293558364739641,0.6785106714606285,0.6497853398323059,-0.0747494921088218,0.6438332796096802
0.078867431640625,0.4128269870933145,-0.1376766784615814,0.5200210682034492,0.6423580050468445,-0.0876170918345451,0.5694893002510071
0.088847412109375,0.6572618394657969,-0.0980185487467795,0.5671136587679386,0.5835405588150024,-0.0428041890263557,0.4918328523635864
0.098827880859375,0.7092723780144006,-0.1140043456468731,0.6832067203223705,0.4702606499195099,0.0428374782204628,0.4120368361473083
0.108806640625,0.6864992590617388,-0.0134356557595543,0.7514151641517877,0.3048093616962433,0.1445026397705078,0.346796303987503
0.11878662109375,0.5881934178061783,0.2053994576659053,0.7934113083600998,0.1121584251523017,0.2593498528003692,0.307830274105072
0.128766845703125,0.4401677062224596,0.3745650244446471,0.8705816418021917,-0.0866654068231582,0.4100345373153686,0.2966836094856262
0.13874560546875,0.15818974352777,0.397705551937595,0.9600444705843924,-0.2899847030639648,0.6312077045440674,0.3125238418579101
0.1487255859375,-0.2333817626342177,0.3369462550703436,0.9844663796573876,-0.4929481148719787,0.9213719964027404,0.3477476239204407
0.15870458984375,-0.6202344966460019,0.2998325491413474,0.949761561501026,-0.6696813106536865,1.215180277824402,0.3944360315799713
0.1686845703125,-0.8302980006001889,0.1987335700359195,0.8309767766445875,-0.7706162333488464,1.47159743309021,0.4377911984920501
0.17866455078125,-0.7899354489430784,0.1152131369147449,0.955060252431035,-0.7639918923377991,1.6889030933380127,0.4708945453166961
0.1886435546875,-0.6247493437219411,0.2494179380146786,1.2567039426475763,-0.6654043197631836,1.873987436294556,0.509723961353302
0.19862353515625,-0.5732432840967551,0.336271643744409,1.38668816691041,-0.5003439784049988,2.04233455657959,0.5860880017280579
0.208603759765625,-0.8555667357608675,0.3549289979413151,1.5819330911129712,-0.3006714582443237,2.1862423419952397,0.6998656988143921
0.218582763671875,-0.9788903330907224,0.1019124874453991,1.8062392746269704,-0.1259076297283172,2.2867095470428467,0.7876671552658081
0.228562744140625,-0.7730037494949996,-0.1619889896802604,1.82557993491292,0.0244087558239698,2.3762898445129395,0.7947644591331482
0.238541748046875,-0.466041129278019,-0.0803960905555635,1.992723384746909,0.1357153058052063,2.4666097164154053,0.7026798129081726
0.248521728515625,-0.3093844405364245,-0.0080770696021616,2.1777269009202715,0.2077177762985229,2.47322940826416,0.5723817944526672
0.258501708984375,-0.7923829882256687,0.1190725157566368,1.8385954838305711,0.2355509996414184,2.4149465560913086,0.3733696043491363
0.26848046875,-0.897023074004054,0.5674057005170733,1.2996651324957609,0.2371970266103744,2.285353422164917,0.0830702483654022
0.278460693359375,-0.6161432087443769,0.7996979874141514,1.0427017110049723,0.2569142878055572,2.149160385131836,-0.1993097811937332
0.288439697265625,-0.6954426631696522,0.2484896807212382,1.331710960575938,0.2986949384212494,2.0163345336914062,-0.4372899830341339
0.29841943359375,-0.5333988745622337,-0.4343965389424934,1.7411568538635969,0.3366979658603668,1.8514904975891116,-0.6160602569580078
0.308399658203125,-0.2685164966404438,-0.9377491982765496,1.923466308647394,0.3742748200893402,1.6410362720489502,-0.7340569496154785
0.318378662109375,-0.2770870488479733,-0.971094710778445,1.6351134771585465,0.4212609529495239,1.446118712425232,-0.8234512805938721
0.3283583984375,-0.2123690774828195,-0.4350733422255143,1.30677233415246,0.4402444958686828,1.407402753829956,-0.8642542958259583
0.3383388671875,-0.3852209680914878,-0.0128703317606821,1.4412135378241535,0.4140546917915344,1.475377321243286,-0.8494455218315125
0.34831787109375,-1.029253908149898,0.0773788981588557,1.6287778443962335,0.3377124965190887,1.4356746673583984,-0.7844401001930237
0.358297607421875,-1.612476697936654,0.038167927689664,1.127664890280366,0.217757299542427,1.249289631843567,-0.6885734796524048
0.36827685546875,-1.918908206951618,-0.131001548079215,0.687290190243721,0.0608174726366996,1.032135248184204,-0.5817254781723022
0.378256591796875,-1.8847794351175424,-0.4468275294378399,0.6299520999968051,-0.1230935081839561,0.8577224612236023,-0.4797300994396209
0.388236572265625,-1.5164406282439826,-0.6067616689475253,0.4391840289473533,-0.3019115626811981,0.8346469402313232,-0.3976645171642303
0.3982158203125,-0.8036772663086652,-0.7988244194500148,0.7107417929798364,-0.4111464619636535,0.9618557691574096,-0.3365519046783447
0.408195556640625,-0.2409913608551025,-1.0233099781189112,1.3767401888698338,-0.3951750099658966,1.0882012844085691,-0.305111289024353
0.418174560546875,-0.0149582074180245,-0.911581833775714,1.7859756542772054,-0.2635954320430755,1.0272735357284546,-0.2973713278770447
0.42815478515625,0.1109963229373097,-0.5757480699919164,2.312052953779697,0.2711474895477295,-1.6846369504928589,-0.2610213160514831
0.438134521484375,0.5454533233627676,-0.5945523583788425,4.134246753385662,0.5709161162376404,-2.030608654022217,-0.0933236703276634
0.448113525390625,-0.0436532637655735,-0.5197556222002953,6.145609372150898,0.4086486399173736,-1.5791245698928833,0.2647778689861297
0.45809375,-0.4560562532931566,0.3888231573019176,2.5212170977413653,-0.0191700812429189,-1.2086585760116575,0.7529702186584473
0.46807373046875,-0.0224187525570392,0.0194996502399444,1.2699889561563729,-0.4906525313854217,-1.125531554222107,1.2402831315994265
0.4780517578125,-0.6066796532198786,-0.9221962398357688,1.5318419032543895,-0.8361201286315918,-1.13815176486969,1.569861650466919
0.48803173828125,-0.7596589686229824,-1.3590715534493327,2.1832769362628457,-0.9693647623062134,-0.9505816102027892,1.7267401218414309
0.4980107421875,-0.9156868579417466,-1.2257251592770215,2.985554272645712,-0.9708598852157592,-0.5268641710281372,1.7338638305664062
0.507990966796875,-1.0597603978335857,-1.4601564309641717,3.052989978536963,-0.921905517578125,0.0529795140027999,1.5925694704055786
0.517970703125,-0.7652496282368898,-1.530273046502471,2.70157249584794,-0.8182297348976135,-0.1517850905656814,1.2583398818969729
0.52794970703125,0.046520635895431,-1.0810515346001832,1.9519161580622195,-0.7603936195373535,0.0719127207994461,0.87407386302948
0.5379296875,-0.753203216612339,-0.5294534979373217,2.144382849723101,-0.7224512696266174,0.1570063084363937,0.5137338042259216
0.54790869140625,-0.5660340468376874,-0.2026691559191793,2.143684930586814,-0.6446587443351746,-0.0299998670816421,0.1367661207914352
0.557888671875,-0.2914057893186807,0.0173279322240501,2.1137796216666698,-0.5597177743911743,-0.026357464492321,-0.200952261686325
0.56786865234375,-0.3776195531770587,0.5633563520610332,2.398114449685812,-0.5760320425033569,0.3208969831466675,-0.3992785513401031
0.57784765625,-0.6347706061944365,0.9741166889481246,1.577265683823824,-0.6264775991439819,0.8689864277839661,-0.4929485619068146
0.58782763671875,-0.7498664734050631,1.362633045323193,0.9739262809425592,-0.6100540161132812,1.014791488647461,-0.6160688996315002
0.5978076171875,-0.610090046185255,1.2205696762099862,0.3468915296971798,-0.477888822555542,1.0160714387893677,-0.7813100814819336
0.60778662109375,-0.9919549818471074,0.3925882819890975,0.5295546202242374,-0.2893302738666534,1.0118622779846191,-0.9548054337501526
0.6177666015625,-0.9427496369123458,0.0975675170436501,0.4571989935874939,-0.0698269456624984,1.144481539726257,-1.07102632522583
0.627745849609375,-1.0684759114697575,0.6447080628409981,0.1354547646284103,0.1367567479610443,1.1447659730911257,-1.072255253791809
0.637725830078125,-1.405289407005906,1.4530341778688132,-0.9789759655475616,0.2368181049823761,1.0398180484771729,-0.8831252455711365
0.64770556640625,-2.3162083198934798,2.665291222155094,-2.8018168308854103,0.1763831824064254,0.7458717226982117,-0.4830436110496521
0.657684814453125,-3.0852246071875093,4.59800466709733,-5.260239911061525,-0.0655610188841819,-0.3100623488426208,-0.0719569995999336
0.667664794921875,-3.495817624683678,7.071582646307349,-8.017457137241959,-0.52178955078125,-1.7596588134765625,0.1439860761165619
0.6776435546875,-2.6449735335305333,9.673463180303573,-10.359805276042222,-1.2075722217559814,-2.905268669128418,0.2503354251384735
0.687623779296875,-0.2057356308177113,10.552672949719428,-12.483077533197402,-2.02532696723938,-3.1814446449279785,0.3769828379154205
0.697603759765625,2.777566478987038,10.022139839851857,-14.607302561032771,-2.7346975803375244,-2.7492945194244385,0.4556156098842621
0.70758251953125,5.371666734370589,8.677882701435685,-16.10324605243206,-3.121507167816162,-2.0637450218200684,0.4138341844081878
0.717562744140625,6.6056245922029015,7.186562193661928,-16.536380279821156,-3.1280763149261475,-1.423127293586731,0.1894338577985763
0.72754248046875,6.989523956301808,6.095905137783289,-17.069564780980347,-2.7499043941497803,-0.8497957587242126,-0.1884304732084274
0.737521484375,6.728339117723703,5.238289945060014,-17.09330455300808,-2.0259783267974854,-0.3925467133522033,-0.614899218082428
0.747501708984375,6.093091833928227,4.785777647984028,-16.367765588390828,-1.1100428104400637,-0.0833492651581764,-0.9714754819869996
0.757480712890625,5.2294087194681165,4.232633770118653,-15.143744018161296,-0.3043718636035919,0.1436074525117874,-1.2233843803405762
0.767460693359375,4.250687605464458,3.4374902311384674,-13.84772571773529,0.1900069266557693,0.2047479003667831,-1.386205792427063
0.777440673828125,3.488651094055176,2.8704540215209127,-12.775099993109702,0.3857218325138092,0.1612709909677505,-1.4636952877044678
0.787419677734375,3.011969985884428,2.726595293423533,-11.449560999166964,0.3864483535289764,0.0773734971880912,-1.4833954572677612
0.797399658203125,2.912849686440825,2.443843935203552,-9.708352122855183,0.2884791791439056,-0.0111073702573776,-1.480703830718994
0.807378662109375,3.003627981735766,1.748636980485916,-7.701633530503511,0.1415270268917083,-0.0311266127973794,-1.500644326210022
0.817358642578125,3.1455928589105606,0.8659776551380753,-5.735398339709639,-0.0287885069847106,0.1614918410778045,-1.5589194297790527
0.827338623046875,3.374067852541804,0.0125929395914077,-3.819817231354117,-0.1864332258701324,0.4604663550853729,-1.6479377746582031
0.837317626953125,3.582242400944233,-1.2953595442563297,-1.9914222390204668,-0.2806494832038879,0.7394628524780273,-1.7200806140899658
0.847297607421875,3.4599773727566,-2.8194144468963143,-0.0801589938640594,-0.2998578250408172,0.9633038640022278,-1.7797603607177734
0.85727783203125,3.4240324914112685,-4.117340919031203,1.4800596935689447,-0.2547915577888489,1.130737066268921,-1.7976118326187134
0.867256591796875,3.241282307122648,-5.17134348399043,2.387138297641277,-0.1021061763167381,1.2714613676071167,-1.7424274682998655
0.87723681640625,3.055411068204045,-5.732998877352475,3.252298498916626,0.1522872298955917,1.300043702125549,-1.609716534614563
0.887215576171875,2.6648224355995653,-5.982578033810854,4.159628447401524,0.4703971743583679,1.19716215133667,-1.403331637382507
0.89719580078125,2.104912424600124,-6.043583414393663,5.293910709995031,0.7329214811325073,0.942309558391571,-1.1430197954177856
0.90717578125,1.473218010980636,-5.991748013216257,6.146489662116766,0.8695381879806519,0.6541526913642883,-0.857387363910675
0.917154541015625,0.8970949701964854,-5.824630866867303,7.01663700415492,0.8726426362991333,0.4270265996456146,-0.5485081076622009
0.927134765625,0.5224909654483199,-5.593447783321142,7.815936201509833,0.8009992241859436,0.2342523336410522,-0.2242555916309356
0.93711474609375,0.2030024064615368,-5.401576134943962,8.651327287465334,0.691420316696167,0.0407976508140563,0.0969605073332786
0.947093505859375,-0.2050407804213464,-5.137633522090315,9.373630923423171,0.5330376029014587,-0.192399576306343,0.3992733657360077
0.957073486328125,-0.5222219392485916,-4.864219316536188,9.65517465941906,0.3214430212974548,-0.4091899394989013,0.6774371266365051
0.967052490234375,-0.731603525353223,-4.760002570736408,9.82977836213112,0.0779677331447601,-0.5501523017883301,0.9201739430427552
0.977032470703125,-0.8932618217743933,-4.763931434617937,9.904517669034004,-0.1608147472143173,-0.5043400526046753,1.137778639793396
0.9870126953125,-0.9737482940271496,-4.73613566519767,9.79764310220182,-0.3314381539821625,-0.3524445295333862,1.3230950832366943
0.99699169921875,-0.9553557282462716,-4.7317783467710015,9.674987028869984,-0.3826206624507904,-0.2474853694438934,1.429063320159912
1.0069716796875,-0.9745119718760252,-4.907288058412075,9.695013917854428,-0.3336977064609527,-0.2183250784873962,1.4637422561645508
1.016950927734375,-1.2222856863476337,-5.102907661145926,9.647480013263223,-0.2257904410362243,-0.2215568274259567,1.4550840854644775
1.0269306640625,-1.5175624718807637,-5.166304905301332,9.41634252242446,-0.0891184210777282,-0.2038488537073135,1.4158499240875244
1.03691064453125,-1.8075404203534124,-5.164600439471006,9.138457308936118,0.0849412605166435,-0.1928689032793045,1.354244589805603
1.046889892578125,-2.103056421469897,-5.164075538814068,8.943838992199302,0.2890263497829437,-0.155089259147644,1.274031639099121
1.05686962890625,-2.302766069996357,-5.011193838566541,8.935647502437233,0.5086122155189514,-0.1181341856718063,1.152865290641785
1.066849609375,-2.3473842332713306,-4.797727321235835,9.054069299200176,0.6945775151252747,-0.0968669429421424,1.0060030221939087
1.076828857421875,-2.372815465517342,-4.6011777441754935,9.05648571269214,0.8112468719482422,-0.0780146941542625,0.8704975843429565
1.08680859375,-2.357850097706169,-4.387891551847756,9.03830299026966,0.8543820381164551,0.0587430894374847,0.7469930052757263
1.09678759765625,-2.312452182230353,-4.198818594278395,9.064704090461134,0.8397107124328613,0.2501282393932342,0.6474930644035339
1.106767578125,-2.1252382965311405,-4.084147966742515,8.830813501521945,0.8349031805992126,0.3651396632194519,0.5706605315208435
1.116747802734375,-2.0191595562517644,-4.138537728577852,8.603578863340616,0.890606701374054,0.4219502210617065,0.5114302635192871
1.126726806640625,-2.138414004446566,-4.133909484255313,8.501539461579918,0.9907160997390748,0.3750189542770386,0.4542077481746673
1.13670654296875,-2.2930814190670845,-3.858037364155054,8.20050484317243,1.065483570098877,0.2351177781820297,0.4038771986961365
1.146686767578125,-2.456339844161272,-3.452518873444199,7.843522127571702,1.0749192237854004,0.0776041522622108,0.3324311077594757
1.156665771484375,-2.3096616747289893,-3.205799198070168,7.425805249544978,1.0050193071365356,0.0144800413399934,0.2688736915588379
1.1666455078125,-2.0917714957371354,-3.186797852741181,6.613170185276865,0.922276496887207,0.2030241340398788,0.2360105514526367
1.176624755859375,-1.5449004145309329,-3.066208941072225,5.597540605592728,0.9269932508468628,0.3965643048286438,0.2163465619087219
1.1866044921875,-0.8974500672444701,-3.2642589858233926,4.50005458047688,1.0357537269592283,0.4521926641464233,0.2046636790037155
1.19658447265625,-0.4669608014062046,-3.2240421262472867,3.1833050421893594,1.1302298307418823,0.4989678859710693,0.2649997174739837
1.206563720703125,-0.3197922181084752,-2.202188703612238,0.7087754613429308,1.0800219774246216,0.5430395007133484,0.3988991975784302
1.21654345703125,-0.1198915770545601,-0.0021788053438067,-3.4303602331280705,0.8708937764167786,0.4490948915481567,0.6168333888053894
1.2265234375,-0.0480775099486112,2.905893875953555,-8.475990009781718,0.658580482006073,0.2181683629751205,0.9213215112686156
1.236502685546875,-0.0316182503178715,5.565095549061894,-12.621901481997966,0.4814909696578979,-0.2761785387992859,1.1925615072250366
1.246482666015625,0.7673550760835409,7.129549097585678,-15.804910756111145,0.2691368162631988,-0.9361887574195862,1.2516484260559082
1.2564619140625,2.5094533024504777,8.022348416414857,-18.451787200653552,-0.0031199986115098,-1.3158674240112305,1.088512301445007
1.26644189453125,4.411816617314517,8.977250847935675,-20.578787538421157,-0.2580084204673767,-1.3543928861618042,0.6715148687362671
1.276421630859375,6.592138503164053,9.031061933100222,-21.599701780509942,-0.4444102644920349,-1.0479315519332886,0.0591079480946064
1.286400634765625,8.517757021409272,7.709809238174557,-21.683571319329737,-0.561068594455719,-0.424814909696579,-0.5297064781188965
1.296380615234375,9.590696049767732,6.111784843960404,-21.62629051222801,-0.5495471954345703,0.4008750319480896,-0.8581703901290894
1.306359619140625,9.586334347426892,5.180491836085915,-21.432301725566383,-0.3899308443069458,0.9546051621437072,-0.8709666728973389
1.316339599609375,8.640642811843753,4.586295524603128,-20.879280889558792,-0.3274626731872558,1.0275527238845823,-0.5978294014930725
1.326319580078125,7.185632803857327,3.483864444300532,-20.52146230765581,-0.4716552793979645,0.8497099280357361,-0.2000543773174286
1.336298583984375,5.70195725787878,3.000938304260373,-19.849989279747007,-0.5554913282394409,0.5501008629798889,0.2375514507293701
1.346278564453125,4.164052401323616,3.025177257981896,-17.72727231838703,-0.385611355304718,0.2257400602102279,0.6586179137229919
1.3562587890625,2.62121973297745,2.8238562287360427,-14.06542738841772,-0.0684997215867042,-0.1066064685583114,0.984100103378296
1.366237548828125,1.4227724567264315,3.412019105273485,-10.55731405352354,0.1628494262695312,-0.4809655547142029,1.176970601081848
1.3762177734375,0.5101660291433334,4.1768718431472776,-7.8366154169231645,0.1631495654582977,-0.8425557017326355,1.245807409286499
1.38619677734375,-0.2654597394183278,4.282636402910947,-5.57375757894516,-0.0325466878712177,-1.127865433692932,1.2002328634262085
1.3961767578125,-0.6899718305431306,3.78308996745944,-3.2489398361384865,-0.3258025348186493,-1.235917329788208,1.0385215282440186
1.406156494140625,-0.626117928661406,2.974869212502241,-0.9038035279244184,-0.6397652626037598,-1.168760061264038,0.800528347492218
1.4161357421875,-0.374769132182002,1.9779561698563397,1.0940332543134688,-0.9251996874809264,-0.9200148582458496,0.5326061248779297
1.42611572265625,-0.2070358997613191,0.926053938177228,2.7968670995235443,-1.1393970251083374,-0.6364052295684814,0.2726278305053711
1.436095458984375,-0.15975626219213,-0.2687766088813543,4.24964014223814,-1.2664753198623655,-0.3625968396663666,0.0535639114677906
1.44607470703125,-0.2888869383655488,-1.4031994489893316,5.468726594153046,-1.297791600227356,-0.1327623575925827,-0.0821202844381332
1.4560546875,-0.6007495325185358,-2.3941582594059407,6.336558644986153,-1.2418348789215088,0.0416217036545276,-0.1289266794919967
1.46603369140625,-1.0234930065356194,-3.1620477346271274,7.024951828035712,-1.1369894742965698,0.1460732668638229,-0.0919681191444397
1.476013671875,-1.3806222910001873,-3.7566678244799374,7.504751360487938,-1.0004148483276367,0.1210006847977638,0.0162864457815885
1.48599462890625,-1.8632801354929804,-4.250642889539897,7.7581626424551,-0.8316439986228943,0.0094945775344967,0.219076320528984
1.495973388671875,-2.5139468144774435,-4.666148813518881,8.250534656232595,-0.6186651587486267,-0.0894189476966857,0.4919520318508148
1.505953369140625,-3.066125354442,-4.704629643082618,8.750214362674951,-0.3944754302501678,-0.1960591077804565,0.7875487804412842
1.51593359375,-3.3151100521385666,-4.464549551853537,9.05689838514626,-0.1693421602249145,-0.3813855648040771,1.0246617794036863
1.525912353515625,-3.382764369216561,-4.272867873090505,9.51816857369542,0.0114543307572603,-0.5790537595748901,1.158358812332153
1.535892333984375,-3.295635536339879,-3.998723599696159,9.78479180393517,0.0975695103406906,-0.7083805799484253,1.2372174263000488
1.545871337890625,-3.3287212288618084,-3.6810242622137066,9.774693603768943,0.1124076247215271,-0.7581858038902283,1.258171796798706
1.555851318359375,-3.265989170616865,-3.340651905152201,9.79202935397327,0.0833469480276107,-0.7483070492744446,1.189765214920044
1.565831298828125,-3.046327013516426,-3.016857173404097,9.736977913358809,0.033458087593317,-0.6667065024375916,1.0386714935302734
1.575810302734375,-2.848897146490216,-2.7756302502274512,9.716900170969964,0.0079351533204317,-0.5463614463806152,0.820084810256958
1.585790283203125,-2.718675314079225,-2.6245854100182653,9.66761211618781,-0.0003595164162106,-0.410399854183197,0.5600440502166748
1.5957705078125,-2.6281205984070897,-2.5085168983832,9.484733921605349,-0.0047960765659809,-0.2263104170560836,0.2895092070102691
1.60574951171875,-2.5638863189056518,-2.44996022612676,9.209018453371524,0.0171883478760719,-0.0351787954568862,0.0180804785341024
1.6157294921875,-2.508414607052505,-2.470407824741304,9.030573857322334,0.0887336358428001,0.1018160730600357,-0.2515448927879333
1.62570849609375,-2.463031158493459,-2.5050468841850755,8.892212265336513,0.1985167562961578,0.1977733224630355,-0.4842015504837036
1.6356884765625,-2.461740826421976,-2.517502168871462,8.779751422804594,0.3096336722373962,0.311038613319397,-0.671950101852417
1.64566845703125,-2.409924860597401,-2.457351943813264,8.656497968101501,0.4211260974407196,0.3885892629623413,-0.8269021511077881
1.6556474609375,-2.351499559635669,-2.4478490791916845,8.56647633639276,0.5229054689407349,0.4205405414104461,-0.9341460466384888
1.66562744140625,-2.359917259369045,-2.4865187093257903,8.57139684166014,0.5880561470985413,0.4236849844455719,-1.0146818161010742
1.675607421875,-2.24344323567301,-2.4236209391251204,8.515047177928686,0.6002368927001953,0.4040617346763611,-1.076014757156372
1.685586181640625,-2.128795258360356,-2.366377249163389,8.24470697299242,0.5812975764274597,0.3949173092842102,-1.0868979692459106
1.69556640625,-2.025451788263768,-2.4172237854339182,7.980755007788538,0.5679125189781189,0.3704338073730469,-1.0602970123291016
1.705545166015625,-1.9433548120744528,-2.533719436439872,7.811508448195457,0.5845080614089966,0.3521627485752105,-1.0095006227493286
1.715525146484375,-1.8046420685634017,-2.6155899103969333,7.64644998794198,0.6454979181289673,0.3428331613540649,-0.93363356590271
1.725505615234375,-1.6185887510761618,-2.760147434413433,7.330899352926015,0.7402070760726929,0.3316183090209961,-0.8640942573547363
1.735484375,-1.4506746091306209,-2.864600911578536,6.855599469980597,0.8726905584335327,0.2725787162780761,-0.7884588837623596
1.74546435546875,-1.4020812586143612,-2.8049580515205856,6.269421045258641,1.0195188522338867,0.1834595948457718,-0.6882673501968384
1.755444580078125,-1.2854464913986623,-2.5190064359545707,5.56431988851428,1.1217749118804932,0.1100607514381408,-0.5784044861793518
1.76542333984375,-0.8498464584179222,-2.162036725965887,4.639298800516128,1.16437029838562,0.0597380027174949,-0.4951334297657013
1.7754033203125,-0.1316496732570231,-1.9987023130260408,3.1726094606518744,1.134171962738037,0.0923609212040901,-0.394690990447998
1.785382568359375,0.6195601775810122,-1.684442886864394,0.9004349282741546,0.968189775943756,0.1884685754776001,-0.2279834747314453
1.7953623046875,1.1875232927851378,-0.4734645572770387,-2.989284106823802,0.7275508046150208,0.2466024607419967,0.0306033417582511
1.80534228515625,1.5406665763534604,1.8096544898979363,-8.080390855538845,0.5370793342590332,0.0767358690500259,0.3166132569313049
1.8153212890625,1.81863259999305,4.389325384043157,-13.844189360302686,0.6048999428749084,-0.3621472418308258,0.498399555683136
1.82530126953125,2.4277742594122884,5.762415525972843,-18.48743134548664,1.0261776447296145,-0.9832699298858644,0.4334205687046051
1.835281494140625,3.4760862115144726,5.5504187889337535,-21.634864279305933,1.6924152374267578,-1.33895742893219,0.0294872093945741
1.845260498046875,5.511172235694527,5.372032060551643,-22.914894737005238,2.2640280723571777,-1.1869213581085205,-0.6737913489341736
1.855240478515625,8.284272090661526,6.063185940486193,-23.359042525839804,2.386606216430664,-0.4090639948844909,-1.5739258527755735
1.865219482421875,10.538618705403804,6.108943483054637,-23.118058179247377,2.0246331691741943,0.8025460243225098,-2.3320348262786865
1.875199462890625,11.176669940704109,4.473676861160993,-21.98176399230957,1.3897509574890137,1.8389617204666135,-2.6647627353668213
1.885179443359375,10.349430012500283,2.7628783206820486,-20.73384716722965,0.721234142780304,2.3208584785461426,-2.4080913066864014
1.895158447265625,8.220595445042848,1.4905693971455096,-19.202593877518176,0.1504537016153335,2.2506141662597656,-1.6337264776229858
1.905138427734375,5.638699129933118,0.0335537529916735,-16.984212894648312,-0.3681886196136474,1.9177409410476685,-0.5989716649055481
1.915117431640625,3.5555709593787785,-0.4864310063559561,-13.696559004712103,-1.0538114309310913,1.2428370714187622,0.4000466465950012
1.92509716796875,2.176194869047403,0.400810861009173,-12.022773559331894,-1.8019052743911743,0.5267947912216187,1.2704565525054932
1.935077392578125,0.8350409573435783,1.195845203993842,-11.493146458393335,-2.293682336807251,-0.0639505013823509,1.9625424146652224
1.945056396484375,-0.1036415762603282,1.3268784258529542,-10.916598616325857,-2.186727523803711,-0.5332492589950562,2.4637670516967773
1.9550361328125,-0.8765764983028173,1.854251025862992,-9.651004680258035,-1.536821722984314,-0.963403344154358,2.6821866035461426
1.965016357421875,-1.3033362222239375,2.3948659692838787,-7.674281413197517,-0.7169955968856812,-1.2558190822601318,2.5713844299316406
1.97499560546875,-1.3763754472106695,2.4925796167999503,-5.370327594721317,-0.1153105869889259,-1.27979576587677,2.1544301509857178
1.984975341796875,-1.437096311763674,2.257153196595609,-3.3706706113189457,0.2192983776330948,-1.1544208526611328,1.545464277267456
1.99495458984375,-1.6991526724793016,2.021421802095324,-1.1251882710337635,0.3747396171092987,-0.9762636423110962,0.8750448822975159
2.0049345703125,-1.9976856833294032,1.724592526423186,1.5112304923802613,0.4152137339115143,-0.7664620280265808,0.2866196632385254
2.014914306640625,-2.4630969172060486,1.1189859092622996,3.999164913722872,0.3528233170509338,-0.5604963302612305,-0.1930124461650848
2.0248935546875,-2.705648366984725,0.5562509405026212,5.9323635118335485,0.1827757209539413,-0.3786056041717529,-0.607158362865448
2.034873291015625,-2.631535083025694,0.0065948682203888,7.330179221957922,-0.0437354557216167,-0.1807947903871536,-0.942180037498474
2.044853271484375,-2.556788761860132,-0.5437369844315574,8.3214529435426,-0.2509143352508545,-0.0076018767431378,-1.1843198537826538
2.05483251953125,-2.4190568460799757,-0.970900357250124,9.0306720569998,-0.3621175587177276,0.0887188017368316,-1.3202933073043823
2.064812255859375,-2.2961788005605337,-1.2574302110955118,9.782283035984635,-0.3825930953025818,0.1287737190723419,-1.3238048553466797
2.074791259765625,-2.2981264274969697,-1.451820125903934,10.40302131743431,-0.3532235026359558,0.1064513772726059,-1.2139452695846558
2.084771484375,-2.3272421934746204,-1.61627024500072,10.680510225081443,-0.30321004986763,0.0722989439964294,-0.9894812107086182
2.09475146484375,-2.472014967676997,-1.7245464953243732,10.694159980249404,-0.269360214471817,0.0230981037020683,-0.6665937304496765
2.10473046875,-2.5236267892315984,-1.7736799440667033,10.57982516053915,-0.2689462006092071,-0.1575666964054107,-0.2992684543132782
2.114710693359375,-2.575850605204701,-1.8326114409849048,10.249799425446987,-0.2941623330116272,-0.4363448023796081,0.0819761231541633
2.1246904296875,-2.8238050830706958,-1.9150734510943288,10.172497574579715,-0.3459012806415558,-0.7210921049118042,0.4353666603565216
2.13466943359375,-2.911022471013665,-1.9291195121034976,10.164681347870824,-0.4375971257686615,-0.9220688939094543,0.7096898555755615
2.1446494140625,-2.6961446255803105,-1.8250208397254344,9.9706925612092,-0.5451180338859558,-0.9855358004570008,0.871860146522522
2.15462841796875,-2.325829404067248,-1.8714692871674892,9.831793793606758,-0.6444177031517029,-0.9493284821510316,0.9395020008087158
2.1646083984375,-2.0361229660123588,-2.055103560814261,9.676664606693386,-0.7100791335105896,-0.8906409740447998,0.9126303791999816
2.174588134765625,-1.815097557734698,-2.1629209614545104,9.385115024989842,-0.7076705694198608,-0.8438849449157715,0.8015992045402527
2.1845673828125,-1.6551022260896862,-2.24113086707741,9.14013196415007,-0.6517909169197083,-0.7806095480918884,0.6217928528785706
2.19454736328125,-1.4807845007121565,-2.251269106993079,8.95113090277314,-0.5535991191864014,-0.6897238492965698,0.3900291323661804
2.20452734375,-1.2542298076190053,-2.318418689419329,8.762183617410063,-0.4466916024684906,-0.5838457345962524,0.1266981661319732
2.21450634765625,-1.0746997544206678,-2.487737145204842,8.535176942765712,-0.3315639495849609,-0.4454619586467743,-0.1380477398633957
2.224486572265625,-1.0179087766624986,-2.5737293752670287,8.239034188053012,-0.2082895636558532,-0.2709247767925262,-0.3789089322090149
2.23446630859375,-0.8932571455992758,-2.644375567637384,8.097272432234883,-0.0688714832067489,-0.1274981051683426,-0.6091291308403015
2.244445556640625,-0.638236821000278,-2.808723249273002,8.083613909238576,0.0800330936908721,-0.0071103572845458,-0.8069894313812256
2.25442529296875,-0.483452867328003,-2.9947979018092155,8.10897046881318,0.2152790576219558,0.0838911831378936,-0.961177945137024
2.264404541015625,-0.3884954597175121,-3.100950584107637,8.041744606280327,0.3410961031913757,0.1379144787788391,-1.0744335651397705
2.274384521484375,-0.3398294823564589,-3.1696637625887987,7.922329706826805,0.4273561537265777,0.1375613510608673,-1.1422449350357056
2.2843642578125,-0.3326814372327178,-3.218715670527517,7.567386388099193,0.4942861199378967,0.0888053625822067,-1.194055676460266
2.294343505859375,-0.1750665709834545,-3.228041425016522,7.266964348632097,0.5531938672065735,0.1455767601728439,-1.2258825302124023
2.304323486328125,0.0813750185903161,-3.2410712947204705,7.012241399544477,0.6001049280166626,0.3012048900127411,-1.2607035636901855
2.31430322265625,0.586494431868568,-3.181987237589061,6.437984298762679,0.6616154313087463,0.4143285155296325,-1.335617184638977
2.324282470703125,1.1757304175302383,-3.267197669623792,5.568277101707459,0.7288897633552551,0.4450735449790954,-1.3996436595916748
2.3342626953125,1.6111512945517896,-3.430730527745187,4.259388213792443,0.8213019967079163,0.5188926458358765,-1.4064499139785769
2.344241455078125,2.0044113383226096,-3.313020970904827,2.535036364257336,0.8855717182159424,0.6392782926559448,-1.3370156288146973
2.354221435546875,2.498576811388135,-2.7278219126090404,-0.0058393736779689,0.8781060576438904,0.7886150479316711,-1.1808580160140991
2.364201416015625,2.8408655234649776,-1.9666808887347575,-3.499574054607749,0.8051767349243164,0.8377585411071777,-0.9462987184524536
2.374180419921875,2.8605361463576555,-1.3522230027288198,-7.551354121708869,0.7829832434654236,0.7200899720191956,-0.6455863118171692
2.384160400390625,2.556533325794339,-0.665251742241159,-11.559041949105264,0.9247643947601318,0.4798457026481628,-0.3390300869941711
2.394140380859375,2.4280109907776115,0.6909781580414622,-15.003145460903644,1.2039780616760254,0.1305108815431594,-0.1691694259643554
2.404119384765625,2.596712775969505,2.159222106936574,-18.01664221796393,1.5543544292449951,-0.1357554793357849,-0.2512058615684509
2.414099365234375,3.022211686174572,3.081549425806105,-19.64384477586746,1.834550142288208,-0.1445391178131103,-0.605661928653717
2.424078369140625,3.717835112738609,4.176897562110423,-20.218563064420223,1.931840181350708,0.1446363925933838,-1.1521321535110474
2.434058349609375,4.558577788855136,5.562886640840769,-19.689509963977336,1.7904726266860962,0.5703868865966797,-1.7258760929107666
2.4440380859375,5.389686375185847,5.928393439158797,-18.26147973285317,1.3493895530700684,0.9786176681518556,-2.100858688354492
2.454017333984375,5.327056608271598,4.811256080372631,-16.8473073466897,0.6016058325767517,1.2118924856185913,-2.1348843574523926
2.46399755859375,4.566771324443817,3.764840609541535,-16.51441979242563,-0.2391774654388427,1.197581768035889,-1.869207739830017
2.473977294921875,3.601723931005597,3.1561987163379785,-16.463537161928414,-0.9023996591567992,0.9524089097976683,-1.4245922565460205
2.483960205078125,2.8916718738555907,2.5802128920674323,-15.775731423377987,-1.309350609779358,0.6760661602020264,-0.9270175695419312
2.493940185546875,2.573629714284837,2.035671422852576,-15.159951641118523,-1.411262273788452,0.4822905957698822,-0.4746187031269073
2.503919189453125,2.282543073917925,1.4520306999146937,-14.72543443493843,-1.223002552986145,0.3264907002449035,-0.026316674426198
2.5138994140625,1.5766891991101204,1.082947504414618,-13.86736682227254,-0.8060693144798279,0.0728517919778823,0.4135496616363525
2.523879150390625,0.765913352842629,1.0917062726706266,-12.214012755024433,-0.3986016809940338,-0.2570893764495849,0.8333888649940491
2.533858154296875,0.064621379122883,1.0996069627925753,-9.999363359898329,-0.1806632429361343,-0.5696499347686768,1.242420673370361
2.54383837890625,-0.4801457155413925,1.096743170859292,-7.6592095162719485,-0.1111809983849525,-0.8028720021247864,1.6091818809509275
2.553818115234375,-0.8629282044395804,1.2448260194577276,-5.315194321042299,-0.084366962313652,-1.0074405670166016,1.9009215831756592
2.563797119140625,-1.1922957678839563,1.376059220868349,-2.964610268816352,-0.0739532336592674,-1.1986714601516724,2.066314697265625
2.573777099609375,-1.3044174415893852,1.5444851117283105,-0.8875906442701816,-0.1132777333259582,-1.334395408630371,2.073084831237793
2.583757080078125,-1.188729453704506,1.4128054817244409,0.8759574896216392,-0.2008745223283767,-1.3833900690078735,1.9254685640335083
2.593736083984375,-1.0568319431662558,0.8093699249923229,2.5893478001594543,-0.3197729587554931,-1.3032506704330444,1.6711678504943848
2.603716064453125,-0.9532669392734764,0.0137743861946277,4.194819587770104,-0.4444742202758789,-1.130542278289795,1.3458120822906494
2.613695068359375,-0.8586791686929762,-0.7674830863773823,5.527991268548369,-0.519631564617157,-0.897198498249054,0.9961901307106018
2.62367529296875,-0.8563263219565153,-1.4014283476635814,6.796593738782406,-0.473730981349945,-0.6254450678825378,0.6637674570083618
2.633655029296875,-0.9875811506770552,-1.8305562620207667,7.963398799318075,-0.3075100481510162,-0.3302334249019623,0.3988857567310333
2.64363427734375,-1.1870615204922854,-1.92298027869612,8.931950986006855,-0.0300622377544641,-0.1495414674282074,0.2174876034259796
2.6536142578125,-1.4584611713536082,-1.822061405397952,9.81280618454218,0.2789861559867859,-0.1172884628176689,0.1056758537888526
2.663593994140625,-1.7346110854819417,-1.5988462319910526,10.511419732832907,0.5183316469192505,-0.2024894952774047,0.1172012165188789
2.6735732421875,-2.0599463246703147,-1.3960821643300354,10.994122585511208,0.6305548548698425,-0.3327282071113586,0.2307978123426437
2.683552978515625,-2.198058764200657,-1.2841384775400162,11.431420946842431,0.6036761403083801,-0.4755168855190277,0.386725902557373
2.6935322265625,-2.110439371328056,-1.2755707018114626,11.777370227253437,0.4464246928691864,-0.6095106601715088,0.5569820404052734
2.70351220703125,-1.9580621134713287,-1.3258034900978206,11.956247954022883,0.1983723640441894,-0.7083073854446411,0.7200759053230286
2.713491943359375,-1.7566610047265887,-1.3673003064818678,11.893021390259266,-0.1010684072971344,-0.6790927648544312,0.8547828793525696
2.72347119140625,-1.579909768591821,-1.2776248578622935,11.66068562954664,-0.4100046455860138,-0.5546684861183167,0.9194410443305968
2.733451416015625,-1.2543643937841058,-1.2109910429384558,11.262748972266913,-0.6513147354125977,-0.4467745125293731,0.9131373763084412
2.74343115234375,-1.0707861611735074,-1.5002084553673862,10.925509068012238,-0.7835445404052734,-0.3693841099739074,0.8775500655174255
2.753410400390625,-1.2233631063207984,-1.8035979663379489,10.546890859186648,-0.7991975545883179,-0.3353750109672546,0.8315117359161377
2.763390380859375,-1.4352818096876143,-1.8853823694467544,9.963435137426853,-0.7174029350280762,-0.3140126764774322,0.7662844061851501
2.7733701171875,-1.5344088311329482,-1.7933792085319755,9.344618763950466,-0.5864148139953613,-0.3198809325695038,0.7088072299957275
2.783349365234375,-1.6757959084197878,-1.807843494953215,8.749363883325458,-0.397691398859024,-0.3681881427764892,0.6364235281944275
2.7933291015625,-1.661526267787814,-1.9823696023844184,8.592365979930758,-0.172810897231102,-0.4319530129432678,0.545976459980011
2.80330810546875,-1.505044789482653,-2.122596111459285,8.611113350498675,0.0446185506880283,-0.4633643329143524,0.4246570467948913
2.8132880859375,-1.20346978058815,-2.1753977273203438,8.599964179974794,0.199809193611145,-0.4298111796379089,0.2873431444168091
2.82326806640625,-0.969597823284194,-2.150098743151873,8.570687816607952,0.2812258899211883,-0.3277444839477539,0.1432953923940658
2.8332470703125,-0.7958250915035605,-2.048722189214081,8.523945939177274,0.3114556968212127,-0.2045551836490631,-0.0036429124884307
2.84322705078125,-0.5955168194968253,-1.993876061913371,8.399676000908016,0.3393560647964477,-0.1075055301189422,-0.1866883635520935
2.853207275390625,-0.4483443637415766,-1.976756877069175,8.302124558216333,0.3946906924247741,-0.106521226465702,-0.3772407174110412
2.863186279296875,-0.4203341843856498,-1.879858199197799,8.027536048185825,0.4562821984291076,-0.1911931484937667,-0.5474920868873596
2.873166259765625,-0.3705408834950998,-1.7649733443893492,7.629878792369365,0.5031514167785645,-0.2527947425842285,-0.7275134921073914
2.883145263671875,-0.0697469419756904,-1.908193190061301,7.331028532263637,0.5164899826049805,-0.0942519307136535,-0.9137691259384156
2.893125244140625,0.531569430645369,-2.1862958456926047,6.808349058505892,0.5060331225395203,0.1549088954925537,-1.1271253824234009
2.90310498046875,1.281733608355373,-2.7208967895209786,6.042951546230912,0.4680769741535187,0.4513435065746307,-1.33823561668396
2.913084228515625,1.813990619406104,-3.176173875135184,4.652652203086018,0.3773574531078338,0.7841616868972778,-1.4985512495040894
2.923064208984375,2.0174679499030117,-3.1778783409655094,2.182511797109246,0.1873961836099624,1.0413157939910889,-1.4228873252868652
2.9330439453125,1.6845558457195755,-2.633429226209223,-1.6406541601508855,-0.113778032362461,1.036829113960266,-1.0529931783676147
2.943023193359375,1.2396566539958118,-1.523301600054651,-6.802938723894953,-0.4223527908325195,0.6863194108009338,-0.4150104820728302
2.953003173828125,0.8146291606947779,-0.6876593888822943,-13.07706633940935,-0.5454598069190979,0.0545850992202758,0.4137442111968994
2.962983154296875,0.1082386947922408,-0.6586354659065604,-19.35479168715477,-0.1516520082950592,-0.6911956071853638,1.0661375522613523
2.972962158203125,0.2787565894953906,-0.7432763544250279,-23.69296819097996,0.8029079437255859,-1.2216070890426636,1.2935848236083984
2.9829423828125,1.5633977558605372,0.489998562644422,-26.17431037445068,1.90648090839386,-1.2634657621383667,1.0524909496307373
2.992921142578125,3.2156568674787875,3.070303809170425,-27.437681958293915,2.5118744373321533,-0.8246306777000427,0.4636013805866241
3.0029013671875,4.745465219078958,4.227343262495101,-27.397653899288176,2.382845878601074,-0.0961624383926391,-0.2016337513923645
3.012881103515625,5.218776850816608,3.154124540412426,-25.83996385354996,1.7943259477615356,0.7111551761627197,-0.6669098734855652
3.022860107421875,4.728562599594891,2.2183529258191585,-23.76217090654373,1.1748509407043457,1.2398066520690918,-0.805754542350769
3.03284033203125,3.570685818663239,1.700495173129439,-21.59053881536722,0.7714272737503052,1.4234793186187744,-0.7094644904136658
3.042820068359375,2.296303595983982,1.4648309986464678,-19.211317282199857,0.5173166394233704,1.474495530128479,-0.5287982821464539
3.052799072265625,1.3658938006848096,1.3727493656679988,-15.87976229121685,0.1864420026540756,1.3161183595657349,-0.3308796286582947
3.062779296875,0.7783022212292998,1.6222421590171754,-12.67744976621866,-0.2972627580165863,1.0183182954788208,-0.1250210106372833
3.072758056640625,-0.0462873385962098,2.0347914251476524,-10.181583382833004,-0.7661437392234802,0.6505560278892517,0.0923722982406616
3.082738037109375,-0.6444760076507926,2.132523046711832,-8.066288095906376,-0.9890229105949402,0.3553278148174286,0.3250252604484558
3.09271826171875,-1.1242940986730157,1.9844006698206067,-6.2021361460149285,-0.8567809462547302,0.0965218245983123,0.5641355514526367
3.102697265625,-1.45658821708858,1.843398792459071,-4.012098045054078,-0.5490374565124512,-0.2085452675819397,0.7404734492301941
3.11267724609375,-1.606279304601252,1.6452479176819323,-1.88981012276113,-0.3137471973896026,-0.4862445294857025,0.7958149909973145
3.122656982421875,-1.4202895538695155,1.5074541887119413,-0.1344406191498041,-0.2370519191026687,-0.6251158118247986,0.7041270136833191
3.13263623046875,-1.0339224114175884,1.1011258429229258,1.454905963090062,-0.242894098162651,-0.5856503844261169,0.5042464137077332
3.1426162109375,-0.6764652832381427,0.3102844946486875,3.3012644821375607,-0.2325490713119506,-0.4702577888965606,0.2482136934995651
3.152595947265625,-0.4464464211657643,-0.4058517047205939,5.213696771073341,-0.1949827820062637,-0.3790506422519684,0.0162345226854085
3.1625751953125,-0.4343550744209438,-0.8092527283534408,6.795662010890245,-0.1627906709909439,-0.428007423877716,-0.1409346163272857
3.17255517578125,-0.5584960525482893,-1.0734434707492588,7.923782243722677,-0.1669159084558487,-0.5852811932563782,-0.2331327199935913
3.1825341796875,-0.6446509258262813,-1.2318638081625104,8.695712957158685,-0.2027887403964996,-0.7216688990592957,-0.2973181903362274
3.19251416015625,-0.6134477591153233,-1.275984689439833,9.454021387955546,-0.2665357589721679,-0.7883179783821106,-0.3411567509174347
3.202493896484375,-0.6258326819792389,-1.1915003797225654,10.162121141994,-0.4093778431415558,-0.6566506624221802,-0.3207115530967712
3.21247314453125,-0.73983629697375,-0.8818732895366846,10.50861636584997,-0.6869479417800903,-0.5041508674621582,-0.3165309131145477
3.222453369140625,-0.3847478341544046,-0.6792442464321852,10.367089587831495,-1.1413078308105469,-0.5363381505012512,-0.3760805428028106
3.23243310546875,-0.1295351653210818,-0.7460224382627755,9.961999551665782,-1.7256090641021729,-0.7028368711471558,-0.3593529462814331
3.242412353515625,-0.6073301164852455,-1.125163721114397,10.109476762521266,-2.097923994064331,-0.5956673622131348,-0.1530370861291885
3.252392333984375,-1.5701413849018513,-1.4200475618071853,12.704648738789558,-1.9583805799484253,-0.4572654962539673,0.1465150117874145
3.2623720703125,-2.10353090711385,-1.20407351863496,14.898144286727904,-1.4454151391983032,-0.5268380045890808,0.3555022180080414
3.272351318359375,-1.7771217550836502,-0.5127351489789783,14.993839872419834,-0.8559330105781555,-0.6610570549964905,0.4506580233573913
3.282331298828125,-1.5271506766982377,-0.1670701288694515,13.871251554751396,-0.4171595573425293,-0.623200535774231,0.5167950391769409
3.29231005859375,-1.310988782803714,-0.2108916253414005,12.250249605053662,-0.1705444604158401,-0.4359236061573028,0.5415358543395996
3.3022900390625,-0.9366739702604712,-0.413138025803864,10.772903262096644,-0.0648592412471771,-0.297612726688385,0.4829902350902557
3.312270263671875,-0.5770927991317585,-0.5850659334354102,9.631354223370552,-0.0380574539303779,-0.2690966725349426,0.3674647212028503
3.3222490234375,-0.389792988714762,-0.7024907550502568,8.909665504440664,-0.0750552713871002,-0.2142927050590515,0.2412158399820327
3.33222900390625,-0.3473111433487385,-0.836275321444124,8.58575971353352,-0.1106058061122894,-0.1063894107937812,0.1196590438485145
3.342209228515625,-0.2898553632725961,-0.9994110700067133,8.338695170244574,-0.137286901473999,0.0329291522502899,-0.0258195884525775
3.352188232421875,-0.0877340961602982,-1.1368957330275329,8.112246129482983,-0.1176338419318199,0.1154314875602722,-0.1477790474891662
3.362168212890625,-0.2063903501330874,-1.389761583006382,7.992726600611209,-0.057693213224411,0.0556301511824131,-0.2437316924333572
3.372148193359375,-0.2089326732933521,-1.613860261249542,7.900708242127298,0.0075611579231917,-0.0804624482989311,-0.3510568141937256
3.382127197265625,-0.0446344385563395,-1.7879888937957584,7.576075305989384,0.0633802562952041,-0.1562227755784988,-0.4619438946247101
3.392107177734375,0.0820940809793304,-1.9027540677472947,7.220126609611511,0.1360597759485244,-0.1166410073637962,-0.5594819188117981
3.402086181640625,0.145045170536125,-1.9106532965645195,6.994894543424248,0.2526061236858368,-0.0747320353984832,-0.6584082245826721
3.412066162109375,0.2845757971681654,-1.952401165100187,6.814754249373078,0.4244593679904938,0.0190397258847951,-0.7681171298027039
3.4220458984375,0.46064949936755,-2.061778362403065,6.651852090370655,0.6084955334663391,0.2662050724029541,-0.8590897917747498
3.432025146484375,0.6645490738645196,-2.0759724535807966,6.267065422043204,0.7813155055046082,0.5397753715515137,-0.9328231811523438
3.442005126953125,0.8614528711900115,-2.109828399822861,5.3115737924575805,0.935016930103302,0.7104991674423218,-0.986317217350006
3.451985107421875,0.873870015823096,-2.027824216483533,3.9810429815769193,0.9865150451660156,0.8598569631576538,-0.992451548576355
3.46196435546875,0.8244015629727393,-1.4202628119930625,1.912147626775503,0.8718136548995972,1.0861812829971311,-0.9237332344055176
3.4719443359375,0.6530820695631205,-0.2425911242019384,-1.1324199758529665,0.6172897815704346,1.37916362285614,-0.7045979499816895
3.481920166015625,0.2477354282878339,1.0037535561904312,-4.716699435582757,0.3013009130954742,1.4726463556289673,-0.3439143598079681
3.491899169921875,-0.2240118036773055,2.1007905223645267,-9.032871612870691,-0.0302972570061683,1.1050055027008057,0.1965294629335403
3.501879150390625,-0.902047697233036,3.136072166371345,-13.882217185401917,-0.3628278076648712,0.3846180438995361,0.8264490962028503
3.511858154296875,-1.630521765454113,4.255545274628698,-18.62782415103912,-0.5433086156845093,-0.5091449618339539,1.2246028184890747
3.521838134765625,-0.8826027728550135,4.688170091190934,-21.2727015307188,-0.3523695766925812,-1.123256802558899,1.1980085372924805
3.531818359375,1.0930505268864332,4.775931376752257,-20.88352218039036,0.1215428709983825,-1.0876535177230835,0.8820231556892395
3.541797119140625,2.807909302541613,5.370373187428712,-19.36556091845036,0.523664116859436,-0.6528458595275879,0.427305668592453
3.55177734375,3.680568627400696,5.246116108641028,-17.936033142244813,0.584180474281311,-0.1534730941057205,0.1093503534793853
3.56175732421875,3.288680894896388,3.665269351460039,-16.819138067781925,0.2791953384876251,0.1302667111158371,0.1490201354026794
3.571736083984375,2.174610230204463,2.193664767025411,-16.471352219593523,-0.2605933248996734,0.14125357568264,0.5065827965736389
3.58171630859375,1.1278038603596388,1.4550522396929562,-16.35024512926936,-0.7894474864006042,0.0995701253414154,0.9254403114318848
3.591695068359375,0.8047288211882114,0.9858109261341392,-15.14213073774576,-1.2064632177352903,0.1082395166158676,1.227625012397766
3.601675048828125,0.92309633048065,0.6397386038653552,-14.066681772392988,-1.4796392917633057,0.043745033442974,1.391602635383606
3.6116552734375,0.7450776316933333,0.0964312430227175,-13.986249222284554,-1.5305194854736328,-0.0416601449251174,1.4288126230239868
3.621634033203125,0.4191177578005939,-0.4105695635553449,-13.62351481128931,-1.2925457954406738,-0.1342087388038635,1.3223109245300293
3.631614013671875,0.1209812354547902,-0.3683797234058379,-12.341772873497009,-0.804250180721283,-0.2610968947410583,1.1093682050704956
3.641594482421875,-0.0963579951234161,-0.0552706363230943,-10.464731631416084,-0.2254650145769119,-0.3973410725593567,0.8423879146575928
3.651572998046875,-0.1420462718479335,0.0742264620099216,-8.156990111094713,0.2432499974966049,-0.4769384264945984,0.5880392789840698
3.66155322265625,-0.0459741444611921,-0.0080891984313726,-5.5324979323178525,0.5070304274559021,-0.5080395340919495,0.4081109464168548
3.671533447265625,-0.1216356077102944,-0.0683465371258556,-3.0881583225518465,0.5764572024345398,-0.538563072681427,0.301365852355957
3.68151220703125,-0.1900101653542369,-0.2950650424785911,-0.7210293782383204,0.4972088038921356,-0.5923499464988708,0.2448229640722274
3.6914921875,-0.1164387697195634,-0.8039123902387917,1.5416443353444338,0.3351354897022247,-0.5772759318351746,0.2235837280750274
3.70147216796875,-0.0947185208206996,-1.349245009831339,3.6360657610684632,0.13547083735466,-0.4920918345451355,0.240822896361351
3.711451171875,-0.1853611339719966,-1.68219364663288,5.350471386128664,-0.05024204403162,-0.4103745818138122,0.2715544402599334
3.72143115234375,-0.2850758008458651,-1.6909405783206224,6.757414405560493,-0.2054174542427063,-0.3451269865036011,0.2891983985900879
3.73141015625,-0.2977069170231931,-1.552626332607865,7.921241327068209,-0.3345437347888946,-0.2696508765220642,0.2654334008693695
3.74139013671875,-0.2002564504879526,-1.3986156283304094,8.921509086969495,-0.3956820666790008,-0.2165022045373916,0.17756949365139
3.7513701171875,0.0131541491041658,-1.2548270428597927,9.666249011141062,-0.38833948969841,-0.1803987920284271,0.074915811419487
3.76134912109375,0.0725048441153951,-1.285772508482635,10.107108279824256,-0.3269343078136444,-0.0957561135292053,0.0190958213061094
3.771329345703125,-0.0671118624980561,-1.2557217997424304,10.36602225086093,-0.2426489889621734,0.0654404982924461,0.0489645078778266
3.781309326171875,-0.0328885488149011,-1.1638070477634668,10.474646291708943,-0.1301205605268478,0.1604634225368499,0.1307923942804336
3.791288330078125,0.1229519692721776,-1.4512085698768495,10.659716443377732,-0.0173588637262582,0.1410276740789413,0.2674450278282165
3.801268310546875,0.0604085106682032,-1.9123335047364236,10.858268007910253,0.0584811381995677,0.0095439665019512,0.4823808968067169
3.811248291015625,-0.1955005429314449,-2.083140737774968,10.820991877961156,0.076234832406044,-0.1896466314792633,0.7288148999214172
3.821227294921875,-0.4045001439811662,-1.9827393124796449,10.695144315111635,0.0295704249292612,-0.3754337430000305,0.938968539237976
3.831207275390625,-0.4173557896293699,-1.896340839704126,10.663511159485578,-0.0649401023983955,-0.5456798076629639,1.060444951057434
3.84118603515625,-0.3013592289856635,-1.8524977524548767,10.431280612713095,-0.1831025630235672,-0.6658499240875244,1.1155352592468262
3.851166259765625,-0.2888178551847115,-1.88897191837132,10.216750557804106,-0.2717376351356506,-0.6832811236381531,1.0903838872909546
3.861146240234375,-0.2574362631669268,-1.8445964778110384,10.164993482559918,-0.3174844086170196,-0.6316006183624268,0.954458713531494
3.871125,-0.1431826737330295,-1.7398210752151906,10.046036263746023,-0.3104757666587829,-0.5225529670715332,0.7341638803482056
3.881105224609375,-0.2272294688158668,-1.6994892109572886,9.870353533625602,-0.3039296865463257,-0.2599664330482483,0.4806219041347503
3.89108544921875,-0.374605210324563,-1.4464248427316546,9.55188905698955,-0.3059087097644806,-0.0526470765471458,0.1945946812629699
3.901064208984375,-0.3045501705140807,-1.417893160252273,9.048024758338927,-0.3118443787097931,-0.0093858959153294,-0.1327878534793853
3.911044189453125,-0.2178028295019641,-1.7231138321727513,8.700721725231409,-0.3169443309307098,-0.0122304186224937,-0.478202760219574
3.9210244140625,-0.1043762472104281,-2.005295866072178,8.521320266848802,-0.3076048791408539,0.0917590335011482,-0.7504878044128418
3.931003173828125,-0.2623972100425511,-2.177798797112703,8.320634612897038,-0.276056557893753,0.3654081523418426,-0.9256535172462464
3.940983154296875,-0.4030030738238245,-2.0911711917564277,8.09248285987079,-0.2103442549705505,0.636421799659729,-1.0688403844833374
3.950962158203125,-0.3998463633585721,-2.151250397405028,7.804486586734652,-0.103390909731388,0.7625922560691833,-1.2008057832717896
3.960942138671875,-0.4804280396141112,-2.391511982680857,7.319041741871834,0.0190693680197,0.8584816455841064,-1.315112829208374
3.970922119140625,-0.6207263718161732,-2.4922198435768483,6.644012482786178,0.1534836292266845,0.9670459628105164,-1.425015926361084
3.980901123046875,-0.6224279150370509,-2.477195585185289,5.770063410377502,0.321056991815567,1.0120238065719604,-1.5115503072738647
3.990880126953125,-0.6979797073666006,-2.6120465387016534,4.804967501622438,0.5150802731513977,0.961059272289276,-1.5688625574111938
4.000859130859375,-0.7706338054932653,-2.554016082276404,3.6195115166306495,0.6369709968566895,0.9127379655838012,-1.5844136476516724
4.010839111328125,-0.834678699902445,-1.9916215609848495,1.5172779558509588,0.5823197364807129,0.9525655508041382,-1.5444244146347046
4.020819091796875,-0.8496176911633461,-1.0382101717393846,-1.8166326583474877,0.3173161447048187,1.026686191558838,-1.4495137929916382
4.030798095703125,-1.0312621792323886,0.5401084552034735,-6.623232145085931,-0.0371106527745723,1.0721471309661863,-1.3091332912445068
4.0407783203125,-1.3575199400931597,3.009276216755808,-11.68355446395874,-0.2188655883073806,0.873084545135498,-1.2191953659057615
4.05075830078125,-1.3217305415704843,5.630376707267761,-14.989401013189552,-0.0707536190748214,0.4556252062320709,-1.2435672283172607
4.0607373046875,-0.5986228957533836,6.925629284018278,-15.823806010717153,0.303038626909256,0.1040771827101707,-1.3423763513565063
4.07071728515625,0.519526781880483,6.635140609544515,-15.421050554978846,0.5773066878318787,0.0732803866267204,-1.3746905326843262
4.080696044921875,1.598392350743711,5.942338962402939,-15.374793830716609,0.5444155931472778,0.2232562452554702,-1.324668288230896
4.09067626953125,2.38045604339838,5.277472785413265,-15.812666192543505,0.249300330877304,0.3017199039459228,-1.146814465522766
4.10065625,2.796846641257405,4.682529747216403,-16.174237404978275,-0.1946190893650055,0.2501921355724334,-0.7568433284759521
4.110635009765625,2.675942964550853,4.063255693100393,-16.44513290570974,-0.6852036714553833,0.1216493174433708,-0.1736717671155929
4.120615234375,2.3225898376241325,3.770487967778742,-16.966007375872135,-1.1100413799285889,-0.1165475025773048,0.4784646034240722
4.13059521484375,2.1085411364912985,3.726947808998823,-17.624746009892224,-1.3547102212905884,-0.4818801879882812,1.0927677154541016
4.140573974609375,1.751115645559132,3.43281317923814,-18.333022874063253,-1.3172675371170044,-0.8373916745185852,1.6021506786346436
4.15055419921875,1.4083480639241637,3.035610389190912,-18.31384354181885,-0.937283217906952,-1.1339375972747805,1.932073950767517
4.160532958984375,1.2982578960463405,2.681807764931023,-16.746028407907485,-0.3514779210090637,-1.280485987663269,1.987790584564209
4.17051318359375,1.4145929496631025,2.5615201742962,-14.269858074116708,0.1705514341592788,-1.2265210151672363,1.79395854473114
4.180493408203125,1.4972865765713157,2.5844252490654585,-11.856952882534264,0.434682160615921,-0.98923659324646,1.444603443145752
4.19047216796875,1.4004790841147303,2.7047721686720845,-9.904707054126265,0.4400228559970855,-0.5931289792060852,1.0226258039474487
4.2004521484375,1.117673292293772,2.9630092633605,-8.024596487602592,0.3213783800601959,-0.2411282360553741,0.5758337378501892
4.210432373046875,1.0584075949851424,2.769690046523511,-5.733553004103898,0.2063082307577133,-0.018409950658679,0.1292144656181335
4.2204111328125,1.006782256361842,1.9446740779794751,-3.0913246776282786,0.1354140937328338,0.117024041712284,-0.2845827043056488
4.23039111328125,0.936173108066246,1.13344844211787,-0.4717933361291885,0.1244192272424697,0.230065643787384,-0.5993547439575195
4.24037109375,0.8211427073072641,0.3281257466897368,2.0094366191387176,0.1468322277069091,0.3410882353782654,-0.8076882362365723
4.25035009765625,0.727253367319703,-0.5122232539340853,4.246868339437246,0.176746979355812,0.4285086393356323,-0.8867812156677246
4.260330078125,0.5427224005615339,-1.2722092625543475,6.048836512616276,0.2055817544460296,0.469258576631546,-0.8387163877487183
4.270310302734375,0.224495787801966,-1.787233253122866,7.607714891356229,0.2288143634796142,0.4321077466011047,-0.6940063238143921
4.280289306640625,-0.0596892930155619,-2.0119775357931853,8.854766039517521,0.2318956702947616,0.3335113525390625,-0.4825346767902374
4.290269287109375,-0.3024727249192074,-2.087940393141657,9.71479413860142,0.2259285897016525,0.1979500651359558,-0.2363688349723816
4.300248291015625,-0.5003927500825375,-2.0900988863497973,10.37894252271056,0.2446652948856353,0.0725501403212547,-0.0114101571962237
4.310228271484375,-0.6024712782772258,-1.994884508303553,11.084342370140552,0.2999903261661529,-0.0192184001207351,0.1929762661457061
4.320208251953125,-0.6457728425282985,-1.8027105159789325,11.72089138418436,0.3584078848361969,-0.0838740766048431,0.3515885472297668
4.330187255859375,-0.5690942015932873,-1.6135855359613895,12.158574360918998,0.376891553401947,-0.1258140653371811,0.4581117928028106
4.340167236328125,-0.4760603824565186,-1.4785387676119803,12.314410234797,0.3221257328987121,-0.1217176020145416,0.5348381400108337
4.350147216796875,-0.48297355937846,-1.4000404004365206,12.27780162884593,0.2109542191028595,-0.0674935132265091,0.6023300886154175
4.360126220703125,-0.6014218788221478,-1.346805507724732,12.202336345756054,0.0874183923006057,-0.0323340035974979,0.6612837910652161
4.370106201171875,-0.7557533394865691,-1.290557258541137,12.03887830643654,-0.0154291549697518,-0.0522086396813392,0.7132644653320312
4.380086181640625,-0.949716114924103,-1.2591653643250464,11.841896767699716,-0.0802828520536422,-0.1229682639241218,0.7575295567512512
4.390065185546875,-1.108498125256598,-1.1462628424402326,11.569647514271736,-0.125338464975357,-0.1932844966650009,0.7733351588249207
4.40004541015625,-1.2373796489745377,-0.9679553167741746,11.229286263126134,-0.1790091693401336,-0.2628069818019867,0.7589643001556396
4.410024169921875,-1.3331922851748763,-0.9481169360991568,10.892200672650336,-0.267377644777298,-0.2569853067398071,0.7301326394081116
4.420004150390625,-1.4971277327477932,-0.9483090976703912,10.470091697144507,-0.3803627789020538,-0.1856814473867416,0.6780344247817993
4.429984375,-1.395923028245568,-0.9548577886614948,10.09997828181386,-0.4607295095920563,-0.1635652184486389,0.5669638514518738
4.439963134765625,-1.214795257527009,-1.2282289587914943,9.846167186874151,-0.500896155834198,-0.1893164068460464,0.3841205239295959
4.449943115234375,-1.047008760549128,-1.4412585460096596,9.651355977913736,-0.5123882293701172,-0.2120645940303802,0.1545911878347396
4.45992333984375,-0.8966666617818176,-1.49099785169065,9.180907626652717,-0.5039541721343994,-0.1845098286867141,-0.1067794188857078
4.469902099609375,-0.6650329118587076,-1.6066797020956871,8.66554519791007,-0.4582551121711731,-0.0663986504077911,-0.3745328187942505
4.479882080078125,-0.4257346551897004,-1.8539514583945276,8.258039332774281,-0.3734435737133026,0.1220533475279808,-0.6340965032577515
4.4898623046875,-0.1970719934992492,-1.982248167961836,7.81970870578587,-0.2449196726083755,0.3134824335575104,-0.8779094815254211
4.499841064453125,0.0302636208385229,-1.983374249382317,7.3054673900276414,-0.1010236889123916,0.4607787728309631,-1.1042855978012085
4.509821044921875,0.1504664740656502,-2.085160260903835,6.641515405273437,0.057227473706007,0.5390645265579224,-1.2740134000778198
4.51980126953125,0.1383104463204741,-2.307745027452708,5.759886299756169,0.205121248960495,0.5971292853355408,-1.3277453184127808
4.529780029296875,-0.0522405113795772,-2.271562537959218,4.5828117741405965,0.2897906005382538,0.6974561214447021,-1.2169610261917114
4.53976025390625,-0.2721946371639147,-1.9625622013695536,2.7443454696476457,0.2431537508964538,0.7900530099868774,-0.966097354888916
4.5497392578125,-0.4900681207492947,-1.87366884303838,-0.1077057569593191,0.0590361133217811,0.7887818813323975,-0.5693390965461731
4.55971923828125,-1.128419800300896,-1.6226025167621672,-3.9541134735971686,-0.2256094217300415,0.7357780337333679,-0.0467099547386169
4.56969921875,-1.9837927670553328,-0.0544493100028485,-8.467273619362711,-0.4903447031974792,0.474584013223648,0.5045382976531982
4.57967822265625,-2.582224231889844,2.767040701058507,-13.147836742681264,-0.5628758668899536,-0.1439833343029022,0.8907797336578369
4.589658203125,-2.47775438811183,5.531994658970833,-16.31373121586442,-0.3013242781162262,-1.0149881839752195,0.9363810420036316
4.59963818359375,-1.1136473247133194,6.8731497397184365,-16.748045008426903,0.10922322422266,-1.5401437282562256,0.6907517910003662
4.6096171875,0.7556644921593367,6.959329893568158,-16.077364592200517,0.2156892120838165,-1.3497415781021118,0.3397895395755768
4.61959716796875,2.090387640163302,6.76605480813384,-16.703823589384555,-0.1343743503093719,-0.8214530944824219,-0.0221849139779806
4.629576904296875,2.8864699212983247,5.901733395770192,-18.182250128793715,-0.7459035515785217,-0.3249589204788208,-0.2998370230197906
4.63955810546875,2.8742586745008825,4.345132606573403,-19.289076229184865,-1.337701439857483,0.0896385908126831,-0.3692066371440887
4.649537353515625,2.454896367354691,3.510335394857824,-20.580739841532704,-1.6572858095169067,0.3378438651561737,-0.3017458319664001
4.659517333984375,2.416384119739383,3.287135419020057,-21.248436858034133,-1.6453112363815308,0.3750053942203522,-0.2279587090015411
4.66949609375,2.5063848547905683,3.006395692883432,-21.381820077085493,-1.3382776975631714,0.3385286033153534,-0.1519270539283752
4.679476318359375,2.1819513867475093,2.400553221140057,-21.01957081925869,-0.764575719833374,0.2667269706726074,-0.1118251755833625
4.689456298828125,1.8474768555529413,1.5982691627554595,-19.33439187320471,-0.0604420602321624,0.2750674486160278,-0.1320444196462631
4.69943505859375,1.7053123641528187,1.0785476620204746,-16.423468186390398,0.5196686387062073,0.3783365786075592,-0.2002892643213272
4.709415283203125,1.6074148845024403,1.0922219671078026,-13.62239720543623,0.8222575187683105,0.4779081642627716,-0.2797729074954986
4.71939501953125,1.3702213084951045,1.3990170487381517,-11.078216580736637,0.8582539558410645,0.521807074546814,-0.3392356932163238
4.7293740234375,0.9891589213877916,1.610007092952728,-8.354464401784538,0.6933920383453369,0.4849324524402618,-0.3912283480167389
4.739354248046875,0.7832615241371095,1.6220190177857874,-5.635761322915553,0.4169904887676239,0.4109082221984863,-0.4570550322532654
4.749334228515625,0.7955402832128107,1.224854221661389,-2.8845103116631505,0.1133075878024101,0.3696481585502624,-0.5272929668426514
4.759313232421875,0.8331566049017012,0.4974487325198948,-0.1438023217350244,-0.1600198894739151,0.3720836639404297,-0.5971402525901794
4.769293212890625,0.8898146769952029,-0.3655247723661363,2.440255555322766,-0.3723744750022888,0.3931276798248291,-0.6663419604301453
4.779273193359375,0.9261851633414624,-1.3551039649926124,4.611148226308822,-0.523648738861084,0.4306381642818451,-0.7078049182891846
4.789252197265625,0.9284819690417496,-2.353543340422958,6.276334185647964,-0.6012601852416992,0.425000250339508,-0.7081820368766785
4.799232177734375,0.8240973193291574,-3.2914807547479867,7.3659332569062705,-0.5596111416816711,0.3850069344043731,-0.6387256979942322
4.809211181640625,0.6009164865832776,-4.07850674598515,8.153669442239403,-0.3807165324687958,0.3119082152843475,-0.5058110952377319
4.819191162109375,0.3857680805802345,-4.555316448971629,8.979380845701694,-0.1099923402070999,0.2223877012729644,-0.316880315542221
4.8291708984375,0.125550333468616,-4.709268408799171,9.771797882327435,0.1866710186004638,0.1173608973622322,-0.0844958201050758
4.839150146484375,-0.2063958482921123,-4.564811714808642,10.479743322587012,0.4623225033283233,-0.0504417642951011,0.1760558634996414
4.849130126953125,-0.7020639810055493,-4.164892943800986,11.029472131311891,0.6917285323143005,-0.275515079498291,0.4425197839736938
4.859110107421875,-1.197525046839565,-3.63518576336354,11.58972467213869,0.866491436958313,-0.5197568535804749,0.6598625779151917
4.86908935546875,-1.316745008242875,-3.071933748459816,12.164392691808938,0.980071783065796,-0.7441604137420654,0.797529935836792
4.8790693359375,-1.1988137714758516,-2.661263281813264,12.569389204472303,1.017647624015808,-0.8061791062355042,0.8921383619308472
4.889049072265625,-1.1442862086050212,-2.3066749140031635,12.822614608478546,0.9732545614242554,-0.648905336856842,0.949090838432312
4.8990283203125,-0.9205863204210996,-1.895204090759158,12.90391926524639,0.8452827334403992,-0.3284523785114288,0.9472540616989136
4.90900830078125,-0.690023268469423,-1.6137300589986143,12.80100834134817,0.6335662007331848,0.0249208435416221,0.8655509352684021
4.918987060546875,-0.3179491475250571,-1.3995980634965002,12.248062324142456,0.2794265449047088,0.23201984167099,0.659338116645813
4.92896728515625,-0.060264608685486,-1.1672186097726225,11.037881063216924,-0.1588186919689178,0.405879259109497,0.4072954952716827
4.938947021484375,-0.1413493025597184,-1.2381433268234132,10.330933401823044,-0.5737658739089966,0.5365599393844604,0.1422425210475921
4.948926025390625,-0.1749729013506323,-1.6121283228904009,9.690828741124273,-0.8761784434318542,0.6287822723388672,-0.1093068942427635
4.95890625,-0.2959503008805215,-2.0277562658138573,8.981174158859252,-1.028459906578064,0.6931583285331726,-0.3239845931529999
4.968885986328125,-0.4342843472722917,-2.50520587413907,8.200016767394542,-0.9984548091888428,0.6552820801734924,-0.4753586649894714
4.978864990234375,-0.5375495645008981,-2.9607109232902524,7.535024333676695,-0.7849107384681702,0.4334300756454468,-0.5394360423088074
4.988845458984375,-0.4961664376243949,-3.3116511438563463,7.155770749557018,-0.438078224658966,0.1468254923820495,-0.5555495023727417
4.9988251953125,-0.3488412024602293,-3.4906939980596303,7.00175449232161,-0.0808984264731407,-0.026139622554183,-0.5455840826034546
5.00880419921875,-0.3206891669481992,-3.7467671927124258,6.490277965101599,0.1836887449026107,-0.0383454225957393,-0.4342069327831268
5.018784423828125,-0.5488306908413767,-4.197825783848763,5.410759558352828,0.3506511151790619,0.2658663988113403,-0.3000779151916504
5.02876318359375,-0.2826335039939731,-4.352300306245684,4.661371516114473,0.4387399554252624,0.9839670062065125,-0.3655189573764801
5.0387431640625,0.9691804015897214,-4.21576271481663,3.9185628522664304,0.5177855491638184,1.8930726051330569,-0.7210098505020142
5.048722900390625,2.0274805176123976,-4.464027281545103,3.258390970572829,0.5966601371765137,2.86948561668396,-1.2047022581100464
5.0587021484375,2.31809471816197,-4.888674543356895,2.8137036680340763,0.6830424070358276,3.6287548542022714,-1.637629508972168
5.06868212890625,2.010931241610646,-5.022409644585848,1.19132867641747,0.7897259593009949,4.00112247467041,-1.9175058603286743
5.078661865234375,1.3000053242355585,-4.923696756899356,-1.9339613991767168,0.985196053981781,3.959982395172119,-1.952293276786804
5.08864111328125,0.2323521273255348,-4.7306946431875225,-5.34193678201735,1.3598737716674805,3.531461715698242,-1.709342122077942
5.098621337890625,-1.1641691590741277,-3.784788588070869,-8.280653900164365,1.936065435409546,2.9268298149108887,-1.1976560354232788
5.10860107421875,-2.254474917297065,-1.8187201321460305,-9.665589670449494,2.6686482429504395,2.1109189987182617,-0.5531635880470276
5.118580322265625,-2.595492002002895,0.4115374587394297,-9.30671661105752,3.30691909790039,1.192451238632202,0.090400218963623
5.128560302734375,-2.412797639554739,2.5608909364819525,-8.462013506877422,3.4989309310913086,0.5918030738830566,0.710408091545105
5.1385400390625,-2.012509742973745,4.384222800207138,-8.122454219764471,2.965773344039917,0.2416544407606125,1.2134127616882324
5.148519287109375,-1.3486594650283454,5.269774047604203,-8.635829858604072,2.3630378246307373,-0.2174292504787445,1.587327003479004
5.1584990234375,-0.796754773569107,6.049570672109723,-7.639771240830421,1.524373173713684,-0.7378414869308472,1.799018383026123
5.168478271484375,0.1069625373765826,6.47020957506299,-9.184268627518415,0.7233896851539612,-0.9084100723266602,1.616564154624939
5.178458251953125,2.2246727764904497,6.657358871093392,-9.254073400628569,0.1089618355035781,-0.6515467762947083,1.0613471269607544
5.18843798828125,4.963972653186321,5.727337782850861,-8.916192275860904,-0.2680307328701019,-0.0779354274272918,0.4609840214252472
5.198417236328125,6.654523939928412,4.678281442122161,-10.337898564660549,-0.4231155216693878,0.4715247750282287,0.0865984261035919
5.208397216796875,7.097147880196571,3.55210006839782,-12.62679860638976,-0.3471246063709259,0.7108830213546753,0.1279176324605941
5.218377197265625,6.444781703817844,2.0266849833205343,-13.669437189030646,-0.1138671115040779,0.5580312609672546,0.5081191658973694
5.228356201171875,5.16912580794096,1.0990442874085158,-13.436652515506744,0.1387912482023239,0.172574907541275,1.0317038297653198
5.23833642578125,3.882435892352462,0.6929948316261172,-12.788854962217806,0.3264675140380859,-0.2705685198307037,1.4888862371444702
5.248316162109375,2.8074168428495523,0.6845390649046749,-11.341887390911578,0.364752858877182,-0.549949586391449,1.7390369176864624
5.258295166015625,2.092823927399516,1.0503584363032132,-9.31188261551857,0.2494384795427322,-0.6278960704803467,1.674623966217041
5.268275146484375,1.843966363213956,1.5387657111681996,-7.342554134884476,0.0114352470263838,-0.5647647976875305,1.247492790222168
5.278254150390625,1.788658025228977,1.9680740966588255,-5.4705941415905945,-0.3193919360637665,-0.3892945945262909,0.5835721492767334
5.288234130859375,1.8379551401004195,2.0123447616703807,-3.894136267018318,-0.702242910861969,-0.1025096923112869,-0.143194168806076
5.298214111328125,1.9034078554809093,1.7010317642241717,-2.5965029326111075,-1.0809738636016846,0.2840650975704193,-0.7930692434310913
5.308193115234375,1.94228294505924,1.2042257865872232,-1.3817933806061744,-1.4126081466674805,0.7410014867782593,-1.238399624824524
5.318173095703125,1.9200985857799648,0.4130012476816773,-0.3726671914666891,-1.711000919342041,1.278595209121704,-1.3870768547058103
5.3281533203125,1.7163664037391542,-0.5965559532862156,0.0659422524631023,-1.937305688858032,1.685454249382019,-1.2895684242248535
5.338132080078125,1.5956462669059632,-1.6128846942156552,0.3376730349749327,-1.9959856271743772,1.4894907474517822,-1.0822080373764038
5.3481123046875,1.90912301825732,-2.4724171187371016,1.0795417876243592,-1.7314010858535769,-0.0195874013006687,-0.8151187896728516
5.358092041015625,2.6077909270837902,-2.8792972531899808,3.064087711134553,-1.3565740585327148,-1.1334919929504397,-0.3472466170787811
5.3680712890625,0.092051091709733,-3.525415767350793,5.123444837740063,-1.006128430366516,-1.7658166885375977,0.1402266472578048
5.378051025390625,-0.6112690268367529,-3.986222430041432,5.7606280580341815,-0.647485077381134,-2.0172860622406006,0.5132027864456177
5.3880302734375,-0.3543281094387173,-4.031983479741215,6.308633111706376,-0.3081623911857605,-2.0031557083129883,0.7104253172874451
5.39801025390625,-0.299573898205161,-4.145031474511325,6.413952265790105,-0.0577465295791626,-1.807136297225952,0.663869321346283
5.407989990234375,-0.0239829331338405,-3.5509850928932427,6.342223246619105,0.0839293748140335,-1.3978610038757324,0.4912744164466858
5.41796923828125,0.6615975305825471,-3.629754678225517,6.460581330496073,0.012558676302433,-0.9532809257507324,0.289628118276596
5.42794921875,1.726685845440626,-4.343315620279312,5.622576847171783,-0.3420721292495727,-0.5663606524467468,0.1461396664381027
5.437928955078125,2.559312142857909,-4.642691365563869,4.468578076717257,-0.8848105669021606,-0.1041115745902061,0.0301407445222139
5.447908203125,2.5767700581371784,-3.6108670224040735,4.54080510853827,-1.5037158727645874,0.0461418442428112,-0.068038024008274
5.457888427734375,1.7546823981299997,-2.134281726947427,3.892276902887225,-2.0747973918914795,-0.3863210678100586,0.0427926257252693
5.4678681640625,-0.2114735899478197,-2.446938101826608,2.7178841637015343,-2.5145630836486816,-1.1216940879821775,0.4614678919315338
5.477847412109375,-2.208839832064509,-3.771295484769344,3.1853765877664086,-2.7354774475097656,-1.7169160842895508,0.9953261017799376
5.4878271484375,-2.2207249156475064,-4.0721085693806405,5.269259668341279,-2.7542645931243896,-2.1992101669311523,1.5196630954742432
5.49780712890625,-1.599509079813957,-4.18408367422223,6.633272477585077,-2.564589023590088,-2.67715835571289,1.879194378852844
5.507786376953125,-0.5713941125661134,-3.934443142965436,7.303053314623236,-2.172418594360352,-3.170654535293579,2.076389074325561
5.51776611328125,-0.2534893156394362,-3.565793954968452,7.648191863173245,-1.6497548818588257,-3.583336114883423,2.173590898513794
5.5277451171875,-0.0932354791887104,-3.5888632803887126,7.633714425009488,-1.034306287765503,-3.951885461807251,2.234097003936768
5.53772509765625,0.2362554183743894,-4.148532760630547,7.183582885590195,-0.350094586610794,-4.165821075439453,2.259239673614502
5.547705078125,0.7319446669410914,-4.568781202961504,6.8938441527009005,0.3889102339744568,-4.220198154449463,2.247598886489868
5.55768408203125,1.0834494625873865,-4.541362157899141,6.9002212865173815,1.082079291343689,-3.1505889892578125,2.1446096897125244
5.567663818359375,2.5796841920182105,-3.818579213991761,7.5659747677356,1.659275770187378,-2.3265457153320312,1.9382823705673216
5.577644287109375,2.1890350613981484,-2.613673555381596,7.558032868820429,2.1111905574798584,-1.2522592544555664,1.6948102712631226
5.587623291015625,1.6639479419767855,-1.5530638472422955,7.53592975808382,2.512049674987793,0.0986690819263458,1.4634244441986084
5.59760302734375,1.286764442129433,-0.8444105509743094,7.499322321176528,2.89925217628479,1.3856451511383057,1.2752915620803833
5.607583251953125,0.6096805155362933,-0.3937881592981517,7.070805816715955,3.28340744972229,2.577964782714844,1.1203064918518066
5.617562255859375,-0.0302632372460328,-0.0291286985244601,6.470216004803777,3.6581661701202393,3.649578332901001,0.9968946576118468
5.6275419921875,-0.3526186386397108,0.2930882259802893,5.634316969326139,3.7765839099884033,3.235083103179932,0.8373649716377258
5.637521240234375,0.4808912732116878,0.915833572936058,-1.376771753051877,2.612509727478028,-1.0692218542099,0.3398609161376953
5.647501220703125,2.574894911915064,2.3158517615407703,-15.540470715129375,2.129883050918579,-2.495501756668091,0.3238875567913055
5.65748095703125,0.9022600248094648,-0.0004361263949424,-3.023941578707099,2.2872419357299805,-1.9457261562347408,0.5998059511184692
5.667460205078125,0.1574006755093112,-0.9493913399491458,1.803576777419448,2.3720598220825195,-1.5739270448684692,0.7720752358436584
5.677440185546875,-1.0064821774367243,0.9955430694669484,-2.9195757798254487,2.110750198364258,-1.9321480989456177,0.7594425678253174
5.687420166015625,-1.3144598199151456,2.5182760758534077,-8.39664993108511,1.4612561464309692,-1.6342785358428955,0.5966949462890625
5.697399169921875,-0.7102171845838428,2.583118550381064,-9.798509948164224,1.0219650268554688,-0.9448831677436828,0.5901168584823608
5.707379150390625,-1.2971437973245978,1.4146455566331744,-9.379774248483775,0.510802686214447,-0.8177001476287842,0.7536112666130066
5.717359130859375,-1.5374254024751484,0.1001105525899678,-12.652733842635154,-0.0274968817830085,-1.2141402959823608,0.9658631086349488
5.72733837890625,-0.8310111173056065,-1.0296290981378406,-14.660727861750123,-0.3307427763938904,-1.400157809257507,0.991910457611084
5.737318115234375,0.1568201356749981,-0.577529984972626,-13.714203382474183,-0.4368074238300323,-1.4257045984268188,0.7628426551818848
5.747298095703125,-0.0410187505435198,1.1611660317353905,-13.419196353793144,-0.3566175103187561,-1.4590470790863037,0.5206409692764282
5.75727734375,-1.6040693734668194,2.564250183781981,-12.838508927702904,-0.1793675720691681,-1.4312829971313477,0.415758341550827
5.767257080078125,-3.032821635255217,3.287591346094012,-11.501896751081944,0.0432743020355701,-1.311244249343872,0.356693685054779
5.777236083984375,-3.443967902719974,3.687552787199616,-10.181722499042747,0.0967799499630928,-1.6293387413024902,0.3784944415092468
5.78721630859375,-3.685229312688112,3.5838583117082714,-10.869821667581796,0.022883091121912,-2.083793878555298,0.4281077980995178
5.797196044921875,-3.0862878525048494,3.318711291500926,-10.407337427067755,-0.0440404005348682,-2.244107246398926,0.4297970533370971
5.807175048828125,-2.470818159107864,3.471615495841205,-8.271151912325621,-0.0725295692682266,-2.1303086280822754,0.365134447813034
5.8171552734375,-2.32087353522554,3.892518310427665,-6.166093941774964,-0.0927302688360214,-1.88072407245636,0.2502781748771667
5.82713525390625,-2.2668713114030656,4.3107159577086565,-4.335657214480638,-0.0912972241640091,-1.609995722770691,0.13588447868824
5.8371142578125,-2.0935762070715427,4.490288096483051,-2.639510884210467,-0.0517803020775318,-1.3530105352401731,0.072005495429039
5.847093994140625,-1.7578437847703694,4.270976067994535,-0.959131447392702,0.0229176357388496,-1.159895658493042,0.1228479072451591
5.85707421875,-1.2343258143618705,3.852394389832019,0.3776525786638259,0.082149401307106,-1.0323281288146973,0.2871336638927459
5.86705322265625,-0.5378258972242475,3.441500051301717,1.4252771330237388,0.1305060237646103,-0.9717774391174316,0.548766553401947
5.877032958984375,0.3149903707846999,3.1263863463982937,2.32653857524991,0.164037600159645,-0.9615870714187622,0.8787921667098999
5.88701318359375,1.2053712302953004,2.6730826066836717,3.0592373484939337,0.1862310618162155,-0.9552298188209534,1.2660000324249268
5.896991943359375,1.908717652326822,1.9258922206200657,3.539764610698819,0.194277137517929,-0.9263526797294616,1.635351061820984
5.906971923828125,2.545370419006049,1.160687673633918,3.79560516563952,0.1939322650432586,-0.8856470584869385,1.8625973463058472
5.916951171875,3.145448774264753,0.6772664435531943,3.9251556746602057,0.1682011932134628,-0.7745124101638794,1.9194375276565552
5.926930908203125,3.366229121740162,0.496534905610606,4.075309411248565,0.1220526024699211,-0.581179678440094,1.855912685394287
5.9369111328125,3.2682021704912185,0.3755481537304818,4.429916045367717,0.0771864205598831,-0.316908985376358,1.7272913455963137
5.946890380859375,3.200950881256163,0.1339486709143966,4.883282913446426,0.0448260866105556,-0.037650428712368,1.5614501237869265
5.9568701171875,3.1483211148306727,-0.2100534940168261,5.254138087055087,0.0100715057924389,0.2380559593439102,1.365767240524292
5.96685009765625,3.221300426323712,-0.501158839084208,5.625539204108715,-0.0361015833914279,0.4935926795005798,1.1291654109954834
5.976829345703125,3.3840897726014254,-0.6746495390530676,5.932381632012128,-0.1026714295148849,0.7061578631401062,0.8791428804397583
5.98680908203125,3.3007273065209386,-0.765220256011933,6.231967805176973,-0.1798112094402313,0.8747897148132324,0.6709449887275696
5.9967890625,2.970476822762191,-0.7733190990544855,6.542991902679205,-0.2574872672557831,1.0253862142562866,0.5132110118865967
6.006768310546875,2.6524147894471883,-0.675761153556779,6.896148922511935,-0.3265259861946106,1.1599464416503906,0.3802084922790527
6.016748046875,2.4843065862342715,-0.5339724731991067,7.231048985642194,-0.3738706111907959,1.2599517107009888,0.2582708299160003
6.026727294921875,2.378747193653881,-0.5548616781013086,7.411694891127944,-0.4028702974319458,1.3228909969329834,0.1330455690622329
6.03670703125,2.283037287175655,-0.6908294702857732,7.428357272115349,-0.4197880625724792,1.372769832611084,0.0040910309180617
6.046687255859375,2.143299730661511,-0.8445905106510967,7.471745747464895,-0.410045713186264,1.4455838203430176,-0.1129527688026428
6.056666259765625,1.9229419925123448,-0.9320192763224244,7.620636916771531,-0.3754705488681793,1.5180617570877075,-0.2076672911643982
6.066646240234375,1.7402708648093044,-0.9279778189118952,7.791713029879332,-0.3031364381313324,1.560399055480957,-0.2731152772903442
6.076626220703125,1.5436849012613296,-0.9175945912592112,7.785160539495944,-0.1963215470314026,1.527488350868225,-0.3174324035644531
6.086605224609375,1.2989926400616765,-0.931093101388216,7.648944142845273,-0.0617605336010456,1.4254541397094729,-0.3560924530029297
6.096585205078125,1.158580691417307,-0.8917384115993976,7.480960150533914,0.0647711008787155,1.3791322708129885,-0.4045012593269348
6.106565185546875,1.1608296393878756,-0.7506206527732312,7.298882166418433,0.1589625775814056,1.389894723892212,-0.4631632268428802
6.1165439453125,1.0498321474067869,-0.6213084094878286,7.175552139347792,0.2153967320919037,1.453639268875122,-0.5021078586578369
6.126524169921875,0.8170650095395743,-0.6937962111368775,6.9833110731363295,0.231300875544548,1.5245773792266846,-0.5198860168457031
6.136504150390625,0.5465935794390737,-0.7525432183336466,6.582005816206336,0.2213293462991714,1.5499988794326782,-0.5152876973152161
6.14648291015625,0.1757142943024635,-0.7214559330873191,6.101732821023464,0.2003066092729568,1.4894911050796509,-0.4947803020477295
6.156463134765625,-0.094013404758647,-0.762152392873913,5.594950004577637,0.1616294085979461,1.2962894439697266,-0.4564965665340423
6.166442138671875,-0.3513262242089957,-0.8343103049814701,4.782399111461639,0.09100291877985,0.908625602722168,-0.4253530204296112
6.176422119140625,-0.6948846639607101,-1.0034865758173168,3.516256309339404,-0.0063080345280468,0.3206146359443664,-0.4316923916339874
6.186402099609375,-0.9682063689257948,-1.2894644948683678,1.832579000020027,-0.1061486080288887,-0.3131183683872223,-0.5254036784172058
6.19638134765625,-1.0769876461621373,-1.4872393759399651,0.0192886378377676,-0.2043938636779785,-0.6936162710189819,-0.6783923506736755
6.206361083984375,-1.589592958216369,-1.0854713238038125,-1.518832784077525,-0.2568453550338745,-0.6826874613761902,-0.7782606482505798
6.216341064453125,-2.899480209518969,0.0695016619777306,-2.679689749863744,-0.2545491755008697,-0.3317062258720398,-0.7391588687896729
6.2263203125,-4.378127405941486,1.630594100037962,-3.705660690820217,-0.2053690999746322,0.2796311676502228,-0.61564040184021
6.236300048828125,-5.2307496126830575,2.8399522080123423,-4.830055181127786,-0.1297496855258941,1.0812969207763672,-0.5257034301757812
6.246280029296875,-4.710216503304243,3.361983446994424,-5.531932699650525,0.0159923397004604,1.884454607963562,-0.517659068107605
6.256259033203125,-2.9976047759234903,2.9682255367040637,-6.256176948282122,0.1217593699693679,1.9982891082763672,-0.5721542835235596
6.266239013671875,-1.0464883899368345,1.851464317753911,-10.163624532294271,-0.1748142540454864,0.3549135029315948,-0.5167706608772278
6.27621826171875,0.1660720212101936,-0.2852933343203738,-18.45165860583782,-0.5832082629203796,-1.4493348598480225,-0.1034251898527145
6.286197998046875,0.3680960110936314,-2.4240299583174285,-20.00463272897005,-0.5991637706756592,-2.1228103637695312,0.3431826531887054
6.29617822265625,-0.105864732202515,-1.2328681628994642,-16.72856406288743,-0.4128332734107971,-2.492028951644897,0.5890108346939087
6.306157470703125,-1.7197262355610727,1.9421176714949309,-16.384043353974818,-0.1808498203754425,-2.697667121887207,0.7481868863105774
6.31613720703125,-3.353268225619197,3.3632913147225976,-15.991935548979043,0.0858410969376564,-2.658087968826294,0.9002647995948792
6.3261171875,-4.593526060378551,2.761902169126272,-14.856388381016254,0.3417112231254577,-2.224574327468872,0.9676702618598938
6.336096435546875,-5.00090099261105,1.516113880507648,-12.94618253595829,0.5113847255706787,-1.5135197639465332,0.8250496983528137
6.346076171875,-4.6074844431042665,0.9029302522212268,-10.842038173121214,0.5956577658653259,-0.5960564613342285,0.5130923390388489
6.35605615234375,-3.912304960915446,0.6381884518139064,-8.350123742231727,0.591293454170227,0.3964114785194397,0.1605867594480514
6.366034912109375,-3.2884599456220864,0.5043464926769957,-5.907600241976976,0.5012804865837097,1.2470418214797974,-0.1629391014575958
6.37601513671875,-2.722128961664438,0.5133037791797891,-4.130558420261741,0.3284335136413574,1.7003405094146729,-0.4276634454727173
6.3859951171875,-2.035343944463879,0.5263258674360811,-3.3699732767045494,0.0290718283504247,1.5816242694854736,-0.630163311958313
6.395973876953125,-1.1725846668504178,0.4007544546468183,-3.252462749567628,-0.3556544184684753,1.053960204124451,-0.763202965259552
6.405954345703125,-0.1943660955414176,0.190135654897429,-2.6631682386517523,-0.7206640839576721,0.4669657349586487,-0.7978789210319519
6.415933349609375,0.4901346101142466,0.0132492846082896,-1.2117647307246924,-0.989471673965454,0.007359036244452,-0.7305964231491089
6.4259130859375,0.8960046907417476,-0.0356200698377564,0.2386819148689508,-1.1472398042678833,-0.3539957106113434,-0.5806777477264404
6.435893310546875,1.0871256668820977,0.0481985607787035,1.1523919197797774,-1.2019271850585938,-0.6426706314086914,-0.3824632167816162
6.4458720703125,1.1978078093037008,0.1122434369215741,1.8114871121525764,-1.1496819257736206,-0.8667910695075989,-0.1787002235651016
6.45585205078125,1.361312610374391,0.1184740749394521,2.4685639504402874,-1.0028364658355713,-1.0082900524139404,-0.0023085467983037
6.465832275390625,1.5270799495495857,0.0384844462929293,3.12481778190732,-0.7875995635986328,-1.0487475395202637,0.1403426080942154
6.47581103515625,1.686468255212158,-0.1271844557427801,3.750659523975849,-0.5604757070541382,-0.96932852268219,0.2461934238672256
6.48579052734375,1.8298855231523512,-0.3037996626740321,4.297148912388086,-0.3359778523445129,-0.7843791842460632,0.2932112514972687
6.495770751953125,1.9734229103408756,-0.5402073124680667,4.787221417051553,-0.14052315056324,-0.5243827104568481,0.2804256975650787
6.50574951171875,2.1819376504831016,-0.7913761492706834,5.2650072715938085,0.0164302550256252,-0.2203375846147537,0.2037719190120697
6.5157294921875,2.4179627672329542,-1.0126578703969715,5.676478533229232,0.0944463014602661,0.0458151474595069,0.0622415542602539
6.5257099609375,2.6937778964489696,-1.178041909343004,5.788019338306785,0.0978690013289451,0.2452752590179443,-0.1064779534935951
6.5356884765625,2.854854009068012,-1.3299720079541206,5.858391097649932,0.0610683225095272,0.4071649312973022,-0.2597271502017975
6.545668701171875,2.842368036982417,-1.4382592180632054,6.117492115691304,0.0166124403476715,0.5605425238609314,-0.3785701990127563
6.555647705078125,2.725204131326079,-1.3767879735343158,6.502430175188184,-0.0115460688248276,0.7197924256324768,-0.4499357044696808
6.565627685546875,2.50178437525779,-1.1968072539590298,7.012800202471017,-0.012307733297348,0.8743971586227417,-0.4695301949977875
6.575607666015625,2.217950482498109,-0.999341292706132,7.456540579548478,0.0059265340678393,0.9938620924949646,-0.4492945373058319
6.585586669921875,1.8963652434930205,-0.8431333706453442,7.786253595429659,0.0475011430680751,1.0642377138137815,-0.3868926763534546
6.595566650390625,1.557683031475544,-0.8424114861115812,7.972363027018308,0.1122714281082153,1.06594717502594,-0.3089210987091064
6.605546630859375,1.189394785745442,-0.9976267438732088,8.037716665938497,0.2092344611883163,1.027140498161316,-0.2525989711284637
6.615525634765625,1.059196626470983,-1.161847218932584,8.10783415825963,0.318101704120636,0.9395014643669128,-0.2536424994468689
6.625505615234375,1.169901272985339,-1.1969644172821192,8.135414239102602,0.4128308594226837,0.8164101839065552,-0.3082338571548462
6.635485595703125,1.2882469357721509,-1.118988539610803,8.042678087738157,0.4668018519878387,0.6745942831039429,-0.3690568506717682
6.645464599609375,1.2413969217918812,-1.071018873950839,7.811480975666642,0.4772507846355438,0.525668740272522,-0.4073573648929596
6.65544482421875,1.1013503723938018,-1.0742755376592277,7.4648530653417104,0.4528184235095978,0.4277680814266205,-0.4255275726318359
6.6654248046875,0.997661522925645,-1.0603616516623646,7.093358424785733,0.4041771292686462,0.38525390625,-0.4285196363925934
6.67540380859375,0.8503911597538739,-0.9946021353550256,6.679722094070911,0.3348879218101501,0.3908574283123016,-0.4415319561958313
6.6853837890625,0.73077693833597,-0.8590847538191825,6.150301329359412,0.2489525079727172,0.4059208035469055,-0.4572422206401825
6.695362548828125,0.5694529153704643,-0.7216043285820632,5.5544911529392005,0.1636855453252792,0.3655981421470642,-0.439717024564743
6.7053427734375,0.2322583115622401,-0.661585694014281,4.7936681089729065,0.1044128984212875,0.265600711107254,-0.3887004554271698
6.71532275390625,-0.2111163009427487,-0.6506365761071443,3.925419294032454,0.0996258035302162,0.1971650421619415,-0.333538144826889
6.725301513671875,-0.5250424765620381,-0.4825601562719792,3.255744839978218,0.1546714901924133,0.1470286250114441,-0.2945542633533478
6.73528173828125,-0.6635211921215057,-0.2049390736125409,2.4762901607781647,0.2674649655818939,0.0366700589656829,-0.2776391804218292
6.74526171875,-0.6809715816814452,-0.0670323675210587,1.4628963773220776,0.4683048725128174,-0.1180284395813942,-0.2725943624973297
6.755240478515625,-0.8953342441342771,-0.0869691488029435,0.7343272512286901,0.7054510712623596,-0.2642731964588165,-0.265847235918045
6.765220703125,-1.5261751096643503,-0.0139766125021502,0.1530792686462402,0.8950468301773071,-0.3489902317523956,-0.3030489385128021
6.775200927734375,-2.192777170535922,0.126949094350636,-0.8106693171530962,1.000477313995361,-0.3604998886585235,-0.3996879756450653
6.7851796875,-2.851594422750175,0.4921580787658691,-1.7669284239798784,1.0148873329162598,-0.3205689787864685,-0.5303280353546143
6.79515966796875,-3.3854499550387263,1.2372542690292,-2.97171922403872,0.9272480010986328,-0.2322143763303756,-0.6708850264549255
6.805139892578125,-3.6616643127053976,1.9756791648350656,-4.2538785104602574,0.7923586368560791,-0.0155137684196233,-0.7808493375778198
6.81511865234375,-3.453886654666066,2.0848162697717547,-5.086645677652955,0.6229875683784485,0.2502325773239136,-0.8922340273857117
6.8250986328125,-2.6987203212872144,1.7428922993540763,-5.877238421460985,0.356740653514862,0.3252170979976654,-1.0672197341918943
6.83507763671875,-1.526492358919978,1.5461454461559652,-7.645062917497754,-0.0925936996936798,-0.0058551235124468,-1.23176109790802
6.8450576171875,-0.529072389665246,1.3463091025099156,-10.157425093132256,-0.7046006321907043,-0.6236914396286011,-1.2352858781814575
6.85503759765625,-0.1730428100708872,0.8116495603621006,-12.226741303694247,-1.292778491973877,-1.163579344749451,-1.045590043067932
6.8650166015625,-0.2846777962379157,0.1466553000133484,-13.047484855616093,-1.6627085208892822,-1.48222017288208,-0.7992947697639465
6.87499658203125,-0.579424712678045,0.3468563122533261,-13.101616258776188,-1.7304424047470093,-1.6172516345977783,-0.5806026458740234
6.884976806640625,-1.0512279856793585,1.1300561693310738,-13.014128529459237,-1.4898796081542969,-1.4188885688781738,-0.4139260351657867
6.894955810546875,-1.5440313766114413,1.479777661757171,-12.041121701449155,-1.0610840320587158,-0.8633071184158325,-0.2892279624938965
6.904935791015625,-1.846716977096349,1.523492738712579,-10.393982270932195,-0.5797358751296997,-0.1575209945440292,-0.1983507722616195
6.91491552734375,-1.9404151053607464,1.3897814567506312,-8.88746244046092,-0.1388381868600845,0.5143064856529236,-0.1607020497322082
6.924894775390625,-1.5620331895090638,1.0872718704197557,-7.404808054223656,0.1740579307079315,0.9986323714256288,-0.1443158835172653
6.934874755859375,-1.0087246226012707,0.6476889783479273,-6.121475632369518,0.3461489081382751,1.2399194240570068,-0.1184457913041114
6.9448544921875,-0.5824431837163865,0.2153513994955457,-4.94060522160232,0.3990552723407745,1.32213032245636,-0.0760048627853393
6.954833740234375,-0.1370193835966289,-0.1162350821073167,-3.468371691614389,0.3629219532012939,1.314873456954956,-0.0305606946349143
6.964813720703125,0.3681299133632332,-0.3257455004896968,-2.05501412896514,0.2596168518066406,1.2035104036331177,0.007763790898025
6.97479248046875,0.7945430158037692,-0.5383600771661847,-1.0547685808956622,0.1098887547850608,1.0414152145385742,0.0413525141775608
6.984772705078125,1.1390736615885049,-0.8866731640990823,-0.1581096640288829,-0.0597402267158031,0.9034429788589478,0.0674935728311538
6.994752685546875,1.2540354540906846,-1.235802901177108,0.6686901191920042,-0.2295138537883758,0.781885027885437,0.1060002148151397
7.0047314453125,1.0419671131201087,-1.5746731831125913,1.31717916187644,-0.3564108312129974,0.6411766409873962,0.1637673676013946
7.0147119140625,0.6739553462438285,-1.7945906301483512,1.935849989402294,-0.4118555188179016,0.483454018831253,0.2081416249275207
7.02469189453125,0.5669582490105182,-1.8455222143538292,2.5462901641994717,-0.3965282440185547,0.3543168008327484,0.2179364711046219
7.034670654296875,0.6981450539961457,-1.7652146057993172,3.236870628160238,0.0191774927079677,0.5654594302177429,0.12584288418293
7.04465087890625,1.2878605668030678,-1.400262372624129,6.079329266035557,0.2206126004457473,0.1533842384815216,-0.0462063737213611
7.054630615234375,1.749172987058759,-1.641640686970204,3.313085268312693,0.2881037294864654,-0.2894591093063354,-0.192061573266983
7.064609619140625,2.002735514064878,-1.9288593998625876,2.3292829055219886,0.2496820390224456,-0.5146171450614929,-0.2120366096496582
7.07458984375,1.5462022909097373,-2.069827521084994,2.607276840081811,0.1470463722944259,-0.5440146923065186,-0.1961696296930313
7.084569580078125,1.298558632558584,-1.6937475985653698,2.541821494352817,-0.0438402220606803,-0.4806364774703979,-0.2122766822576522
7.094548583984375,1.2645707304999232,-1.3157732406012712,2.10286893607378,-0.2910588681697845,-0.3945583403110504,-0.2451238632202148
7.104528564453125,1.338793466182798,-1.2975219829872249,1.7233184148341416,-0.4833590686321258,-0.282626211643219,-0.3035061955451965
7.1145087890625,1.516329861345887,-1.3955144474446772,1.764659310004115,-0.5522932410240173,-0.1976971477270126,-0.3181346654891968
