seconds_elapsed,ax,ay,az,gx,gy,gz
0.087590087890625,0.3018319062650204,-0.2325281049469485,0.3297428264975547,0.008594567887485,-0.1478166282176971,-0.0971037596464157
0.097615966796875,0.3957780179411173,-0.308920914677903,0.4374018217056989,-0.0401921458542346,-0.1267949789762497,-0.0936347246170044
0.10764208984375,0.4625302716128527,-0.2474514602473005,0.526394110366702,-0.0933307334780693,-0.11024671792984,-0.0787451788783073
0.11766796875,0.5137953255563974,-0.1137291545678395,0.5272691396355629,-0.1393573433160781,-0.0918743759393692,-0.0569104552268981
0.127694091796875,0.4994329651396721,-0.001371745010931,0.4403928202152252,-0.1703601479530334,-0.0924566686153411,-0.0291029270738363
0.137719970703125,0.5125273514471947,0.0588757481429725,0.3227303173869848,-0.1762252300977707,-0.1092247292399406,-0.0007706218748353
0.147746337890625,0.5898797634579241,0.0584809355725301,0.1968611272275447,-0.1526271402835846,-0.1053548529744148,0.0280667711049318
0.157772216796875,0.6267893251169473,0.0804977608317509,-0.0336275443136692,-0.1129218116402626,-0.0745484754443168,0.0559780299663543
0.167798095703125,0.5060041602235287,0.0953030153109226,-0.2698392696768045,-0.0726751908659935,-0.0479771345853805,0.0724104940891265
0.17782421875,0.3812901314485818,0.0650152281455229,-0.3897703019589185,-0.0315386690199375,-0.0366547033190727,0.0745663270354271
0.18785009765625,0.2905908927392214,0.0157323050545703,-0.3462450484871864,0.0067157750017941,-0.0360461696982383,0.076403371989727
0.197876220703125,0.3218610602717846,-0.0335419415395823,-0.2259954517751932,0.036064077168703,-0.0466069355607032,0.0804804041981697
0.207902099609375,0.3956733885228634,-0.0592419237073976,-0.0369067121148109,0.0516609251499176,-0.0640476644039154,0.089576318860054
0.217927978515625,0.4507113120686262,-0.0880754295444116,0.1192868891596794,0.0789386183023452,-0.0716099739074707,0.0968534052371978
0.227953857421875,0.4385624629829078,-0.1415382309942506,0.15218436563313,0.1250984817743301,-0.0612170621752738,0.0917912274599075
0.237979736328125,0.2761879811163991,-0.1858424512155354,0.0416992070883512,0.1753251701593399,-0.042794644832611,0.078160636126995
0.248005859375,0.164898666581884,-0.2355526038672775,0.0570662875682115,0.2090703397989273,-0.0173298213630914,0.0657544210553169
0.258031982421875,0.1455398130521178,-0.2375035552719608,0.2110942352414131,0.2242945581674575,0.0199967771768569,0.0558911375701427
0.26805810546875,0.1993844351600855,-0.2163040057789534,0.4410112443745136,0.2129686623811721,0.0619596242904663,0.0528204143047332
0.278083984375,0.2582264271639287,-0.2109242124367505,0.7305781278282404,0.1838270276784896,0.1124632805585861,0.0522502325475215
0.288110107421875,0.3345069721594452,-0.279934035776928,0.9948024802327156,0.1505482643842697,0.1809540539979934,0.0523470379412174
0.298135986328125,0.392972459001094,-0.2973928278390318,1.1916606848508118,0.1178893893957138,0.2367430180311203,0.0523539632558822
0.308161865234375,0.3901768369331955,-0.248273334556818,1.4457359836846588,0.0980747863650322,0.2710515558719635,0.0581987835466861
0.31818798828125,0.3591821984063834,-0.1303484179327264,1.6815812138229609,0.1049316301941871,0.2927203774452209,0.0777288079261779
0.3282138671875,0.3396479883097112,0.0107446813762187,1.8434218810737133,0.1469149589538574,0.2778995335102081,0.0995057597756385
0.338239990234375,0.321990824131295,0.1135295494756661,2.0164865376502275,0.2076387554407119,0.2278368771076202,0.122080311179161
0.348265869140625,0.2259207060385495,0.226065411738865,2.19425425735116,0.2772158682346344,0.1544312834739685,0.1417957246303558
0.3582919921875,0.0500278402987867,0.388472188439779,2.368096912562847,0.3308748304843902,0.0430291220545768,0.1599331796169281
0.368318115234375,-0.161208726022765,0.5619064089810475,2.618715933462977,0.3606773018836975,-0.0603456571698188,0.1715186983346939
0.37834423828125,-0.2605466137398034,0.6221024094097316,2.8225065676927565,0.3678758442401886,-0.0976597368717193,0.1752974689006805
0.3883701171875,-0.2913097815982997,0.6535740908637643,2.785322792202234,0.3602751791477203,-0.043880395591259,0.1850251853466034
0.39839599609375,-0.2652226427268236,0.8601814630147069,2.5609020423978563,0.3467476367950439,0.0663393214344978,0.2200617343187332
0.408422119140625,-0.2932754556480795,1.081131833294779,2.485105919918418,0.3178520202636719,0.20518659055233,0.2708690762519836
0.418447998046875,-0.3449483597401529,1.1806982690706849,2.624851659739017,0.2706541419029236,0.3497280478477478,0.3334688246250152
0.42847412109375,-0.4370817959710955,1.1673095029264688,2.8446348128706216,0.2304148077964782,0.4809470176696777,0.3771998286247253
0.4385,-0.6376186891019344,0.9872812909476458,2.997019084990024,0.1929015219211578,0.5688992738723755,0.3694622814655304
0.448526123046875,-0.8710824309311807,0.710175683529675,3.179529030781984,0.1478028893470764,0.5849485993385315,0.3168124258518219
0.458552001953125,-1.1035141993641853,0.3574349528802558,3.3372610936701297,0.0787700191140174,0.5714064240455627,0.2427957206964492
0.468577880859375,-1.1967759089726957,-0.0054983051553368,3.105172001194954,-0.0313342735171318,0.5341501235961914,0.1746324300765991
0.478604248046875,-1.0410472948614506,-0.1397215917600318,2.522350485685468,-0.1853475421667099,0.4179542660713196,0.1286476254463195
0.488630126953125,-0.6398198524080216,-0.1401052207827568,1.7018647079169749,-0.353596031665802,0.267583966255188,0.1031584590673446
0.49865625,-0.265096276400797,-0.2209906292252242,0.4070470154523849,-0.5149878859519958,0.1725157648324966,0.1100949272513389
0.50868212890625,-0.2404286124058067,-0.2026694847127422,-1.1590244896620512,-0.692793071269989,0.1732931733131408,0.1666128039360046
0.518708251953125,-0.3173426695318892,0.1168447932371869,-2.8105852437525987,-0.8476953506469727,0.2582956850528717,0.2649202048778534
0.528734130859375,-0.3689034915516153,0.4661000929236412,-4.699364269900322,-0.9160987734794616,0.3095406591892242,0.3715288937091827
0.538760009765625,-0.4268827657788991,0.705486941191554,-6.601233663767576,-0.8481205105781555,0.2928178608417511,0.4742275476455688
0.5487861328125,-0.6100787576062604,1.0502391938377171,-8.498114163306354,-0.64045250415802,0.2393233329057693,0.5616806149482727
0.558811767578125,-1.0941538119532168,1.4571306534022093,-10.050101028966903,-0.3281038999557495,0.2076546251773834,0.6174815893173218
0.568837890625,-1.5897528249531985,1.724671875269711,-10.94622569282651,0.021855691447854,0.1452614367008209,0.6249436140060425
0.57886376953125,-2.0226786702886224,1.7253592730119824,-11.012273159229755,0.3203126788139343,0.0007178401574492,0.5556350946426392
0.58889013671875,-2.339758122307062,1.3927398681648075,-10.17422308319807,0.5008775591850281,-0.1165344640612602,0.4257635772228241
0.598916015625,-2.511726800340414,0.9424795877993106,-8.937336186176537,0.5351015329360962,-0.1541875600814819,0.2911924421787262
0.60894189453125,-2.403577099005878,0.4658935375008732,-7.378347332799434,0.42098268866539,-0.2292899340391159,0.1684004068374633
0.6189677734375,-1.9104392154224217,-0.0330541557393502,-5.903054415240884,0.1793306469917297,-0.3878305554389953,0.0418680310249328
0.62899365234375,-1.174229949839413,-0.4193948211763054,-4.75474012016356,-0.1074500307440757,-0.4457519650459289,-0.0709444209933281
0.639019775390625,-0.3013139102729037,-0.5657607097890228,-4.286650314727425,-0.3523178398609161,-0.2972621023654938,-0.1286564469337463
0.6490458984375,0.2728309257734567,-0.3218476162683218,-4.333869746541977,-0.5294114947319031,-0.0470152720808982,-0.1309107095003128
0.659072021484375,0.434784551879391,0.1028651576608885,-4.067907610559463,-0.6078538298606873,0.178336352109909,-0.1129034757614135
0.669097900390625,0.4588236356472596,0.4535678340109065,-3.220328658682108,-0.5816594958305359,0.2872579991817474,-0.0905130431056022
0.6791240234375,0.2684351750325411,0.6388805987965315,-1.9055670793414117,-0.4716427326202392,0.2054867148399353,-0.0845981687307357
0.68914892578125,-0.2399174480132758,0.622286899131164,-0.2775350848764181,-0.2995024025440216,-0.0495349876582622,-0.1391805857419967
0.6991748046875,-0.8474388127543032,0.4198768325395882,1.2513123127371073,-0.0935915857553482,-0.4290250539779663,-0.2407439649105072
0.709200927734375,-1.1685356837205587,0.0942602647923398,2.397411269852519,0.0970018655061721,-0.8556202054023743,-0.3842642307281494
0.719226806640625,-1.2263554200045763,-0.3626831922646611,3.105658323407173,0.2221185117959976,-1.209499478340149,-0.5859917998313904
0.729252685546875,-1.0691079988282173,-0.7092253240022808,3.6310926488310096,0.2482900768518448,-1.4261363744735718,-0.8049868941307068
0.73927880859375,-0.6951087550401687,-0.7257995152495801,4.075737281271815,0.1503872126340866,-1.501960277557373,-0.9928271174430848
0.7493046875,-0.2780433997247368,-0.5574686091966927,4.537140740811824,-0.1116668805480003,-1.449782371520996,-1.0871126651763916
0.759330810546875,0.1836011750947684,-0.0819656140277627,5.054683436203002,-0.4514740109443664,-1.3003531694412231,-1.0583786964416504
0.769356689453125,0.632250147806108,0.6665037881288677,5.332877861770987,-0.7514105439186096,-1.047548532485962,-0.9201301336288452
0.779383056640625,1.115206390723586,1.4283664773412048,5.124695130062103,-0.9540690779685974,-0.7162132263183594,-0.7174611687660217
0.789408935546875,1.535677828155458,1.8269553149193525,4.6078982846021646,-1.0198981761932373,-0.3709363341331482,-0.499585211277008
0.79943505859375,1.636645947422832,1.728780187371373,3.928870311269164,-0.95356285572052,-0.0951814427971839,-0.3130001425743103
0.8094609375,1.5420122918739914,1.303098321814835,3.436469655919075,-0.7889116406440735,0.0478907041251659,-0.1795532256364822
0.81948681640625,1.5013991264566775,0.7590267351340502,3.3537907881885767,-0.543815016746521,0.0956433042883873,-0.1005295142531395
0.829512939453125,1.54491049753353,0.1678537900604307,3.621854864886403,-0.2747319042682647,0.0642978027462959,-0.0440904535353183
0.839538818359375,1.5732986798889934,-0.3974241777129471,4.086237047976256,-0.0190106481313705,-0.0261045321822166,0.0188158061355352
0.84956494140625,1.6870532154932618,-0.7033340740066021,4.61072503246069,0.202963039278984,-0.1742253452539444,0.1008977964520454
0.8595908203125,1.784101530968398,-0.9360793653681874,5.035448574379086,0.3914405405521393,-0.3549823462963104,0.1886684000492096
0.869616943359375,1.846280339244753,-1.1320562571071089,5.215538599547744,0.5385591983795166,-0.4756075739860534,0.2587641775608063
0.879642822265625,1.836722821826488,-1.2905996363781391,5.127968452644348,0.6378881931304932,-0.5005802512168884,0.2895596325397491
0.8896689453125,1.6508932300925254,-1.367834121097624,5.029720844382047,0.6690428853034973,-0.4015341699123382,0.2600024044513702
0.899695068359375,1.4775098629556596,-1.3905842975661158,4.93527204388082,0.6408831477165222,-0.2342216372489929,0.190679520368576
0.909720947265625,1.3767979104064405,-1.285904610429704,5.023581610974669,0.5778971910476685,-0.0868910700082779,0.1402279138565063
0.9197470703125,1.42163366195485,-1.0664720973666757,5.256496048358082,0.5014024376869202,0.062133565545082,0.1295563727617263
0.92977294921875,1.4976900428056716,-0.8690705796521156,5.3422646987974645,0.4600733816623688,0.2419679760932922,0.1474809944629669
0.939799072265625,1.3327410342760384,-0.7133910653796046,4.9751668318957085,0.4464872777462005,0.3796004056930542,0.1511646807193756
0.949824951171875,0.9937539940930904,-0.53379963738285,4.576398984488844,0.4179122745990753,0.4334977567195892,0.1112001612782478
0.959850830078125,0.6135206051558256,-0.2904003568694926,4.41872128213644,0.3547503650188446,0.4493829905986786,0.0427164398133754
0.969876953125,0.3113397393226623,-0.0623622385518625,4.328777391839028,0.270072340965271,0.5244978666305542,-0.0155040277168154
0.97990283203125,0.0890399271950125,0.261656218949519,3.9997763236194848,0.1561865359544754,0.6369101405143738,-0.0293266326189041
0.989928955078125,-0.1557921808667481,0.7536082172166556,3.601318857336044,0.0108553487807512,0.6938570141792297,-0.0413935706019401
0.999954833984375,-0.3473998445454985,1.1556328013971446,3.139388743573427,-0.1050883010029792,0.7831504344940186,-0.0798054039478302
1.00998095703125,-0.349885304685682,1.512787512563914,2.057695330873132,-0.1684117615222931,1.0187238454818726,-0.1124663576483726
1.0200068359375,-0.3672479428969323,2.097264978586882,0.7493050401300192,-0.2428276687860489,1.289822697639465,-0.088697113096714
1.03003271484375,-0.3414675318870693,2.535874276386201,0.1243517713338136,-0.3804649710655212,1.3149906396865845,0.0156011600047349
1.040058837890625,0.3662988254785537,2.4806790433868766,-0.1257645607411861,-0.587213397026062,0.8068299889564514,0.2173292189836502
1.050084716796875,1.6809402855709197,1.976476452692598,-0.2283820546507835,-0.7184111475944519,0.0322517864406108,0.5153963565826416
1.06011083984375,2.8384412189275023,1.3426194542117416,-1.4416671268105503,-0.6279552578926086,-0.5049403309822083,0.8860556483268738
1.07013671875,2.8455668330237267,1.1687881971769034,-4.210473668497801,-0.3904322683811188,-0.7696836590766907,1.2516344785690308
1.080162841796875,1.5393167691797016,1.3924920308835804,-6.693906686767935,-0.0611973851919174,-0.7943269610404968,1.4707952737808228
1.090188720703125,-0.429282374266535,1.3634645277112722,-8.57878578286767,0.2679057419300079,-0.7542457580566406,1.4371808767318726
1.100215087890625,-2.727771059204638,0.8657803790003061,-9.63917045007944,0.5557329654693604,-0.6678463816642761,1.1603647470474243
1.110240966796875,-4.2760596548691385,0.1712550133386626,-9.953418770325182,0.7740308046340942,-0.5239723324775696,0.720221757888794
1.120266845703125,-4.750685291814804,-0.6830488994121551,-9.57814928740561,0.8368750214576721,-0.4788639545440674,0.2333631515502929
1.13029296875,-3.943192266610264,-1.659596761029959,-8.070064107313751,0.6742451190948486,-0.6674619317054749,-0.2465603053569793
1.14031884765625,-2.863914682880044,-2.481610771279037,-6.428951682001352,0.2951659560203552,-0.9333287477493286,-0.7187232971191406
1.150344970703125,-2.178370751781761,-2.8098949234008788,-5.346512419369817,-0.1843750178813934,-1.0022143125534058,-1.0473921298980713
1.160370849609375,-1.4940414571702478,-2.213000751136243,-5.426578474253415,-0.6427545547485352,-0.8636940121650696,-1.1324431896209717
1.17039697265625,-0.8205772554442285,-1.092625871733576,-6.447706651353836,-0.9843314290046692,-0.450146734714508,-1.0644935369491575
1.1804228515625,-0.4401698251143097,-0.1657766549928113,-8.049088539302348,-1.1312600374221802,0.1612905412912368,-0.9838978052139282
1.19044873046875,-0.6120134154632687,0.5076412233734503,-9.755432438459993,-1.1002488136291504,0.7384114265441895,-1.00739324092865
1.200474853515625,-1.227979660205543,0.7311264093607663,-10.575886652046442,-0.9409645199775696,1.128573298454285,-1.1531070470809937
1.2105009765625,-1.5243784355059264,0.4414434617793187,-10.0363063123703,-0.7058289647102356,1.3480429649353027,-1.3062701225280762
1.220527099609375,-1.146218272646144,0.1186808495579287,-8.439135320115088,-0.4470578730106354,1.423870086669922,-1.377872347831726
1.230552978515625,-0.4706400744408369,0.0821508618010208,-6.023225686019659,-0.2242408692836761,1.343671202659607,-1.3963721990585327
1.2405791015625,0.1555448550421744,0.0802070707894861,-3.109681003051996,-0.067832626402378,0.981138288974762,-1.4005030393600464
1.25060498046875,0.4986920105792581,-0.0148326082769781,0.0021697452545166,0.0322898440062999,0.421924740076065,-1.4199482202529907
1.260630859375,0.6001544161695986,-0.3035101416755467,2.543553432711959,0.1180441677570343,-0.2360254377126693,-1.4341319799423218
1.270656982421875,0.8060866655379534,-0.3888968070600181,4.010588225013017,0.2240318357944488,-0.7911435961723328,-1.4337342977523804
1.280682861328125,0.8316532146014273,-0.403554314498417,4.333181764277816,0.3111227750778198,-1.233167052268982,-1.4238324165344238
1.290708984375,0.7064223223455249,-0.2610273099288344,4.010622127282619,0.315944492816925,-1.567427158355713,-1.3860955238342283
1.30073486328125,0.639749271389842,-0.0063976286152377,3.460104798528552,0.1374759376049041,-1.6137949228286743,-1.2877905368804932
1.310760986328125,0.724505383785814,0.2838030592299997,3.031923225110769,-0.1419989317655563,-1.2151507139205933,-1.1730910539627075
1.320787109375,0.8422894671671092,0.5359740953451022,2.676578924366832,-0.3488786220550537,-0.6470568776130676,-0.9526625871658324
1.330813232421875,1.1457527740262448,0.6956755951426923,2.5757500674396754,-0.5324435830116272,-0.2175323516130447,-0.7013205289840698
1.3408388671875,1.4529258951887487,0.4657175233468413,3.1863848880261183,-0.6538312435150146,-0.0154138654470443,-0.4952262341976166
1.35086474609375,1.5895023573234677,-0.0800963404240086,4.039419182699919,-0.6727167963981628,-0.0029102656990289,-0.3659366071224212
1.360890869140625,1.629219889075309,-0.3934314913475886,4.793883797550201,-0.545224130153656,-0.0453924797475338,-0.3119359612464905
1.370916748046875,1.2888707667589188,-0.3588488017335534,4.669997305640578,-0.3105611801147461,-0.1035252958536148,-0.3245917856693268
1.38094287109375,0.7461715644098817,-0.2774287018924951,4.440474264261126,-0.0191130880266428,-0.0788106322288513,-0.4023797810077667
1.39096875,0.4376541890315711,-0.1867250062037259,4.2747792596697805,0.2880528271198272,0.0478368699550628,-0.4516876935958862
1.400994873046875,0.2590755913391709,0.0541003504347056,4.19719508472979,0.6152895092964172,0.2437568455934524,-0.4372674822807312
1.411020751953125,0.3091808077231049,0.3344772711409255,4.201716946068406,0.91867995262146,0.4155334830284118,-0.3503970801830292
1.421046630859375,0.5977861526682973,0.5056461040334775,4.496870689743757,1.165056824684143,0.4843189418315887,-0.187251329421997
1.431072998046875,1.1003351309366525,0.7034414068385958,5.045253344556689,1.3494327068328855,0.4404268264770508,0.0323706865310668
1.441098876953125,1.4895340627484022,0.7688255870275199,5.645791134020686,1.4702845811843872,0.3124030828475952,0.2596256732940674
1.451125,1.6974378313854337,0.7666797341052443,6.166473296481371,1.5067713260650637,0.1153662502765655,0.4498968124389648
1.46115087890625,1.7322450870029626,0.7334042911648749,6.712798434242606,1.4114924669265747,-0.0414039194583892,0.5446227788925171
1.471177001953125,1.5602812312752008,0.6320243031609803,7.267427289968729,1.238016963005066,-0.0399649292230606,0.5348503589630127
1.481202880859375,1.1368208411604166,0.5717440950475633,7.424577753576636,1.039336085319519,0.0983239710330963,0.4810289442539215
1.491228759765625,0.5017231949687003,0.6275256765674799,7.340462715563177,0.8136966824531555,0.3051781058311462,0.4093706607818603
1.5012548828125,0.0243719324514269,0.7862666242372244,7.12163817833066,0.5896332263946533,0.5288839340209961,0.341258704662323
1.51128076171875,-0.157119191686809,1.1263913632132112,6.6177680344611405,0.3747097253799438,0.752581000328064,0.3193090558052063
1.521306884765625,-0.1072775946751236,1.5998055785425007,6.181624103862047,0.1681874543428421,1.02335786819458,0.3439078629016876
1.531332763671875,0.0331404914490878,1.8613729866974051,5.908682776516676,-0.0519311130046844,1.298118233680725,0.3677469789981842
1.541359130859375,0.141656907204166,1.8110910985723137,5.575895175495743,-0.2938361465930938,1.388644456863403,0.4106811285018921
1.551385009765625,0.5031869108457118,1.7466646574996412,5.160169179025292,-0.5066606402397156,1.243889093399048,0.50254887342453
1.561409912109375,1.0341448219966145,1.6516352806314825,4.412673818665743,-0.6674689650535583,0.9071400761604308,0.588610827922821
1.57143603515625,1.5365212932422756,1.1400747283898294,3.1124422844588757,-0.786895215511322,0.427511990070343,0.650406539440155
1.581462890625,1.881381463242322,0.4416730692841112,1.1456272479504346,-0.8433736562728882,-0.0789501443505287,0.6986553072929382
1.591488037109375,1.98951377505064,0.0490236864912323,-1.5432318967968224,-0.8426949381828308,-0.3320972323417663,0.7673348188400269
1.601513916015625,1.6939201786532998,0.3940248175982385,-4.820521629106998,-0.7927337884902954,-0.228526085615158,0.887398362159729
1.61154052734375,0.9847946617636828,1.2445678069129589,-7.887975601804256,-0.7630850076675415,0.1621429175138473,1.0858807563781738
1.62156640625,0.1727087558109313,2.165218570872396,-10.211609103262424,-0.738541841506958,0.4638074338436126,1.2561686038970947
1.63159228515625,-0.5756126801092177,2.2075718579553065,-11.457987466728689,-0.5950604677200317,0.528346061706543,1.2980657815933228
1.64161865234375,-1.0911949621476231,1.116842905884236,-11.780954515480994,-0.3906979858875274,0.4477422833442688,1.25095534324646
1.65164453125,-1.2568239157654344,-0.1413503254730254,-11.411378860288858,-0.2204636633396148,0.206059530377388,1.1964119672775269
1.661670654296875,-1.5590337154321372,-0.7530428384188562,-10.50578494181633,-0.1125832721590995,-0.0714884623885154,1.084976315498352
1.671696533203125,-2.485284491355717,-0.9272432210270316,-9.427074344319104,-0.1108148917555809,-0.3410397171974182,0.8128436207771301
1.68172265625,-3.677732234930992,-1.2431415735021232,-8.615047767338156,-0.2516961395740509,-0.5385056734085083,0.3986936211585998
1.69174853515625,-4.423307148621976,-1.5780803612075744,-8.198148635435103,-0.4962817430496216,-0.5582152605056763,-0.0606300756335258
1.7017744140625,-4.494505129656195,-1.7665153131343423,-8.211014546748995,-0.8201833963394165,-0.4035479426383972,-0.5076701045036316
1.711800537109375,-4.302464262191951,-1.6839049805954098,-8.295477375286817,-1.196518898010254,-0.1049251854419708,-0.8846209049224854
1.721826416015625,-3.864156139296293,-1.2237113352365792,-8.060762610483168,-1.5019512176513672,0.3090001046657562,-1.0791983604431152
1.7318525390625,-2.863777612496912,-0.2142419586826115,-7.77026809079051,-1.6299301385879517,0.6921525597572327,-1.0360349416732788
1.741878173828125,-1.5439908984705806,1.0024895276039838,-7.261366382494568,-1.5623574256896973,0.8934321403503418,-0.8211884498596191
1.751904541015625,-0.2898154513873159,1.8983795059248805,-6.085613460871577,-1.3314367532730105,0.7948024868965149,-0.5424830317497253
1.761930419921875,0.6147555537782609,2.2478540378525853,-4.192053045666218,-0.993881344795227,0.5021016597747803,-0.2963353097438812
1.771956298828125,0.9924863122448324,1.9205948448643089,-2.1838760711997747,-0.6108415722846985,0.0647048577666282,-0.1725369095802307
1.781982421875,0.5569569698801263,1.0269942195896058,-0.373172802901268,-0.2347172051668167,-0.5314634442329407,-0.0847729817032814
1.79200830078125,-0.2267048056209459,0.4017465709567069,1.1226911935210226,0.1468080580234527,-1.1129579544067385,0.0137389441952109
1.802034423828125,-0.4984792446114122,-0.2614331142507493,1.923110334816575,0.5316382646560669,-1.5293320417404177,0.1257437765598297
1.812060302734375,-0.4916796475991606,-0.9840135943885892,2.2241104664325717,0.8837927579879761,-1.6519688367843628,0.2064805477857589
1.82208642578125,-0.2706615458451211,-1.707213667729497,2.0486539462834594,1.114511251449585,-1.4998879432678225,0.2061037123203277
1.8321123046875,-0.0270279999181628,-2.0638795724660155,1.8764555511474608,1.1176038980484009,-1.3511087894439695,0.0988706722855568
1.84213818359375,-0.0945151437357068,-1.8506654224611816,2.624215699923038,0.7950324416160583,-1.1798670291900637,-0.1471580117940902
1.852164306640625,-0.201584648618102,-1.5744523799687622,4.043908310812712,0.3912397921085357,-0.7765604257583618,-0.4416081011295318
1.8621904296875,-0.062674336708337,-1.3108823998197912,5.0528725873887534,0.1567305922508239,-0.4080505073070526,-0.5427539348602295
1.872216552734375,0.8353074993252754,-0.8173749522715806,5.409098347142338,-0.0098473094403743,-0.2262097001075744,-0.4706088602542877
1.882242431640625,2.037891290859133,-0.7057342670161276,5.576344672828912,-0.1090583205223083,-0.1507791131734848,-0.3235512375831604
1.8922685546875,2.935826657402515,-1.004528120759502,5.702931655868888,-0.1307563185691833,-0.0805177018046379,-0.1753498911857605
1.90229443359375,3.239176567015052,-1.1842363070037216,5.6845753304451705,-0.1094635650515556,-0.0393242016434669,-0.0388903133571147
1.912320556640625,3.15701704698354,-1.0871346539061515,5.688257233828306,-0.0484146289527416,0.010957995429635,0.081497274339199
1.922346435546875,2.9929733167305588,-0.8814023840893059,5.696327727559209,0.0435254126787185,0.0750879794359207,0.1997413635253906
1.932372314453125,2.660031694191694,-0.7331678520604967,5.762936334976554,0.1647583097219467,0.1963508278131485,0.3096330463886261
1.9423984375,2.18408094612211,-0.6516436342578381,5.745120692300796,0.3022879362106323,0.329291820526123,0.3932094573974609
1.95242431640625,1.7099071445971727,-0.6197432790629566,5.679591696813702,0.4432017803192138,0.4198059737682342,0.436216652393341
1.96245068359375,1.2765306328848005,-0.6343097837496549,5.794729649600386,0.5710856914520264,0.468318909406662,0.4225061535835266
1.9724765625,0.8612269534796476,-0.7256853873506188,6.036144788825512,0.669965386390686,0.4770951569080353,0.3521431088447571
1.982502685546875,0.5014699508599937,-0.7491132438849657,6.375940222781896,0.7092387676239014,0.4680926203727722,0.216321125626564
1.992528564453125,0.2900993828952312,-0.6116945953050628,6.67519204942584,0.6663346290588379,0.4150908887386322,0.0586141571402549
2.002554443359375,0.2412827450171112,-0.3160825499355792,7.06134240732193,0.548418402671814,0.3315390050411224,-0.0352156646549701
2.01258056640625,0.3916142493251711,0.0086688249502331,7.371675599950551,0.3873164653778076,0.344034194946289,-0.0327048748731613
2.0226064453125,0.5287024603743106,0.2449950618048198,7.269539167556166,0.2301822304725647,0.4791643023490906,0.0365953706204891
2.032632568359375,0.5230117013867944,0.5001846602898091,6.83101272573471,0.1024934351444244,0.6698545217514038,0.1183317974209785
2.042658447265625,0.3586385199837386,0.7179951981741934,6.195871824923158,0.0237600076943635,0.7975331544876099,0.1705662459135055
2.0526845703125,0.0780723968483507,0.8409632600646465,5.346625232094526,-0.014525419101119,0.8378388285636902,0.2017905116081237
2.06271044921875,-0.0993944402098655,0.9143051212597638,4.513838775679469,-0.024295225739479,0.9101377725601196,0.2413565665483474
2.072736328125,-0.1815276567563414,1.0252871964760124,3.612699498528242,-0.0689196214079856,1.0094327926635742,0.2577578723430633
2.082762451171875,-0.2121968627210706,0.9272020852990448,3.1458839508116245,-0.2114450633525848,0.9502312541007996,0.255015105009079
2.092788330078125,0.2662577213956043,0.5319171846371143,3.2701521355152128,-0.4208217561244964,0.5470179319381714,0.3016105890274048
2.102814453125,1.0872122491870075,-0.0670183937946334,3.2571050224155185,-0.6494717001914978,-0.0782515630125999,0.407351940870285
2.11284033203125,1.644686046015471,-0.7287848146706819,2.1196341929137708,-0.8602659106254578,-0.5328893065452576,0.4794396460056305
2.122866455078125,1.3391023860014974,-1.2937109002664684,-0.5093009367465973,-0.9548286199569702,-0.6450097560882568,0.5069364905357361
2.132892333984375,0.3047062195923179,-1.1636901433855291,-4.163568124938011,-0.9338793754577636,-0.4348309934139251,0.5207363963127136
2.14291845703125,-1.090567624029517,0.0107608287934213,-7.948221688452363,-0.795775830745697,-0.0047818874008953,0.4938983917236328
2.1529443359375,-2.5216014208838344,1.3353373343795538,-10.81671785390377,-0.5635345578193665,0.4270623624324798,0.42613086104393
2.16297021484375,-3.25452903444767,2.052854028321802,-12.470490438824893,-0.2403935194015503,0.7623412609100342,0.3494437932968139
2.172996337890625,-2.8106863660395143,1.6949258485645056,-12.777786455714702,0.1011510491371154,0.9014241099357604,0.3522567451000213
2.1830224609375,-1.84431356921643,0.8759651614714413,-11.578352214252948,0.3351171910762787,0.7815752029418945,0.4041593670845032
2.193048583984375,-1.5208482155531644,0.4111437832467258,-9.168978119406104,0.3707882463932037,0.3753115534782409,0.3244097232818603
2.203074462890625,-2.2869424779206518,0.1824694676510989,-6.63378861041367,0.2263418287038803,-0.2182868123054504,0.0343424715101718
2.2131005859375,-3.0874437445417047,-0.1109870436523109,-5.296048891067505,0.0077658398076891,-0.6059236526489258,-0.3096551299095154
2.22312646484375,-3.0473931814432142,-0.3880301072280854,-5.735656113862991,-0.2569936513900757,-0.6875671148300171,-0.5480626821517944
2.23315234375,-2.279392939323932,-0.3523086593750864,-6.732036218675971,-0.5364358425140381,-0.6007635593414307,-0.638755202293396
2.243178466796875,-1.5407532317236066,0.1957699709899723,-7.415604758048057,-0.7420449256896973,-0.301645815372467,-0.6062268018722534
2.253204345703125,-1.0665001544173809,1.0938266988907008,-7.863992084148526,-0.8074113726615906,0.1063489839434623,-0.4934187829494476
2.26323046875,-0.8201198670655488,1.8871100700221957,-7.759135871401429,-0.7504551410675049,0.3782950341701507,-0.3699003159999847
2.27325634765625,-0.7151134321928024,2.26715758099854,-6.651081105998158,-0.6045951247215271,0.4241334497928619,-0.2841622531414032
2.283282470703125,-0.6501471851550042,2.247611607398837,-4.709938855406642,-0.4142802953720093,0.2871303260326385,-0.2327877730131149
2.29330859375,-0.5709667539995164,2.0126219711765647,-2.463788406601548,-0.2329733669757843,0.0055086053907871,-0.2077825665473938
2.30333447265625,-0.43504411613103,1.6522896528869866,-0.1347293729633092,-0.1070290058851242,-0.3966281712055206,-0.2149517983198166
2.313360595703125,-0.334812202183716,1.1022707021091134,1.9208570029318333,-0.0982822105288505,-0.9756982922554016,-0.2813263535499573
2.323386474609375,-0.0290462078727781,0.3283586786627769,3.1633664160102604,-0.2251200526952743,-1.5327866077423096,-0.4453930258750915
2.33341259765625,0.4963436938874423,-0.703221042086184,3.075100688058137,-0.3532485961914062,-1.8216065168380735,-0.5915689468383789
2.3434384765625,0.8614243757478892,-1.2080366501122712,1.893368692025542,-0.3822834193706512,-1.6971032619476318,-0.6599264144897461
2.353464599609375,0.817475928428024,-0.8677681918166578,0.1112117192536592,-0.3331140577793121,-1.171829342842102,-0.6870095133781433
2.363490478515625,0.2275618243090808,-0.2529538935884833,-1.328604226732254,-0.2801176905632019,-0.4327153265476227,-0.7075954675674438
2.3735166015625,-0.2043013602308928,0.191478265145421,-1.5969284156709909,-0.2360941469669342,0.2367859333753585,-0.7200528383255005
2.38354248046875,-0.2425168168567121,0.3179780082933604,-0.9683563718557358,-0.1895013451576233,0.647335946559906,-0.7073473930358887
2.393568359375,0.1481687002509832,0.2579308052182197,0.3784025202482938,-0.1081887483596801,0.8319364190101624,-0.6630172729492188
2.403594482421875,0.8317226996410637,0.1208982698790729,1.9618103600889445,0.011110215447843,0.8763899207115173,-0.5685392618179321
2.413620361328125,1.4587567932993173,0.0469474830053746,3.292821647962928,0.1533939987421035,0.8465285897254944,-0.437448650598526
2.423646484375,1.9037908634491263,0.0067165949039161,4.431481394988298,0.2958640456199646,0.8053441643714905,-0.274265319108963
2.43367236328125,2.103331292888522,-0.1371117380551993,5.271024924448132,0.4430592954158783,0.6892309188842773,-0.0719243660569191
2.443698486328125,2.155254080088437,-0.2618671948190778,6.012609014937281,0.5836281180381775,0.4772097468376159,0.1417314559221267
2.453724365234375,2.158159592271596,-0.447281922141835,6.454626806005835,0.7256420254707336,0.2373380661010742,0.3451472520828247
2.463750244140625,2.1011714845061302,-0.6220432265684008,6.634166211554407,0.8680060505867004,0.0617537312209606,0.5216282606124878
2.4737763671875,1.8476535272940997,-0.6835394594080746,6.609583558961749,0.9995650053024292,-0.0301589649170637,0.655044674873352
2.48380224609375,1.4724077175110577,-0.7220434506516903,6.49594665838778,1.102436900138855,-0.0880387723445892,0.7404863238334656
2.493828369140625,1.0779057108551262,-0.7322543174121529,6.35478462202847,1.1485830545425415,-0.1321693807840347,0.7628962397575378
2.503854248046875,0.544081012096256,-0.6708084995854645,6.231206173154711,1.1352806091308594,-0.0955186933279037,0.7243994474411011
2.513880615234375,-0.0839284294001758,-0.4631573905352503,6.106255851405859,1.0510525703430176,0.0449747517704963,0.6219412684440613
2.523906494140625,-0.630050811130926,-0.2089496609607711,6.123519120895862,0.9442137479782104,0.2168905884027481,0.4873185157775879
2.533932373046875,-1.0658687977112828,0.0290560351470485,6.317277605932951,0.83052659034729,0.3350135087966919,0.3864137530326843
2.54395849609375,-1.151288634712994,0.2281704211940989,6.60452744461596,0.6945328116416931,0.4211404025554657,0.3390923142433166
2.553984375,-0.8932426786825061,0.4178565056931227,6.647945730581879,0.5491011738777161,0.4873678684234619,0.3185164928436279
2.564010498046875,-0.6211823719553649,0.5374461771916598,6.280102598270774,0.400046169757843,0.5477278828620911,0.3208858966827392
2.574036376953125,-0.3449944273715838,0.580644975188002,5.752869698992371,0.2408816814422607,0.6301686763763428,0.3263134956359863
2.5840625,-0.1837177506791427,0.4838236003365367,5.1915013058781625,0.0566820055246353,0.7036921381950378,0.2894153892993927
2.59408837890625,-0.2334002116063609,0.2121743403620086,4.52888846077323,-0.1620132774114608,0.7432066798210144,0.1828477531671524
2.6041142578125,-0.3038303866058587,-0.0906303564579226,3.5476211694180964,-0.4224025309085846,0.7211277484893799,0.0395909883081913
2.614140625,-0.102463143598102,-0.3289079100433736,2.189630689203739,-0.7075958251953125,0.6791456341743469,-0.1009294092655181
2.62416650390625,0.3651165934240445,-0.3196961007902398,0.345676893210411,-0.9450350403785706,0.6877034306526184,-0.2031039893627166
2.63419287109375,0.8901127100937068,-0.119549449086003,-2.4118659116625785,-1.065160632133484,0.7856543064117432,-0.2164119631052017
2.64421875,1.2194766933415084,0.3358491805486381,-5.567887810128927,-1.038304567337036,1.0372018814086914,-0.1419265419244766
2.654244873046875,1.4308574173741042,0.893779854299128,-8.485489075011014,-0.8710222840309143,1.3446087837219238,0.0153490155935287
2.664270751953125,1.4953415799833834,1.4201523373559115,-10.368049372774362,-0.640085756778717,1.4473756551742554,0.1547013223171234
2.674296875,1.324030927467346,1.6553654070705175,-10.58737484526634,-0.3929350674152374,1.2081599235534668,0.2219956517219543
2.68432275390625,1.0523856312818824,1.474341315922141,-9.977550172019004,-0.1409827470779419,0.7398717999458313,0.2218105494976043
2.6943486328125,0.8957223666690289,0.8572101190537214,-9.381487482142449,0.1141977682709693,0.2332113534212112,0.1593144536018371
2.704374755859375,0.8960639466483146,0.0258349907413125,-9.534781854844091,0.3269486427307129,-0.131592720746994,0.0573534779250621
2.714400634765625,0.5003456230051815,-0.4769647474177181,-9.931431394922733,0.4263476431369781,-0.3703123033046722,-0.0982781052589416
2.7244267578125,-0.169375702398084,-0.569529779998958,-9.982552510350942,0.4121982753276825,-0.3837285041809082,-0.2545161843299866
2.73445263671875,-0.7573831326454877,-0.4319333271667361,-9.97390275542736,0.3299823105335235,-0.2249262481927871,-0.3420542776584625
2.744478759765625,-1.147823223624751,0.0082193276170641,-9.816619605350494,0.2674872279167175,0.0499173104763031,-0.3427882492542267
2.754504638671875,-1.3917740918725727,0.8828386274375021,-9.459133031880857,0.2567318379878998,0.4247687757015228,-0.2960354089736938
2.764530517578125,-1.6355444159217178,1.769314442333579,-8.580477389216423,0.2868663072586059,0.7271962761878967,-0.2476308643817901
2.774556640625,-1.680032084684819,2.169832348278165,-7.10065676510036,0.3174396157264709,0.7200158834457397,-0.2380523383617401
2.78458251953125,-1.5489944058462977,1.965325236342102,-5.187474534580111,0.2991617918014526,0.4291339516639709,-0.2970298826694488
2.794608642578125,-1.3701923746615647,1.4058283361881971,-3.163973149731755,0.2537577152252197,0.0312950164079666,-0.3717870116233825
2.804634521484375,-1.050959324805811,0.9049509443938732,-1.6777677930146455,0.2296643704175949,-0.3479537665843963,-0.4260760843753814
2.81466064453125,-0.8162156261686235,0.6282377703595906,-0.8675976575553417,0.2127131223678589,-0.6624755859375,-0.4665174484252929
2.8246865234375,-0.8003289057288319,0.4486545622019097,-0.2703478037208318,0.1884184330701828,-0.8666071891784668,-0.4956396520137787
2.83471240234375,-0.8949098812423646,0.4655669358950108,0.0836456669360399,0.1603514999151229,-0.9538614153862,-0.500830352306366
2.844738525390625,-1.06937790181078,0.5497108346767723,0.2984703208774328,0.147364854812622,-0.9128931760787964,-0.4849765598773956
2.8547646484375,-1.311352939940989,0.6760846864227205,0.6152993052661418,0.1366217285394668,-0.7859919667243958,-0.4667026996612549
2.864790771484375,-1.554240928197652,0.8896407086677849,1.3250538407742976,0.1204765886068344,-0.6309709548950195,-0.4549880027770996
2.874816650390625,-1.6272329530417915,1.1642214737832546,2.430427988791465,0.09904395788908,-0.4887579083442688,-0.4385184645652771
2.8848427734375,-1.4363283961310982,1.3819739978700876,3.650765317550301,0.064117930829525,-0.3938899636268616,-0.4299151301383972
2.89486865234375,-1.1970770108111202,1.2632666621640325,4.827800095677375,-0.0058883419260382,-0.3712762296199798,-0.4561130702495575
2.904894775390625,-0.9022118017535656,0.8920955544739961,5.911161733850836,-0.0947508364915847,-0.3872365355491638,-0.520672619342804
2.914920654296875,-0.5270828598158434,0.4851844768935814,6.595223609697818,-0.1811926662921905,-0.4093031585216522,-0.5952118635177612
2.924946533203125,-0.073833590234816,0.1289818788198754,6.9097361338377,-0.252246618270874,-0.4354119896888733,-0.6671313643455505
2.93497265625,0.3926746450982987,-0.1517305209184065,6.934467839512228,-0.3056504428386688,-0.4367809593677521,-0.7155352830886841
2.94499853515625,0.8347147941291332,-0.2394369344873353,6.89962741227746,-0.3572955131530761,-0.4031958281993866,-0.735797643661499
2.955024658203125,1.1598490308526903,-0.1430187336092814,6.888756474173069,-0.409084290266037,-0.3532246053218841,-0.7134351134300232
2.96505078125,1.537219796900451,0.0310743526995182,6.82411302934885,-0.4415309131145477,-0.3041665256023407,-0.6483549475669861
2.975076904296875,1.855024348323047,0.1263669836137443,6.666335373753308,-0.4394937753677368,-0.2710439562797546,-0.5510250329971313
2.985102783203125,2.077278275482356,0.1099528052337467,6.419901529583335,-0.400432139635086,-0.2633625864982605,-0.4333197176456451
2.995128662109375,2.227448524814099,0.0554602406110614,6.164948863393068,-0.3267365097999573,-0.2462513297796249,-0.3048901557922363
3.00515478515625,2.238901208329201,-0.0117938981682062,5.913347845718264,-0.2252224087715149,-0.2302015125751495,-0.1752535700798034
3.0151806640625,2.1839641878746447,0.0357553501226007,5.731116132345795,-0.106456845998764,-0.2275618463754654,-0.0495588593184948
3.025206787109375,2.10511189269498,0.1055153342429548,5.726521790292859,0.0116524789482355,-0.2279687821865081,0.0514913275837898
3.035232666015625,1.830864889578521,0.0556025716912001,5.813896706885099,0.138650968670845,-0.2059102654457092,0.1223151460289955
3.0452587890625,1.4934085660941898,-0.0460970036558806,5.813617889943719,0.2812182605266571,-0.1537807583808899,0.1584041714668274
3.05528466796875,1.0957944187670945,-0.1320587655145675,5.80324554901123,0.4192814230918884,-0.1084473729133606,0.1579582095146179
3.065310546875,0.74126764495112,-0.2115358780616894,5.958984976777434,0.5204970240592957,-0.0995665341615676,0.1304235160350799
3.075336669921875,0.5223162664685398,-0.2278973033411428,6.249897429621219,0.577296793460846,-0.0966106653213501,0.0877193510532379
3.085362548828125,0.4193989128295332,-0.0701811686744913,6.279247442746162,0.5974454283714294,-0.0580779276788234,0.056690864264965
3.095388671875,0.3440492554759606,0.1610971554070711,6.080075115966797,0.5742993950843811,0.0164471175521612,0.0628876760601997
3.10541455078125,0.4079099524246528,0.3817895323380827,5.940377306941151,0.5356904864311218,0.1229911372065544,0.1131425872445106
3.115440673828125,0.5603156326582655,0.5901316193271428,5.668690948092937,0.4863940179347992,0.2157696634531021,0.1930695623159408
3.125466552734375,0.6350457698740065,0.6669794428166002,5.2562932192623615,0.4080533981323242,0.2763144969940185,0.28717902302742
3.135492431640625,0.6055331500658765,0.6571552372861653,4.673414420607686,0.2834081649780273,0.268393874168396,0.3447065651416778
3.1455185546875,0.4820088425321504,0.6271543590370565,3.7887551536142814,0.1150162443518638,0.1996195912361145,0.3717800080776214
3.15554443359375,0.4667755810324102,0.6246431799337268,2.8452526525080204,-0.0832881927490234,0.0776029676198959,0.3781594038009643
3.165570556640625,0.7561187387328594,0.5550429164197296,1.7205466120332478,-0.326677143573761,-0.0822154581546783,0.3906615972518921
3.175596435546875,1.1884919916868208,0.3169163704112172,0.1727045910924673,-0.6123745441436768,-0.2546780109405517,0.4009277522563934
3.185622802734375,1.486428351818025,-0.0549380068352445,-2.035543704819679,-0.8501918911933899,-0.2406386435031891,0.4586911797523498
3.195648681640625,1.5243331350594758,-0.046225708069466,-5.178512644967436,-0.958065629005432,0.0749567672610282,0.5917653441429138
3.2056748046875,1.2244679988227785,0.7345743578575551,-8.339431083303689,-0.9424378871917723,0.5375614166259766,0.7152686715126038
3.21570068359375,0.5346960747659206,1.669021591979265,-10.502920784556864,-0.8433095812797546,0.9581358432769777,0.7538042664527893
3.2257265625,-0.5017543938245624,2.1082973908633,-11.552988640415668,-0.6974684596061707,1.119493842124939,0.6975072026252747
3.235752685546875,-1.031042252871394,1.748848577409983,-11.496986767208575,-0.4944916665554046,0.9869288802146912,0.6311085224151611
3.245778564453125,-0.5920703323047608,0.7123174447987228,-11.120297480618952,-0.2497149407863617,0.6570830941200256,0.574181079864502
3.2558046875,0.0261868500860175,-0.5189039738070219,-10.805264731997251,-0.0001321183517575,0.3969124257564544,0.4886278510093689
3.26583056640625,-0.1158721853453665,-1.2747842276088892,-10.949296770834922,0.1998044401407241,0.3384858667850494,0.2983644306659698
3.275856689453125,-1.051160327270627,-1.5295722047567366,-10.913315941393376,0.2467942535877227,0.3169273436069488,-0.0006446941406466
3.2858828125,-1.9273519179090857,-1.556467664336413,-10.073796377331018,0.1194988787174224,0.3042522668838501,-0.3309017121791839
3.29590869140625,-2.3428850221559405,-1.391686851980537,-8.8069667619884,-0.1473263204097747,0.3154051899909973,-0.5459100008010864
3.305934814453125,-2.127882819690555,-0.8285092174872756,-7.743382421952486,-0.4402644336223602,0.3721494376659393,-0.5466551780700684
3.315960693359375,-1.46575921940729,0.0810632492274045,-6.959264427116513,-0.6383664608001709,0.4663360118865967,-0.3456525206565857
3.32598681640625,-0.7171476414341479,0.7998289933826774,-6.428309292444586,-0.6994212865829468,0.4498574435710907,-0.0286708511412143
3.3360126953125,-0.3327529680989682,1.1029383722376078,-5.876511276230215,-0.599039614200592,0.2812888324260711,0.3019484877586365
3.346038818359375,-0.4254820686681196,1.0913129625041038,-5.263126280152798,-0.3545135259628296,0.0075826942920684,0.5624556541442871
3.356064697265625,-0.8491605950456113,0.7780228928312659,-4.532091640728712,0.003849861677736,-0.2662115395069122,0.7178460359573364
3.366090576171875,-1.46217902283296,0.3180477855939418,-3.760139884504676,0.4196534752845764,-0.467360109090805,0.7505821585655212
3.37611669921875,-2.2773754620216784,-0.3443985438376665,-2.921771244043112,0.7735190987586975,-0.6643175482749939,0.5776354670524597
3.386142578125,-3.072097414588928,-1.2933470353901386,-1.8279624461352824,0.9688584804534912,-0.8998765349388123,0.1555138081312179
3.3961689453125,-3.709611766533553,-2.2988763690814373,-0.5406646277815104,0.9949451088905334,-1.129831314086914,-0.3885741233825683
3.406194580078125,-3.78938497595042,-2.778058938679099,0.3596726853370666,0.9198938012123108,-1.1909681558609009,-0.8373324871063232
3.416220703125,-3.117140963669121,-2.2880364106372,0.6366548125058412,0.8056815266609192,-1.0135419368743896,-1.0648539066314695
3.42624658203125,-1.961018332928419,-0.9980974301248788,0.8650865515172481,0.6664120554924011,-0.6914278268814087,-1.1145501136779783
3.4362724609375,-0.7904037971071899,0.4229572628982365,1.4792068761318922,0.5245155096054077,-0.3514766097068786,-1.028910994529724
3.446298583984375,0.3357472910767421,1.527853710401058,2.407246435168385,0.3967956602573395,-0.0410873107612133,-0.8576423525810242
3.456324462890625,1.2177410286553203,2.0351855390317737,3.2940479748874902,0.3053553998470306,0.2310416847467422,-0.6774793267250061
3.4663505859375,1.827939065259695,2.00669111982286,4.091827415329218,0.2521353363990783,0.4047673940658569,-0.490846037864685
3.47637646484375,2.1768628314368423,1.6901880063876509,5.03891128205359,0.2223580479621887,0.4949420094490051,-0.2967143356800079
3.486402587890625,2.4448886219508945,1.230513124205917,5.879408751237392,0.1944198906421661,0.51288241147995,-0.1059899106621742
3.496428466796875,2.620852068708837,0.7473455035600811,6.582886106172204,0.1651250123977661,0.4791466891765594,0.0794402658939361
3.506454833984375,2.660038123932481,0.426561790196225,7.246636430874466,0.1292679458856582,0.3446855545043945,0.2381436377763748
3.516480712890625,2.6080364262774585,0.112145675635524,7.736387448498606,0.0995760783553123,0.1214660927653312,0.3526087999343872
3.526506591796875,2.4883871335461736,-0.1145816340781748,7.881026221057772,0.0812476724386215,-0.1222112849354744,0.4374682903289795
3.53653271484375,2.292695926880836,-0.2006425819950178,7.654793453395366,0.0974955707788467,-0.2860206067562103,0.5124817490577698
3.54655859375,1.9939624250225725,-0.0955004284460097,7.151535303944349,0.1486003100872039,-0.3538821935653686,0.5984533429145813
3.556584716796875,1.686500403916091,0.103030148097407,6.445913922718167,0.2180979251861572,-0.3566448092460632,0.7041234374046326
3.566610595703125,1.316569943936914,0.1814959464438259,5.866853805568814,0.2963045835494995,-0.2733411490917206,0.8047102093696594
3.57663671875,0.8527565006457268,0.1630201410925947,5.4431835720956325,0.3861392736434936,-0.1147895008325576,0.8694844841957092
3.58666259765625,0.2715770167222246,0.1733040182903409,5.0674341967046255,0.5012738108634949,0.0263463202863931,0.8595998883247375
3.5966884765625,-0.4793797726701945,0.1053811316703446,5.026062906396389,0.6066341996192932,0.1001453697681427,0.7727341651916504
3.606714599609375,-1.0710991726454346,0.0624652422686107,5.285789362859726,0.665903627872467,0.1384805142879486,0.640053927898407
3.616739501953125,-1.3470954305820166,0.071063951991545,5.499087245625257,0.6512003540992737,0.1608166992664337,0.5069975852966309
3.626765625,-1.4565375098146498,0.0774808606959879,5.625421130686998,0.5710453391075134,0.2053580731153488,0.417436808347702
3.636791748046875,-1.5307272200107571,0.2555561485087499,5.524101275372505,0.4535766541957855,0.3432624340057373,0.3818078935146332
3.646817626953125,-1.55280402726233,0.5207319198865443,5.268480500662326,0.3163759112358093,0.5763923525810242,0.3446053862571716
3.65684375,-1.4858888381138442,0.6217068342208862,4.576906349489093,0.1453457027673721,0.7797532081604004,0.3251174092292785
3.66686962890625,-1.3026083463408051,0.8316451774254441,3.799425016188621,-0.0834169089794159,0.9301251173019408,0.3280913531780243
3.676895751953125,-0.9925618616990745,1.0031901501540097,3.1837165455996987,-0.3614267706871032,1.0171276330947876,0.3269917070865631
3.686921630859375,-0.5436400999283417,0.7511720030456781,2.426153380212188,-0.6461359858512878,0.9662058353424072,0.3514461815357208
3.69694775390625,0.2323737546354532,0.2947703703809529,1.2943372154712676,-0.85105299949646,0.6847068071365356,0.4393384158611297
3.7069736328125,1.4032967718839644,-0.1670645759114995,-0.4551537514954805,-0.8608856201171875,0.2620205283164978,0.5918405652046204
3.71699951171875,2.345275424423814,-0.5253470124665648,-2.878305027282238,-0.6592031717300415,-0.2045901119709015,0.7092819213867188
3.727025634765625,2.522119599539041,-0.7308719962082803,-5.693787395426631,-0.2808225750923157,-0.5407694578170776,0.7544110417366028
3.737051513671875,2.0668271702252325,-0.7295619365230203,-8.32579652570486,0.2129650861024856,-0.5674546360969543,0.7408939003944397
3.747077880859375,1.2004109044741835,-0.4948290880734101,-10.337568894314764,0.6457228660583496,-0.4327298104763031,0.6631362438201904
3.757103759765625,0.0422188013825099,-0.3434558926926925,-10.995120948898792,0.8525959849357605,-0.3572616577148437,0.4488960802555084
3.7671298828125,-1.062725092858076,-0.4868828417766839,-10.373250448548792,0.8490758538246155,-0.2213075459003448,0.1174273341894149
3.77715576171875,-1.5514078967288136,-0.9904994492765516,-9.650181673437356,0.6747826337814331,0.0633112415671348,-0.23638616502285
3.787181640625,-1.2390510893180966,-1.7385139381393788,-8.799763114219903,0.3306132853031158,0.2644616663455963,-0.5405662655830383
3.797207763671875,-0.5994189415019006,-2.1271618119396267,-7.817263066199422,-0.1297925561666488,0.4182293713092804,-0.7768751978874207
3.807233642578125,-0.2150158108656294,-1.7548077780753373,-7.202888474562764,-0.6154708862304688,0.6422789692878723,-0.8987882733345032
3.817259765625,0.1354084960675798,-0.7303029641486704,-6.858128696197271,-1.005231857299805,0.8701803088188171,-0.8753500580787659
3.82728564453125,0.6336261123344302,0.4791930909916758,-6.952709014123678,-1.225250005722046,1.00294291973114,-0.7490224838256836
3.837311767578125,1.0286493663854896,1.402195532643795,-7.036262911123037,-1.2555086612701416,1.0368064641952517,-0.5723454356193542
3.847337646484375,1.1779793655008075,1.9395688637949524,-6.829692875307798,-1.122574806213379,0.9372114539146424,-0.3611138761043548
3.85736376953125,0.9483576129872352,2.2502178443744776,-6.253911341437697,-0.8805121183395386,0.688187301158905,-0.1804389357566833
3.8673896484375,0.3250178438022733,2.198791900780797,-5.3261202042043205,-0.5620622634887695,0.3214157521724701,-0.0562080703675746
3.87741552734375,-0.383129110378772,1.7358889964632689,-4.358863318023086,-0.2125565707683563,-0.0247526168823242,0.0112264221534132
3.887441650390625,-1.094683534915745,0.9372687943484632,-3.364703227347136,0.0681829527020454,-0.311346024274826,-0.0476547367870807
3.897467529296875,-1.9329737033136187,-0.0217617134204134,-2.31159878027141,0.1302258968353271,-0.6394601464271545,-0.29489865899086
3.90749365234375,-2.750167599929869,-1.0015161525271832,-1.0554542250722647,-0.0131318066269159,-0.910420835018158,-0.5847858786582947
3.91751953125,-2.992109101116657,-1.3892149089090526,-0.2300847669154405,-0.2577275335788727,-0.9331455230712892,-0.779620349407196
3.927545654296875,-2.588310273805261,-1.0904051269441843,-0.1945247932344675,-0.5044097900390625,-0.6677058935165405,-0.8378690481185913
3.937571533203125,-1.9788957887940108,-0.4559684288792311,-0.3280196559667587,-0.7094369530677795,-0.2842306792736053,-0.794117271900177
3.947597412109375,-1.446774679082632,0.1504297039855271,-0.1289443598210811,-0.8323724865913391,0.0091479402035474,-0.6922963857650757
3.95762353515625,-0.9527512448363006,0.6144913498841226,0.5364952331423759,-0.8537219166755676,0.1455685198307037,-0.5571768283843994
3.967649658203125,-0.3232708905370905,0.8038880595151334,1.400709093478322,-0.7702187299728394,0.1683465242385864,-0.4049039483070373
3.97767578125,0.3111459703162312,0.7145414044585079,2.260525595638156,-0.5948627591133118,0.1265600025653839,-0.2270830422639846
3.9952216796875,0.7651416378177702,0.0754751468967646,4.259411010146141,-0.2321744859218597,-0.1375193893909454,0.0372489690780639
4.00524755859375,0.4463424128020182,-0.6119434189669788,5.58009847240448,-0.026973120868206,-0.2710460126399994,0.138412594795227
4.015273681640625,0.3826513002665713,-1.1314211740739644,6.276089855498075,0.1696066260337829,-0.3487906455993652,0.1668493598699569
4.025299560546875,0.618359934945777,-1.4953151303678751,6.640488400313258,0.3357378244400024,-0.3590283691883087,0.1032043397426605
4.03532568359375,0.9168328861717134,-1.5198761556506155,6.4813727741122245,0.4511772394180298,-0.3282853960990906,-0.034828782081604
4.0453515625,1.019855234555155,-1.238063831846416,6.291247677141428,0.5080196857452393,-0.259066641330719,-0.1799308508634567
4.055377685546875,0.9743821349512783,-0.8299004526499658,6.171470374116301,0.5096303224563599,-0.1114265546202659,-0.2622263133525848
4.06540380859375,1.0697161938544362,-0.456414053754881,6.181233058717846,0.483872503042221,0.0403589718043804,-0.2383718490600586
4.075429931640625,1.257014762162417,-0.1113084576264023,6.574805675569176,0.470915824174881,0.1268459558486938,-0.1261303126811981
4.085455810546875,1.3642157844699918,-0.1053301138691604,7.183501637047529,0.4693376421928406,0.1268502175807953,0.0146720772609114
4.095481689453125,1.3747265109598636,-0.4265311758622527,7.715904632440209,0.4646754562854767,0.0055381176061928,0.1455364674329757
4.1055078125,1.366707309024781,-0.8615253519043325,7.847448945626616,0.4480408430099487,-0.190582662820816,0.2351883202791214
4.11553369140625,1.1456289284508674,-1.1795179732449352,7.662351321429013,0.4184081852436065,-0.3657410740852356,0.263822078704834
4.125559814453125,0.6009014351446181,-1.2829229642704127,7.183207038015127,0.3741086423397064,-0.4006980061531067,0.2212690263986587
4.135585693359375,-0.0527831212231423,-1.0966608263380826,6.527829989382624,0.3301639854907989,-0.2917872965335846,0.1383880078792572
4.14561181640625,-0.5487606212798506,-0.6406707701489329,6.06035451645255,0.311221718788147,-0.0854112282395362,0.0954527929425239
4.155637451171875,-0.8909929269943386,-0.1310241252372041,5.846372158554196,0.3254629075527191,0.1752501875162124,0.0909296199679374
4.165663330078125,-1.1116459948282689,0.1355783544754609,5.7493035309433935,0.3567414581775665,0.4395793378353119,0.0774739980697631
4.175689697265625,-1.2344292747363448,0.2672858223343268,5.641638690516352,0.3875790238380432,0.6027725338935852,0.0493334420025348
4.185715576171875,-1.114093826371804,0.4482440086396411,5.663468245008588,0.416887104511261,0.6534138321876526,0.0440923422574996
4.19574169921875,-0.8513752023551613,0.7094880665916949,5.437138446712494,0.4637253284454345,0.6389384865760803,0.0726804286241531
4.205767578125,-0.7313555419415235,0.7472993263307959,5.181933851587772,0.5208357572555542,0.5414635539054871,0.1208460927009582
4.215793701171875,-0.5113491379806772,0.6378127503693103,4.983287594509124,0.5687866806983948,0.3894024789333343,0.1712128967046737
4.225819580078125,-0.1237610754316672,0.5898519621355459,4.457801246637105,0.5982418060302734,0.2021367102861404,0.2328738570213318
4.235845458984375,0.208373614638485,0.6017517318310216,3.4701334405899047,0.6029663681983948,0.0464343950152397,0.32614466547966
4.24587158203125,0.4578400679700076,0.5434730727983639,2.1251994258254765,0.5552949905395508,-0.0807208940386772,0.3983866274356842
4.2558974609375,0.731747317738086,0.2042077453969977,0.4438374077111482,0.4200072586536407,-0.2992879152297973,0.3866340517997741
4.265923583984375,1.028415557629615,-0.4274780647909268,-1.7192612483978271,0.2147870063781738,-0.540412425994873,0.3164032995700836
4.275949462890625,1.202811974266544,-0.8971589753434062,-4.203366466841102,-0.0205369479954242,-0.6670255661010742,0.2882170677185058
4.285975830078125,1.1873776737693698,-0.715988388396427,-6.993769338786602,-0.2119010537862777,-0.6667989492416382,0.3715814650058746
4.296001708984375,0.5600753210963682,0.1212099113778211,-9.988359150803088,-0.3152917921543121,-0.4442290067672729,0.515408456325531
4.30602783203125,-0.4329046564169228,1.1904814850036054,-12.838728707933424,-0.2910408079624176,0.0801130458712577,0.6413972973823547
4.3160537109375,-1.2805650029674172,1.82709092399776,-14.451487729942798,-0.1700943410396576,0.7637557983398438,0.677534818649292
4.32607958984375,-1.4496701082631944,1.348462042760104,-14.055118760371208,-0.077668011188507,1.2079797983169556,0.593630850315094
4.336105712890625,-0.7990006527997553,-0.0263237697720993,-11.771892088103291,-0.0907398015260696,1.3129668235778809,0.4752493798732757
4.346131591796875,-0.207776817789115,-0.9041144205044954,-9.833568402063849,-0.2267048209905624,1.0560277700424194,0.3550987243652344
4.35615771484375,0.3421868591375648,-1.4943625058181582,-8.30880915054679,-0.3847306072711944,0.6552088856697083,0.2145263403654098
4.36618359375,0.8837063501827418,-1.5593778526946902,-8.034324100890755,-0.4763553440570831,0.3040257692337036,0.1243924424052238
4.376209716796875,1.3321855923503636,-1.1635903362728657,-8.60140561095476,-0.4782735407352447,0.0347224920988082,0.1121818348765373
4.386235595703125,1.5189002963557838,-0.4811581074543297,-9.207905523693562,-0.4414673149585724,-0.0832824409008026,0.166925773024559
4.39626171875,1.3315803199335932,0.0998603406885638,-9.427559497487543,-0.3928978443145752,-0.1464875191450119,0.2313016355037689
4.406287841796875,0.930088746651262,0.2769656692243181,-9.069702337139844,-0.3345628976821899,-0.1615452915430069,0.2562533020973205
4.416313720703125,0.4125675324395298,0.2018748820026405,-8.428602235662936,-0.2792512476444244,-0.1888018250465393,0.2158389687538147
4.42633984375,-0.0879496477402746,0.1188076908079907,-7.523133989396691,-0.2279619574546814,-0.2202838510274887,0.1456686705350875
4.43636572265625,-0.4745181214505806,0.2865688341489061,-6.514581800752878,-0.1739744544029235,-0.2103931307792663,0.0988864600658416
4.446391845703125,-0.8848077355533838,0.6607787615455687,-5.382669774422049,-0.110829584300518,-0.1502046287059784,0.0797095745801925
4.456417724609375,-1.2824826731570065,0.8370890489798039,-3.993845764526725,-0.0442802719771862,-0.0529017895460128,0.0588866360485553
4.466443603515625,-1.6029368623055518,0.6898661782115697,-2.420071429949999,-0.010546276345849,-0.055876538157463,0.0235092062503099
4.4764697265625,-1.7946458674669266,0.3716115449339151,-0.8206985437363385,-0.01307781226933,-0.1287842094898224,-0.0349701009690761
4.48649560546875,-1.811538111687452,-0.1183839124379679,0.2888508441388607,-0.0566290169954299,-0.2295763343572616,-0.1206543743610382
4.496521728515625,-1.460006793360412,-0.550031298802793,1.1737480115413663,-0.1301202028989792,-0.3016570210456848,-0.1839717030525207
4.506547607421875,-1.0078560230731963,-0.7031869206208735,1.7737743443518876,-0.207142025232315,-0.2694365084171295,-0.2084496170282364
4.51657373046875,-0.7312199328631163,-0.549757486830093,2.1693103702306744,-0.2615516185760498,-0.1788906157016754,-0.2045668363571167
4.526599609375,-0.5555434498203918,-0.1883676223115995,2.627750888311863,-0.2769156396389007,-0.0879646986722946,-0.1880200803279876
4.53662548828125,-0.4064042240368202,0.256178993114829,3.236808084318042,-0.2475190162658691,-0.0465934798121452,-0.1534599363803863
4.546651611328125,-0.1803381181782111,0.6278520589776336,4.04178474278748,-0.1811559647321701,-0.0340633057057857,-0.0901496708393096
4.556677490234375,0.2104705869177356,0.7875987496238201,4.849173723095655,-0.0888921469449997,-0.030789902433753,0.011798926629126
4.56670361328125,0.6151361505936831,0.7350361301504075,5.5758197721719736,0.0158907230943441,-0.0665638744831085,0.1426173895597458
4.5767294921875,0.7177071019478142,0.1351193221289664,6.199613934060931,0.1313172131776809,-0.1653485149145126,0.2690528929233551
4.586755615234375,0.664830301958695,-0.1843196620950475,6.739070355096459,0.2573364078998565,-0.2559737265110016,0.3740395009517669
4.596781494140625,0.6549672987878322,-0.2687727364238351,7.165224806600809,0.3842895030975342,-0.29166179895401,0.4591301679611206
4.606807861328125,0.5841894063292071,-0.530531100573577,7.519751361221075,0.5023235082626343,-0.2890710830688476,0.5274072289466858
4.61683447265625,0.4173336143301799,-0.9754642310995608,7.750739214456081,0.6090016961097717,-0.2778683006763458,0.5721945762634277
4.626860595703125,0.2304970375107601,-1.3662068121567368,7.821293344628811,0.688539445400238,-0.2716647386550903,0.5792274475097656
4.636886474609375,0.0186076698362827,-1.4669883228108287,7.755904634395241,0.741192102432251,-0.2760524749755859,0.5343380570411682
4.646912353515625,-0.2475875077171251,-1.3242737963125109,7.681159482273459,0.7680383920669556,-0.2781571447849273,0.4258991777896881
4.6569384765625,-0.5654940216768533,-1.0149021421924234,7.664732079085708,0.7651271224021912,-0.2847219109535217,0.2736387252807617
4.66696435546875,-0.8831401676673442,-0.5900120115354657,7.711742836585641,0.746322512626648,-0.3319496214389801,0.1096412539482116
4.676990478515625,-1.1223796433538198,-0.1174867900683078,7.679204841074347,0.7249993085861206,-0.3934827446937561,-0.0364411175251007
4.687016357421875,-1.186000174871087,0.3178564642729237,7.43943396192491,0.7108611464500427,-0.3949749171733856,-0.1588865965604782
4.69704248046875,-1.183484392657876,0.6745916713859885,7.057877361559868,0.7065089344978333,-0.30261892080307,-0.258175253868103
4.707068603515625,-1.191827419719845,0.9749188721764832,6.669358520966768,0.7035203576087952,-0.1670334041118621,-0.3408997058868408
4.717094482421875,-1.0987138864103705,1.5110919606924056,6.435140015247463,0.6888206005096436,-0.0371034443378448,-0.3809395432472229
4.72712060546875,-0.9320687414873392,2.27505651755482,6.365354531359672,0.6680306792259216,0.0662213414907455,-0.3615266978740692
4.737146484375,-0.7692355560678988,2.931084431311488,6.455596527820825,0.6398549675941467,0.146053060889244,-0.2590376138687134
4.747172607421875,-0.51030762957111,3.2546541221320626,6.398730146738886,0.6037693619728088,0.2235883325338363,-0.0666878893971443
4.7571982421875,-0.1732498952166177,3.159518216149509,5.965569031342864,0.5732712745666504,0.2378227859735489,0.1801563799381256
4.767224365234375,0.1150323004551231,2.653974586109817,5.338718989014625,0.5697218179702759,0.1507986783981323,0.4091922342777252
4.777250244140625,0.1415265770890749,1.9538430344715716,4.808782091474533,0.57120281457901,0.0125444438308477,0.5515037178993225
4.787276123046875,-0.0539916019637603,1.1400415567725897,4.44020713775754,0.5338873863220215,-0.2724135220050812,0.5790207982063293
4.79730224609375,-0.1163637134556658,0.2018422035757452,3.815850665810704,0.371934175491333,-0.8668355345726013,0.4821701049804687
4.807328369140625,0.079287581324391,-0.5622971983969212,2.26501297018528,0.0675995722413063,-1.6283400058746338,0.2940579950809479
4.8173544921875,0.4511429814841598,-0.7421578717891126,-0.6602882015496492,-0.1650072038173675,-2.208240032196045,0.1987136751413345
4.82738037109375,1.0252546093806625,-0.2189214217357337,-5.430372021317481,-0.1857407093048095,-2.2277653217315674,0.3019633889198303
4.837406494140625,1.0577589218180623,0.5474757691010832,-10.384484959268567,-0.0438041910529136,-1.6675653457641602,0.5436325073242188
4.847432373046875,0.272958936067298,0.9294827435821296,-13.546241017472743,0.1286876946687698,-0.8662355542182922,0.7739493250846863
4.857458251953125,-1.0834145374044777,0.5476915307436138,-14.742524685949084,0.2072660475969314,-0.1041993573307991,0.8370333313941956
4.867484375,-2.4037188455641267,-0.3938922041945159,-14.157365667402743,0.2289575040340423,0.5851537585258484,0.6884273290634155
4.87751025390625,-2.975007744190097,-2.001810362043977,-12.591117052155733,0.1821819841861724,1.0100376605987549,0.3708516061306
4.887536376953125,-2.850364880955219,-4.084707938712835,-10.342195969593524,0.0289676655083894,1.068673849105835,-0.0541361682116985
4.897562255859375,-2.558753924453258,-5.723368294698,-8.192491632586718,-0.2820018231868744,0.8120226860046387,-0.5901951789855957
4.90758837890625,-2.119375103586167,-6.086580260077119,-6.903662951403856,-0.7311689853668213,0.5795090198516846,-1.1330842971801758
4.917614501953125,-1.3931151312179864,-5.069243876475095,-6.77360799999237,-1.243713617324829,0.4646130800247192,-1.4997127056121826
4.927640625,-0.1798670666003599,-3.2175323059618472,-7.50849522319138,-1.6869046688079834,0.3764762878417969,-1.574163794517517
4.93766650390625,1.342089731249213,-1.127124645923823,-9.48728360608816,-1.857454776763916,0.466048926115036,-1.3688812255859375
4.9476923828125,2.047787684842944,1.0201378508888184,-12.140098793029784,-1.685694456100464,0.7447553277015686,-1.0291305780410769
4.957718505859375,1.5697873107671736,2.789163977800309,-13.46480308971405,-1.2636597156524658,1.0293508768081665,-0.6892886757850647
4.967744384765625,0.7941117117144167,3.664526424138248,-12.672612263059616,-0.7308293581008911,1.236885666847229,-0.4066529870033264
4.9777705078125,0.2557815182298422,3.440067388150096,-10.283294867813586,-0.1810233145952224,1.277541160583496,-0.1851207613945007
4.98779638671875,-0.155604311878141,2.4473323618412017,-6.826887170237303,0.3127938508987427,1.1402537822723389,-0.0335203148424625
4.997822509765625,-0.6264310131985694,1.2644250384189188,-2.954111086633801,0.6857677102088928,0.7891765832901001,0.0022245573345571
5.007848388671875,-1.1717471931129693,0.1343342178995721,0.7901789023101329,0.8310242295265198,0.2952509820461273,-0.1186187788844108
5.017874267578125,-1.5951821565255522,-0.95263806678541,3.786586577403545,0.6941438913345337,-0.1945838034152984,-0.3807925283908844
5.027900634765625,-1.4792982076771557,-1.586705712342262,5.333872718027234,0.3764167726039886,-0.5180657505989075,-0.6338695287704468
5.037926513671875,-0.85407247861512,-1.3950342627122998,5.437237815433741,-0.0172161180526018,-0.5079691410064697,-0.7370417714118958
5.04795263671875,-0.115997784486413,-0.5517546519966796,4.731060553890466,-0.3805402815341949,-0.1748561412096023,-0.6721408367156982
5.057978515625,0.4621990668971091,0.4634966324269771,3.9896430521398782,-0.6492034792900085,0.2913090288639068,-0.5015766620635986
5.068004638671875,0.839168850928545,1.179989901605621,3.7860394649147984,-0.8096898198127747,0.6095376014709473,-0.2889141738414764
5.078030517578125,1.139711740296334,1.528842575307935,4.126207823836803,-0.8575479388237,0.6903178691864014,-0.0605546161532402
5.088056396484375,1.29415089911893,1.5108628281116483,4.57957761452496,-0.8014114499092102,0.6154555678367615,0.1674388796091079
5.098082275390625,1.1587227302365004,1.2147802060883492,5.148940513524413,-0.6546309590339661,0.4612839221954345,0.3826592266559601
5.108108154296875,0.8366967617265879,0.7447421891938895,5.760419968241453,-0.4857971668243408,0.25984987616539,0.5592018365859985
5.11813427734375,0.4857170859329402,0.1514053623509593,6.594910890486836,-0.3297658264636993,-0.0410476326942443,0.7171580195426941
5.12816015625,0.3257257728759199,-0.5168271675329655,7.203927169960737,-0.1623241156339645,-0.2969462275505066,0.8177906274795532
5.1381865234375,0.1837600919835269,-1.090738085225597,7.340405432417988,0.0171051677316427,-0.4073434174060821,0.8438906669616699
5.14821240234375,-0.0505257798835635,-1.4194494497835637,7.283750063738227,0.1969489753246307,-0.3866322636604309,0.8042691946029663
5.15823828125,-0.3770017866048961,-1.502440306072682,7.141277529302239,0.3569404482841491,-0.2698560357093811,0.7272810935974121
5.168264404296875,-0.6700017132472247,-1.384858028873801,7.060910445645451,0.4841636717319488,-0.1168968603014946,0.6382148861885071
5.178290283203125,-0.8708394159555435,-1.1803775126837193,7.106410798582434,0.5800120830535889,-0.0115692634135484,0.5529631972312927
5.18831640625,-0.9625883829135448,-0.9876767200060188,7.366360542407631,0.6665211319923401,-0.0149781107902526,0.4772500693798065
5.19834228515625,-0.9078934275865554,-0.8267950339805334,7.494441563397645,0.7495216131210327,-0.0431760065257549,0.4016055762767792
5.208368408203125,-0.883071486345306,-0.7544725789610296,7.36254069185853,0.8232810497283936,-0.0595509856939315,0.3177341222763061
5.218394287109375,-0.8982599223226309,-0.6915556656684726,7.169479541435837,0.8835988640785217,-0.0702526122331619,0.219392329454422
5.228420166015625,-0.9921141179315746,-0.3594561930421739,6.970949019691347,0.9307600259780884,-0.0941206589341163,0.1110434904694557
5.2384462890625,-1.1703943171992897,0.1678824681656435,6.893398747020959,0.9552367329597472,-0.1539050340652465,-0.0008355098543688
5.248472412109375,-1.3527902812227606,0.8329720421150326,6.937229120919108,0.9574522376060486,-0.2386601269245147,-0.0890796184539794
5.25849853515625,-1.3773191578015684,1.5329711995452642,6.835127759838104,0.9547564387321472,-0.2423952370882034,-0.134666159749031
5.2685244140625,-1.278927172632515,2.0425449618838725,6.643229223453998,0.9427309632301332,-0.1152271628379821,-0.1120269000530242
5.278550537109375,-1.0475579188644886,2.223968719874322,6.368573493406176,0.9163303971290588,0.0756690800189971,-0.0249217841774225
5.288576416015625,-0.7635226583138108,2.097457578549534,6.127800159215926,0.8684057593345642,0.2082313895225525,0.0779193788766861
5.2986025390625,-0.3852375539001077,1.605115813779831,5.88418663316369,0.7896096110343933,0.1994829922914505,0.1314063370227813
5.30862841796875,0.0285337648386135,0.9926786930117756,5.62683333557248,0.6421298384666443,-0.0562864691019058,0.1393196582794189
5.318654296875,0.4227845366798341,0.3837773451544344,5.3176124880999325,0.3756201267242431,-0.5603963136672974,0.1351126730442047
5.328680419921875,0.6021092034991831,-0.1140561488993465,4.394785695275664,-0.0130455866456031,-1.1479743719100952,0.1087609678506851
5.338706298828125,0.3936906537404284,-0.187053945897147,2.3463375006973743,-0.4237453937530517,-1.6462337970733645,0.1080219969153404
5.348732421875,0.0575855256693437,0.6378082203246652,-1.117908635419607,-0.6742713451385498,-1.6487408876419067,0.2181612849235534
5.358758544921875,-0.4365708873068913,1.9016512210719283,-5.529830174413323,-0.6630372405052185,-1.0538424253463743,0.3960694372653961
5.36878466796875,-1.069168131517619,2.604247847649455,-8.61067437455952,-0.4725074768066406,-0.2621417343616485,0.5277648568153381
5.378810546875,-1.310913525610417,2.448772916038334,-9.340344155371188,-0.2834487855434418,0.176006406545639,0.5687122941017151
5.38883642578125,-1.0196866730552163,1.5837047769606112,-8.55888456608951,-0.1891571581363678,0.1266569644212722,0.5610562562942505
5.398862548828125,-0.3396662546187639,0.112779553092271,-7.842316843435168,-0.152547225356102,-0.1497143805027008,0.5387710332870483
5.408888427734375,0.2113963599931448,-1.678838929377496,-7.543905559268594,-0.1572383791208267,-0.4213402867317199,0.4648331999778747
5.418915283203125,0.1832802360447123,-3.498859184336662,-7.6367516007483,-0.2128955870866775,-0.6308759450912476,0.2950219810009002
5.4289404296875,-0.4819301147401332,-4.785416413456201,-8.225466265949606,-0.3258383870124817,-0.7814606428146362,0.016413802281022
5.43896728515625,-1.429284322838485,-5.252032054686546,-9.22461583547592,-0.512974202632904,-0.8906057476997375,-0.3566236197948456
5.4489921875,-2.024592394955456,-4.949329210805892,-10.513788215529916,-0.7529053092002869,-0.8875614404678345,-0.7520247101783752
5.45901953125,-2.12205089866668,-4.173257159781456,-12.257851896750926,-0.9811968207359314,-0.6458569169044495,-1.0576066970825195
5.46904541015625,-1.9793296501666304,-2.8708190554410216,-14.17324128192663,-1.1411007642745972,-0.1810575127601623,-1.2158628702163696
5.479071533203125,-1.671080570335686,-1.116875200718641,-15.582988837385177,-1.1519477367401123,0.5247357487678528,-1.2058030366897583
5.489097412109375,-1.2020508537009358,0.6739481858506798,-15.932794793224334,-0.9692747592926024,1.326099872589111,-1.0443947315216064
5.499123291015625,-0.6674038787737488,1.6720305645368991,-14.462472065293788,-0.6454272270202637,1.958969235420227,-0.800510048866272
5.5091494140625,-0.4844442895181476,1.5493221764959395,-11.253618740350008,-0.2676743566989898,2.259835720062256,-0.588758647441864
5.51917529296875,-0.989231109841168,0.4201263868538663,-7.290349900394678,0.0993933603167533,2.18284010887146,-0.5325489044189453
5.529201416015625,-1.7006249369889497,-0.8666193140424787,-3.285193052780628,0.3696427047252655,1.7394105195999146,-0.6764118075370789
5.539227294921875,-2.08850840228796,-1.7230470505468547,0.2064554695248603,0.4434475302696228,1.130666732788086,-0.9465947151184082
5.54925341796875,-1.8181988847509023,-2.0197515307955443,2.228967843335867,0.4478534758090973,0.5242777466773987,-1.2305244207382202
5.559279541015625,-0.8220718779161572,-1.6039102373823522,2.8323271199613806,0.2368050515651703,-0.1510070115327835,-1.3298991918563845
5.569305419921875,0.2611393920011818,-0.5083341375410556,2.746262116923928,-0.0632937997579574,-0.3486082255840301,-1.1798832416534424
5.57933154296875,1.0572248880065978,0.5989459171626716,2.1020839231759307,-0.3395652770996094,-0.0795205906033515,-0.902392566204071
5.589357421875,1.2883975962892174,1.0691945811331272,1.2770377056241036,-0.5261884331703186,0.3800041377544403,-0.5812851190567017
5.599383544921875,1.1245412053018808,1.2042379154164344,0.7418611538648605,-0.5754573345184326,0.7439027428627014,-0.3211482167243957
5.609409423828125,0.6802260970763861,0.9756955556374044,0.7796160072416066,-0.4650517106056213,0.9661054611206056,-0.1632874757051468
5.61943505859375,0.2493167061299085,0.525062898295559,1.6700924360811709,-0.2598937749862671,0.9932106733322144,-0.0639486610889434
5.6294609375,0.1655048888467252,-0.0484828119470272,3.399078959679603,-0.0323405191302299,0.7468373775482178,-0.0219860300421714
5.63948681640625,0.2196558734901249,-0.555196937937662,5.4063347276479,0.1522639989852905,0.3060207068920135,-0.0145711814984679
5.649512939453125,0.2353922987390309,-0.9220758283264936,6.95102617560327,0.2632117867469787,-0.1568425148725509,-0.0513086877763271
5.6595390625,0.1210433774381875,-0.9558561520490796,7.789691753184795,0.2875695526599884,-0.4924162626266479,-0.0612034574151039
5.669565185546875,0.2527100018300116,-0.6612504707105458,7.909951871290803,0.3076748251914978,-0.5575345754623413,-0.0130404541268944
5.679591064453125,0.4497048384398222,-0.6339942880596965,7.475260477587581,0.4201599657535553,-0.4636212289333343,0.0343879163265228
