seconds_elapsed,ax,ay,az,gx,gy,gz
0.08786279296875,0.0004240706309676,0.0917652605056762,0.3882376855641603,0.3707255125045776,-0.5128077268600464,0.0522840954363346
0.0978427734375,-0.1157411793768405,0.1216181085862219,0.3860071500331163,0.397733211517334,-0.4901550412178039,0.1295719444751739
0.10782177734375,-0.3021288433849811,0.1978273419111967,0.41516894710958,0.4411027729511261,-0.450508564710617,0.2271951735019683
0.1178017578125,-0.3956646206945181,0.2614526957340538,0.4306546855330467,0.5310519933700562,-0.3404369056224823,0.2937312126159668
0.12778076171875,-0.3396174470409751,0.3238509919799864,0.6871306157678365,0.6083002090454102,-0.2351530939340591,0.3391128182411194
0.1377607421875,-0.3208683229073882,0.2339673074372112,0.6482341911405325,0.6516871452331543,-0.2244132608175277,0.3869283497333526
0.14773974609375,-0.2497381464123725,-0.0250076000064611,0.3025526217550039,0.6403748393058777,-0.2709264457225799,0.4404389858245849
0.15771875,-0.0885758168146014,-0.2265913718417286,0.0547141714841127,0.5732851028442383,-0.3204260170459747,0.487761378288269
0.16769873046875,0.0448418890282511,-0.2882438181564212,-0.1256856502860784,0.4793684780597687,-0.3327199518680572,0.531620442867279
0.177677734375,0.0717328185632824,-0.3056098173685371,-0.0401654216498136,0.3661430180072784,-0.2739964723587036,0.5613502264022827
0.18765771484375,0.0231494049191474,-0.2767415964111686,0.1939127988159656,0.2654544711112976,-0.1531909555196762,0.5636081099510193
0.19763671875,-0.0302937237158417,-0.1831504356525838,0.4474965147405862,0.1572286039590835,-0.0490931943058967,0.5588887333869934
0.20761669921875,-0.2299398054867982,-0.0658550125710666,0.4666507125437259,0.0534297712147235,-0.0429311729967594,0.5542572140693665
0.217595703125,-0.4771051788017153,-0.0315504457786679,0.297988674840331,-0.0292834490537643,-0.0682510659098625,0.5320761203765869
0.227575927734375,-0.4228264761254191,-0.0888435278400778,0.3894932385832071,-0.0626219660043716,-0.0995863527059555,0.4932464361190796
0.237554931640625,-0.2765928355902433,-0.1071859708689153,0.4959960494935512,-0.0229084808379411,-0.1340975761413574,0.4414954483509063
0.24753466796875,-0.1862342270120978,-0.0532059588782489,0.5162760364562273,0.0796067118644714,-0.1937792897224426,0.3677820563316345
0.257513916015625,-0.0939025647953152,0.0076683426707983,0.4807669161796569,0.2370515763759613,-0.2563448250293731,0.2674594819545746
0.267493896484375,0.0686404055058956,0.0502424328975379,0.5491022012591361,0.4232174456119537,-0.3047837316989898,0.1523523330688476
0.27747265625,0.1568047189101576,0.0795383777476847,0.6530109040230512,0.6049516201019287,-0.3191275596618652,0.0287476480007171
0.287452880859375,0.1989160139307379,0.1173070404540747,0.7860463325500487,0.7508702278137207,-0.3179256618022918,-0.0747371986508369
0.297431640625,0.1614317941889166,0.163196319643408,0.9028852440357208,0.8571458458900452,-0.3045401275157928,-0.1514534652233123
0.30741162109375,0.0500403344541788,0.2126943639144301,0.9933891063034532,0.9177359342575072,-0.2651674151420593,-0.2025286257266998
0.317390869140625,-0.0619336013436317,0.2906646155625582,1.091472463914752,0.9445505142211914,-0.2014736831188202,-0.2319074720144271
0.32737060546875,-0.2108978358864784,0.3506694408006965,1.17349900521636,0.9337580800056458,-0.1213841810822486,-0.2439585477113723
0.337349853515625,-0.2787140655279159,0.3553212121292948,1.2478180408805608,0.885090172290802,-0.0472887307405471,-0.2405315488576889
0.34732861328125,-0.2933025628507137,0.2611407802406698,1.3068886540085076,0.8200728297233582,0.027024382725358,-0.213769719004631
0.35730859375,-0.1859565791144967,0.0534480240058153,1.4239502683341505,0.736865222454071,0.0908226147294044,-0.1673548519611358
0.367287841796875,0.0768748576268553,-0.2378142286563292,1.3769576310127971,0.6471132636070251,0.1163104027509689,-0.1204898804426193
0.377267578125,0.2832923332288861,-0.5370394595542922,1.0996826583772896,0.5746736526489258,0.1376864463090896,-0.080963134765625
0.387246826171875,0.4549608592718839,-0.6929841641016304,0.9369844975143672,0.5546429753303528,0.1902687102556228,-0.0480888113379478
0.397226806640625,0.5188844653889536,-0.7687944612368941,0.9531430206328628,0.5805134773254395,0.2647251784801483,-0.0379736945033073
0.40720556640625,0.3581000291928649,-0.7155367721714079,1.0247329235941172,0.6183061003684998,0.3475769162178039,-0.032207153737545
0.41718603515625,0.1029100471153855,-0.4741462559308856,1.0997148070812224,0.6555577516555786,0.4031918048858642,-0.0190958566963672
0.427164794921875,-0.1637429937407374,-0.2109068959757685,1.1447042878866196,0.6603754162788391,0.4440343081951141,0.0222598388791084
0.437144775390625,-0.4412111508607864,0.0074434296074323,1.0981073718845844,0.6374861001968384,0.4815222918987274,0.073289468884468
0.4471240234375,-0.6663607994616031,0.156643683129549,1.0876064361363649,0.5883070826530457,0.5356992483139038,0.1319181621074676
0.457103759765625,-0.7402867441549896,0.2336427333916537,1.1242091968685388,0.482705146074295,0.7065063118934631,0.1931311339139938
0.4670830078125,-0.5859492921411991,0.2335275277804583,1.4573206230163571,0.2765346467494964,0.9023998975753784,0.2444766014814376
0.477062744140625,-0.3950052800029516,0.2043365046095102,1.4193231930553911,0.0236049424856901,0.7921616435050964,0.2811781466007232
0.487041748046875,-0.1736297431133687,-0.0194444311876781,0.2741360900878906,-0.20097117125988,0.597486674785614,0.284671425819397
0.49702197265625,0.0143937054030597,-0.3620070465687662,0.0043237084180116,-0.32853764295578,0.5032283067703247,0.2567636668682098
0.507000732421875,0.2699738558419048,-0.6103881523489951,0.3148924633681774,-0.3409386575222015,0.4976918399333954,0.1917684227228164
0.516980712890625,0.3581792319089174,-0.714275300868228,0.3606207798421382,-0.2636275291442871,0.5731757283210754,0.1333551555871963
0.526959716796875,0.3143687317550182,-0.9107407798416912,0.3382353450328111,-0.1457467079162597,0.6528623104095459,0.0338607914745807
0.536939697265625,0.3177291480988264,-0.5462308470739051,0.2602811677366495,-0.0269795302301645,0.7376536130905151,-0.0873671025037765
0.5469189453125,0.2564234693951904,-0.0153818579238839,0.3183288675576448,0.0224087908864021,0.8266119956970215,-0.1530835330486297
0.556898681640625,0.0115561438895761,0.2052054877300746,0.2891173861205577,-0.0314698293805122,0.8699671030044556,-0.1278222203254699
0.566877685546875,-0.3191273244589567,0.3315396467864513,-0.0444850384145975,-0.1451330035924911,0.8589800000190735,-0.0318836979568004
0.576856689453125,-0.6133231828875839,0.5763685399778187,-0.2878957353711128,-0.260562390089035,0.7894710302352905,0.0420528799295425
0.586836669921875,-0.5632904472179711,0.9592354922890662,-0.2496469609975814,-0.3519096076488495,0.6075158715248108,0.0506852529942989
0.59681591796875,-0.3367898223996162,1.1198645917929708,-0.3349094154804944,-0.3986611068248749,0.2952659726142883,0.0401176810264587
0.6067958984375,-0.2840200629815459,0.9274830211322754,-0.6144593473106622,-0.3997375667095184,-0.118043839931488,0.0036070733331143
0.616774658203125,-0.1924498866565525,0.7118219894319773,-0.997140567791462,-0.3574559092521667,-0.5392432808876038,-0.0595597624778747
0.626754638671875,-0.1395756439507007,0.5119403453394771,-1.3439485108584164,-0.283691942691803,-0.9085710048675536,-0.1400881707668304
0.63673388671875,-0.1291650168344378,0.3945383931435644,-1.791201864492893,-0.1788117438554763,-1.1540430784225464,-0.2353917956352234
0.6467138671875,-0.204605019352585,0.4270134429538622,-2.253207966101169,-0.0657176747918129,-1.2188929319381714,-0.3271454274654388
0.65669287109375,-0.3412413949809968,0.5596709415465593,-2.558183431088924,0.0435947515070438,-1.1271651983261108,-0.4023340940475464
0.6666728515625,-0.4742677634187042,0.7358057262834161,-2.851515804556012,0.1291133761405944,-0.930733859539032,-0.4574897587299347
0.676651611328125,-0.5220559350319206,0.8470653032667934,-3.1514322325885296,0.1750186532735824,-0.6903716921806335,-0.4799785912036896
0.6866318359375,-0.5093129194453359,0.8989015812270342,-3.427238886237144,0.1450375765562057,-0.4198506474494934,-0.4621457755565643
0.69661083984375,-0.4789157353550195,0.92937899094671,-3.49207463876307,0.0362000502645969,-0.1378735601902008,-0.4014971554279327
0.706590576171875,-0.3983940456584096,0.8417399435255676,-3.409983800053596,-0.1294043511152267,0.1297262012958526,-0.3023447394371032
0.71656982421875,-0.2665444659151136,0.6396040907654911,-3.176469058689475,-0.2797639667987823,0.3686055839061737,-0.2007668316364288
0.7265498046875,-0.0262478093259036,0.416799215192534,-2.6409330259680748,-0.3772593736648559,0.5387536287307739,-0.1088233292102813
0.73652880859375,0.2173814988173544,0.2580482393191196,-2.0120307272851465,-0.3921443521976471,0.6185118556022644,-0.0393374972045421
0.7465087890625,0.3998246629834175,0.1582312811145559,-1.3506734351992606,-0.3489481508731842,0.6044493317604065,0.0089208455756306
0.756487548828125,0.5581548378951847,0.0508329826692119,-0.7353554252326489,-0.2779417037963867,0.5006459951400757,0.0386644601821899
0.7664677734375,0.6693553051024675,-0.0085438833963125,-0.2433189270198345,-0.1933059096336364,0.3592212498188019,0.0621317028999328
0.77644677734375,0.6499839574173093,-0.0321655820023268,0.1691933681011199,-0.0948497727513313,0.1922724395990371,0.0841992050409317
0.7864267578125,0.5123008492149412,0.0514901679363101,0.4723053773045539,0.0157883279025554,0.0537153631448745,0.1137379258871078
0.796406005859375,0.3270703924179077,0.143663534318842,0.6748159085959196,0.1205509454011917,-0.0417391695082187,0.1502493023872375
0.8063857421875,0.1339591192431747,0.1688333391496911,0.8299328205496073,0.1861824244260788,-0.1441728621721267,0.1868200898170471
0.81636474609375,0.0610503887683153,0.1879458532355725,0.738227181276679,0.1992903053760528,-0.2742087543010711,0.2049523442983627
0.826344970703125,0.0859960294544696,0.1638925217466428,0.455969744053483,0.1912973523139953,-0.3751076757907867,0.2057446390390396
0.83632373046875,0.0810075735174119,0.0697414620829746,0.2875602198064327,0.1648169606924057,-0.3944576382637024,0.1841737329959869
0.8463037109375,0.0680032766461372,0.0139767221000045,0.2104851634323596,0.1011820510029792,-0.3179157078266144,0.1474199742078781
0.8562822265625,0.0442534216158091,0.1305903003972023,0.0375116922706365,0.0042662727646529,-0.1682579070329666,0.1121382862329483
0.866261474609375,0.0021700375154614,0.2078899227747693,-0.1827320641100406,-0.0975626185536384,0.0439733937382698,0.1028539687395095
0.876241455078125,-0.1423969849817454,0.163748071774654,-0.4791074585348367,-0.1713256239891052,0.3020814955234527,0.1098062992095947
0.88622021484375,-0.3116268857009708,0.2009738963086157,-0.548746227428317,-0.2051754742860794,0.5137317180633545,0.0964889004826545
0.89620068359375,-0.2483145433500409,0.2352442685704678,-0.571471269455552,-0.1896602511405944,0.604209840297699,0.0672432333230972
0.90617919921875,-0.0504435084275901,0.1206517843047156,-0.5832260046571492,-0.1524444371461868,0.602701723575592,0.0363625474274158
0.916159423828125,0.1345204063877463,-0.0341118937645107,-0.4186971212357282,-0.1331143528223037,0.522609531879425,0.0807604491710662
0.926138671875,0.1903093674965202,0.0451514299014583,-0.452127681672573,-0.0978932455182075,0.3526750802993774,0.0568058565258979
0.936118408203125,0.2183703637242317,0.3487300702359527,-0.531194788646698,-0.0385149531066417,0.106914222240448,0.0173517558723688
0.946097412109375,0.030118805540353,0.2302188050912693,-0.538011482924223,0.0637903735041618,-0.076814591884613,0.0100935781374573
0.956077392578125,-0.0429122361399233,0.053466290314868,-0.2413216157227754,0.1849061995744705,-0.254549115896225,-0.0047959247604012
0.966056396484375,0.0117426063723862,0.1713032729271799,-0.1439402689009905,0.2920446693897247,-0.4684347808361053,-0.0337969474494457
0.976036376953125,0.0801931883946061,0.3088350995579734,-0.351838922971487,0.3863348662853241,-0.63181471824646,-0.0572210140526294
0.986015380859375,0.1452406839750707,0.3166237441401928,-0.3778606684565544,0.435920774936676,-0.6997599601745605,-0.0752777755260467
0.995995361328125,0.2294280565723776,0.3813845317337662,-0.4121311868488788,0.4272307455539703,-0.7318334579467773,-0.0928434059023857
1.005974365234375,0.2417866028860211,0.4995412843523547,-0.6931184580057859,0.3536356091499328,-0.6792075037956238,-0.1071954444050788
1.015954345703125,0.2084291076853871,0.5940976003486663,-0.7813210575938224,0.2321725338697433,-0.5352751612663269,-0.117916852235794
1.025933349609375,0.1912827425733208,0.5938285010837018,-0.7220248190164565,0.124771773815155,-0.3441288769245147,-0.1256818324327469
1.035913330078125,0.1911938952460884,0.5825207059320062,-0.5383031593471765,0.0303602330386638,-0.2004508078098297,-0.122742161154747
1.045892333984375,0.2045749164752662,0.5923158314984291,-0.4921598323315381,-0.0297968462109565,-0.0881242603063583,-0.1090117022395134
1.0558720703125,0.1804604659162461,0.5347285157307982,-0.362422860828042,-0.0611767843365669,-0.0099779665470123,-0.0802982077002525
1.065851318359375,0.123409229786694,0.4365500271819532,-0.1881049893200397,-0.0629270076751709,0.0274945758283138,-0.0567862205207347
1.07583154296875,0.1271238663956523,0.3440270071115344,-0.0633183337002992,-0.0477794855833053,0.0444011203944683,-0.0389949716627597
1.085810302734375,0.1849940176926553,0.264186869938299,0.0836766465961933,-0.0338948294520378,0.0386742576956748,-0.0307972319424152
1.09579052734375,0.2448999126009643,0.2019380286330357,0.1495394040822982,-0.0074312514625489,0.0221402123570442,-0.0189762208610773
1.105769287109375,0.2353919334128499,0.1468603575987741,0.1335112293452024,0.0101322950795292,0.0593142099678516,-0.0106876632198691
1.11574951171875,0.1720665854498743,0.1132842146787792,0.3225964618742465,0.0218437109142541,0.1073690727353096,0.0042408187873661
1.125728515625,0.1244740825392305,0.1228069347782991,0.3947141881018877,0.0201976113021373,0.1282162964344024,0.0328040234744548
1.135708251953125,0.1001978655472397,0.096489311619196,0.4210170886158943,0.0212562102824449,0.1476017981767654,0.0576456822454929
1.1456875,0.1311276952095329,0.0727311819508671,0.5517249509781599,0.0145021677017211,0.1481839716434478,0.073897086083889
1.15566748046875,0.1592540117584168,0.0357827678524889,0.5972369943529368,-0.0056656296364963,0.1115902289748191,0.0904907956719398
1.165646484375,0.1599710739865899,-0.012984313529171,0.6436427716970443,-0.0457994677126407,0.0496134124696254,0.1091662123799324
1.17562646484375,0.1967335553251206,-0.0248008619206026,0.7120879468917847,-0.0835759788751602,-0.0309855714440345,0.1317390352487564
1.185605224609375,0.2085300838418304,-0.0321653628066182,0.7491501418292522,-0.1061097830533981,-0.097820796072483,0.1512892991304397
1.19558544921875,0.2328377188853919,-0.0977631492136046,0.783248226264119,-0.1170848682522773,-0.1693058162927627,0.1627714186906814
1.205564453125,0.2725841844707727,-0.2188589509587734,0.6665507690757513,-0.1027381494641304,-0.2272311747074127,0.1552882045507431
1.215544189453125,0.3104509737893939,-0.2858997392483055,0.5559913762509823,-0.0755324736237526,-0.2249317467212677,0.1288503855466842
1.2255234375,0.2537992583714425,-0.2460520052455365,0.5181523517221213,-0.0843986719846725,-0.0966952145099639,0.1232761219143867
1.23550341796875,0.0418083665512502,-0.2449120231638662,0.588107346957922,-0.1294339001178741,0.043354108929634,0.1318774223327636
1.245482177734375,-0.1090748533554375,-0.1693182365898042,0.3651747898846864,-0.1797948032617569,0.1104900017380714,0.1144337207078933
1.255462646484375,-0.0203249951481819,0.0546512257831171,0.216021754771471,-0.209810197353363,0.1468545198440551,0.068148523569107
1.26544140625,0.086120240356028,0.1008347386786714,0.3511521097511053,-0.2175413519144058,0.1407798528671264,0.0192550159990787
1.27542138671875,0.1302745855115354,-0.0790806971080601,0.3762134857714176,-0.2111916542053222,0.1129810959100723,-0.0145931802690029
1.285400390625,0.1027782374292612,-0.2426738705819472,0.3944780412584543,-0.1874663531780243,0.0856639891862869,-0.0396726988255977
1.29537939453125,0.0403350791282951,-0.279086661699973,0.4286012601345777,-0.1596747785806656,0.0679312869906425,-0.0535279475152492
1.305359619140625,0.0100251349300146,-0.2473817194793373,0.4404647164076566,-0.1205460280179977,0.0566799640655517,-0.0618436709046363
1.31533837890625,0.0044657472372055,-0.2126975057195872,0.3947188642770052,-0.0977245420217514,0.0524984262883663,-0.0645350366830825
1.325318359375,0.0367487450741231,-0.1411071278342977,0.3708598497837782,-0.07398671656847,0.0234542600810527,-0.055354319512844
1.33529736328125,0.0556194497607648,-0.1204339768355712,0.2669073078781366,-0.0434864461421966,-0.0217879116535186,-0.0335652418434619
1.34527734375,0.0552760431505739,-0.1312324342256411,0.2170434990346431,-0.0075673288665711,-0.0605981573462486,-0.0138117782771587
1.355256591796875,0.0527769198112189,-0.0657266734836623,0.2218500225335359,0.0095764761790633,-0.0691578388214111,-0.0035718644503504
1.365236328125,0.0204126734316349,0.0175321495592594,0.1871744304716587,0.0165781918913126,-0.0480506941676139,-0.003784917294979
1.37521533203125,-0.0313163447618484,0.0005048807822167,0.1417407130300998,0.0183658823370933,-0.0052905483171343,-0.0089485235512256
1.385195556640625,-0.0804104844070971,-0.0191008601807057,0.1230535482168197,0.0082882139831781,0.0526795424520969,-0.0122484462335705
1.39517431640625,-0.1050789155870676,0.039385413720645,0.1507487798720598,-0.0173923820257186,0.0896311700344085,-0.0249639749526977
1.405154296875,-0.0925379984438419,0.0193528256477788,0.129399702373147,-0.0440306514501571,0.0920724868774414,-0.0429179444909095
1.41513330078125,-0.0545873302340507,-0.0965245473293587,0.117467272517085,-0.0680062025785446,0.0943685844540596,-0.0746825635433197
1.42511328125,-0.0093434362761676,-0.1789604000842198,0.1637964774936437,-0.0869559273123741,0.1037716716527938,-0.1128203645348548
1.435092529296875,0.0310841434411704,-0.1872168083086609,0.1946194857805967,-0.1187074035406112,0.1115019172430038,-0.141840711236
1.445072509765625,0.0333968042977154,-0.1768545869113877,0.1481102480620145,-0.151138573884964,0.1309970617294311,-0.1640839576721191
1.45505126953125,0.0237146375864744,-0.162990787133947,0.131572370237112,-0.1771986186504364,0.157669648528099,-0.177560269832611
1.46503125,0.0158896430492401,-0.1678791071647778,0.132305360686779,-0.1851841062307357,0.1734275668859481,-0.1729569882154464
1.475010498046875,-0.0317167422562837,-0.1949141213456168,0.1868219637721777,-0.1757567226886749,0.178377628326416,-0.153488427400589
1.484990478515625,-0.0631590514853596,-0.1937390862168744,0.2796598219454288,-0.1395902037620544,0.1574757993221283,-0.1239260137081146
1.494969482421875,-0.0643897623240947,-0.2454363940978422,0.3211509392410516,-0.0739070475101471,0.1351873874664306,-0.0915224552154541
1.504949462890625,-0.0389697821244597,-0.3496853981994092,0.4025251541137695,-0.0124519448727369,0.1180315762758255,-0.0549577884376049
1.51492822265625,-0.0037435704424977,-0.3988325832061469,0.465624876627326,0.0363592877984046,0.1085262522101402,-0.0175495892763137
1.524908447265625,0.026343963176757,-0.4122201437739655,0.4853074822187423,0.0528834015130996,0.0981915891170501,0.0092894807457923
1.534887451171875,0.1001236312672495,-0.4253105114934966,0.4748837033599615,0.0339920595288276,0.0938509479165077,0.0219062585383653
1.5448671875,0.1453526199169456,-0.3946205184690654,0.4704454286515712,-0.0060730692930519,0.0873070284724235,0.03208539634943
1.554846435546875,0.1259133215621113,-0.3859613746626302,0.5394534984260797,-0.0375915057957172,0.0788504928350448,0.0423464477062225
1.564826416015625,0.0817233205713331,-0.3566419028064236,0.6803963390767573,-0.0631218999624252,0.0557244010269641,0.0420553646981716
1.574805419921875,0.0405959220215678,-0.3148638948608189,0.7434276725292205,-0.0761188119649887,0.007702481932938,0.0455746389925479
1.584785400390625,-0.0215863933861255,-0.3317969460157677,0.7111930438786744,-0.078373447060585,-0.0578621476888656,0.0513931103050708
1.59476416015625,-0.0405493064008653,-0.38441491240561,0.6136328333586454,-0.0598602220416069,-0.1125444918870925,0.0489514879882335
1.604744384765625,-0.0647081806235015,-0.4013662298696115,0.5472200407743454,-0.0389717184007167,-0.1543904691934585,0.0422765426337718
1.61472314453125,-0.0946418388552963,-0.4126797606423497,0.392151059615612,-0.0249940361827611,-0.1676223874092102,0.0324656590819358
1.624703369140625,-0.1303939741075039,-0.3944242652446031,0.2593213827937841,-0.0168311819434165,-0.1626989990472793,0.0191679615527391
1.6346826171875,-0.1421396492198109,-0.3752265570932999,0.0927495953679084,-0.0184049550443887,-0.1426350325345993,0.0054378933273255
1.644662353515625,-0.121073334185034,-0.3806431022493168,-0.0356733709275722,-0.0282565206289291,-0.1076717153191566,-0.0195872988551855
1.6546416015625,-0.0773505123145878,-0.3631004678286612,-0.1306616851329803,-0.0519523359835147,-0.0491605475544929,-0.0426269993185997
1.66462158203125,-0.0382683558568358,-0.3040868821175769,-0.3191407684624195,-0.0677949488162994,0.0090082176029682,-0.0598738975822925
1.674600341796875,-0.058131140320748,-0.3195373300319537,-0.4441799375385046,-0.0633806139230728,0.0848089605569839,-0.071833498775959
1.68458056640625,-0.0930259280912578,-0.2870843824556097,-0.369112713855505,-0.0453360974788665,0.1384522169828415,-0.0822696313261985
1.694559326171875,-0.1220904022730886,-0.2266020028335973,-0.3659089493781328,-0.0265099462121725,0.1580229997634887,-0.0853386521339416
1.704539306640625,-0.1448100374728441,-0.1951385777512565,-0.3342828080147504,-0.0249405447393655,0.1486651748418808,-0.0893951803445816
1.7145185546875,-0.1514532748796045,-0.181023945017904,-0.3066606415957212,-0.0388194099068641,0.095975250005722,-0.0830745920538902
1.724498291015625,-0.1385652978643775,-0.1624992772899568,-0.3537877189517021,-0.0517149679362773,0.0373420342803001,-0.071358285844326
1.7344775390625,-0.1441078805528581,-0.1361210099847987,-0.3364835329294204,-0.0519884191453456,-0.0261609945446252,-0.0524567067623138
1.74445751953125,-0.1572618150278925,-0.1270838266462087,-0.3265975142091512,-0.0234622322022914,-0.0866658836603164,-0.0246855299919843
1.754436279296875,-0.1782845831818878,-0.1153199948227032,-0.3390928386449813,0.0244156625121831,-0.1115129739046096,-0.0015384884318336
1.764416259765625,-0.1544113940328359,-0.088801990253292,-0.3574930032104254,0.0646831914782524,-0.11745635420084,0.0141201000660657
1.774395263671875,-0.1096690198563039,-0.0640105537481606,-0.4510825565338134,0.0820617228746414,-0.0934976860880851,0.0142318466678261
1.784375244140625,-0.0834996825940907,-0.0721971116067841,-0.4840168578863144,0.0720130801200866,-0.0482279397547245,0.0084650376811623
1.794354248046875,-0.0314577990591526,-0.0475275844482704,-0.5321458057612181,0.0282927695661783,0.0020793592557311,-0.0097078047692775
1.80433447265625,0.0062146367311477,-0.0242160477699711,-0.5679799202084541,-0.0167684480547904,0.0565489903092384,-0.0265424456447362
1.8143134765625,0.0013258417762815,-0.0670042556714266,-0.4652572123587131,-0.0469041541218757,0.0863102599978447,-0.039948470890522
1.82429345703125,-0.0080031275831162,-0.1010467739941552,-0.3858785552173853,-0.0390968322753906,0.0952499583363533,-0.0455951727926731
1.8342724609375,-0.0363216057032346,-0.097731402368471,-0.2445721419513225,-0.0131985358893871,0.0867467150092125,-0.0430388860404491
1.84425244140625,-0.0921931305289268,-0.0846072785098105,-0.1227326456993818,0.0192685946822166,0.0622586831450462,-0.0370028316974639
1.854235107421875,-0.1113783079922199,-0.068893905342929,-0.0966185457557439,0.0357441641390323,0.0271650478243827,-0.0359220579266548
1.86421533203125,-0.1127836447454988,-0.0642375309044495,-0.1076303536355495,0.0374880023300647,0.000416524708271,-0.0383505932986736
1.8741943359375,-0.0911436214759945,-0.068894599462673,-0.1069336035430431,0.0288447123020887,-0.0182720255106687,-0.0465459637343883
1.88417431640625,-0.0503013234779238,-0.0526398128954693,-0.1157499472051858,0.0142969284206628,-0.0184419341385364,-0.051091980189085
1.894153076171875,-0.0035188217759132,-0.0433751044113188,-0.1201338613778352,0.0102551793679595,-0.0041074305772781,-0.0611318461596965
1.904133056640625,0.0495985820360481,-0.0580790082747116,-0.1096755957275629,0.0158342365175485,0.0252571143209934,-0.0636634454131126
1.9141123046875,0.0910375307530164,-0.0686040555508807,-0.0632540362924337,0.0179545897990465,0.0529722422361373,-0.0703258961439132
1.924092041015625,0.1080170148655772,-0.0453259462181478,-0.0390261884868144,0.0144804958254098,0.0757950022816658,-0.07451131939888
1.9340712890625,0.1249988370656967,-0.0292643806681036,0.0448912811279296,0.0035290468949824,0.0831525400280952,-0.0758910104632377
1.944051025390625,0.1642870374895632,-0.0027567513622343,0.1291787530988454,-0.0109793217852711,0.0734602287411689,-0.0722464770078659
1.954030029296875,0.1651962612889707,0.0090401790132746,0.1956242789089679,-0.0077688829042017,0.0599151030182838,-0.0610391907393932
1.96401025390625,0.1352500358365476,0.016898491298221,0.2978016278356313,0.0063911448232829,0.0389909148216247,-0.0474658571183681
1.973989013671875,0.1470925954520702,0.032995347357355,0.3803612531006336,0.0255678314715623,0.0309939384460449,-0.0388461798429489
1.983968994140625,0.1619119789212942,0.065554349124059,0.4075508733212947,0.0371611043810844,0.0198033340275287,-0.0235026441514492
1.993947998046875,0.1860861968435347,0.1270979647694155,0.3999631946712732,0.0487218163907527,0.0059979679062962,-0.0081523424014449
2.003927978515625,0.1888064155876636,0.1568310589278116,0.3935959977269172,0.0601923167705535,0.0051915617659688,0.0138975661247968
2.0139072265625,0.174077633011341,0.1729408840663731,0.460900770714879,0.0665128082036972,0.0029153870418667,0.0338884182274341
2.02388720703125,0.1837346652813255,0.2245634827433154,0.5153378788232803,0.0718489810824394,-0.0142888994887471,0.0481949225068092
2.0338662109375,0.1862669602379202,0.250232834594138,0.5207914680540562,0.0723259523510932,-0.0286432597786188,0.0628081858158111
2.043846435546875,0.1964212745055556,0.2398169833134859,0.5070499429494142,0.0780999511480331,-0.0454739034175872,0.0747564584016799
2.0538251953125,0.1975529088839888,0.2252907010393217,0.4978554136246442,0.0880265533924102,-0.0416598506271839,0.0844300910830497
2.06380517578125,0.2047432587794959,0.2176692297175526,0.5167424849241972,0.1042420044541359,-0.0375668369233608,0.0895132720470428
2.0737841796875,0.2159529273189604,0.2286546975797042,0.5360919130384921,0.1101777255535125,-0.0207582227885723,0.0868452116847038
2.08376416015625,0.2004211577966809,0.2526901646183803,0.5512614251196384,0.0935132578015327,-0.0058589023537933,0.0757075995206832
2.093743408203125,0.1819018968962132,0.2793864848967641,0.5190408249944448,0.0643366649746894,0.0086334655061364,0.0584907755255699
2.10372314453125,0.1736646682962775,0.2830647350180894,0.5034487035870552,0.0213689599186182,0.0093186972662806,0.0424188636243343
2.1137021484375,0.1513658888570964,0.2845469363998621,0.5137631768524646,-0.020773097872734,-0.0103034796193242,0.0320465788245201
2.12368212890625,0.1353046886332333,0.2869518786497414,0.4823153146654367,-0.0422267243266105,-0.0476154312491416,0.0277940426021814
2.133662109375,0.0970373556897044,0.2805410252267494,0.4360112441301345,-0.0473858676850795,-0.0746636316180229,0.0334395170211792
2.14364111328125,0.0323738909907639,0.2968745761185884,0.4178671001523732,-0.0304196663200855,-0.0767331793904304,0.0463979244232177
2.153620849609375,-0.0479385398693382,0.3156497845415025,0.3890390650749206,-0.010306341573596,-0.0752606391906738,0.0556437820196151
2.16360009765625,-0.0919034999325871,0.3084986341452226,0.3022983547329902,0.0050979149527847,-0.0675523877143859,0.05845208466053
2.173580078125,-0.1060037753470242,0.2567304164525121,0.2643038473814725,0.0098033184185624,-0.0599697157740592,0.0535638034343719
2.18355908203125,-0.0769625359103083,0.1922346364706754,0.2194721874862909,-0.0033353867474943,-0.0613082200288772,0.043785210698843
2.193539306640625,-0.009943155734986,0.1399198177458718,0.1804120967298746,-0.0282742232084274,-0.0677964836359024,0.0259315688163042
2.20351806640625,0.0623785686321556,0.0908996931849047,0.1297907475173473,-0.0505987033247947,-0.0649879202246666,0.009380554780364
2.213498291015625,0.0942193756595253,0.0341926673831418,0.162443893840909,-0.0665335282683372,-0.0277601666748523,-0.0059321504086256
2.223477294921875,0.1136668573208153,0.0123048068324103,0.251024094569683,-0.0619302541017532,0.0156831797212362,-0.0254683010280132
2.23345703125,0.1141891276292502,-0.0031306627085432,0.33294074575603,-0.0561250299215316,0.0576008483767509,-0.0378681868314743
2.243436279296875,0.1248624973349273,-0.0431367656107991,0.4246154053688049,-0.0401785522699356,0.0811506509780883,-0.0346612073481082
2.253416015625,0.1422891406930983,-0.1263421779660508,0.5310919127941132,-0.0238981898874044,0.0789605230093002,-0.0216932110488414
2.263395263671875,0.1529489202648401,-0.2156911711102351,0.6321031405508518,-0.0089940736070275,0.0661336779594421,0.0016139772487804
2.273375244140625,0.1457544787161052,-0.3479934630570933,0.7280173374295235,0.0281596239656209,0.0556256212294101,0.02710254304111
2.28335400390625,0.1647144691213965,-0.4863666724154725,0.913131328240037,0.0802579820156097,0.0451823025941848,0.0362441092729568
2.293334228515625,0.1940403707183897,-0.5716843642169609,1.0816454819053412,0.1348289549350738,0.046391524374485,0.0294419135898351
2.30331298828125,0.2451936348505318,-0.6036691462922841,1.2703794167786835,0.1750682443380355,0.0533698014914989,0.0086263800039887
2.31329296875,0.2707445479534566,-0.6083243151543661,1.3798305561006068,0.1870312988758087,0.0682555064558982,-0.0136629315093159
2.323272216796875,0.277127819249779,-0.6014410949792712,1.468030233079195,0.1753474771976471,0.0864297151565551,-0.039276149123907
2.333251953125,0.2661974060431122,-0.5873248548107222,1.5590169104278089,0.1397499442100525,0.1153832972049713,-0.062889851629734
2.343231201171875,0.2352984099105,-0.607104673698917,1.6658686809062957,0.1055434942245483,0.133206769824028,-0.0820893794298172
2.35321142578125,0.2249566102467477,-0.6495432279124855,1.7453028676271438,0.0855728462338447,0.1419567018747329,-0.0995435193181037
2.36318994140625,0.2128169673807919,-0.678888930188492,1.8734347420215605,0.084780029952526,0.1271532624959945,-0.111953318119049
2.373170166015625,0.1980732794962823,-0.6995245987210422,1.9689421116650103,0.0790867134928703,0.0930680185556411,-0.1253161579370498
2.383149169921875,0.1933100106172263,-0.7377060800120234,1.9799042351841925,0.0808140411972999,0.0531781278550624,-0.1368564367294311
2.393129150390625,0.2287269225656986,-0.8411527182221412,1.953381554439664,0.098644770681858,0.0136433066800236,-0.1620439291000366
2.4031083984375,0.2649925602979958,-0.9464800556123256,1.8222978445023297,0.1423943787813186,0.0080653158947825,-0.1983942091464996
2.413088134765625,0.1990902014538645,-1.0435238410428165,1.72988668730855,0.1951227784156799,0.047131523489952,-0.2360348850488662
2.423067138671875,0.0920724267587065,-1.0684463931143284,1.572893460088968,0.2370004504919052,0.0880965366959571,-0.2795501351356506
2.433047119140625,0.0716816728979349,-0.9893322321280836,1.260313365316391,0.2535252869129181,0.1312226951122284,-0.3258238434791565
2.443026123046875,0.0677541241906583,-0.9220277514010669,0.817836724564433,0.2281530946493148,0.1721632033586502,-0.3739905655384063
2.453006103515625,0.0300188522972166,-0.8821616780240088,0.2265016477316618,0.1760771721601486,0.1961026638746261,-0.4316341578960418
2.462985107421875,0.0362803969100117,-0.7672188094180077,-0.434115639641881,0.082661747932434,0.2283639311790466,-0.5032109022140503
2.472965087890625,0.0074120298221707,-0.5093449220187962,-1.0337883367091416,-0.03614067658782,0.2561140954494476,-0.555452823638916
2.482944091796875,-0.1903939770400524,-0.2269035613297484,-1.5487749178767205,-0.1578647047281265,0.2540978193283081,-0.5819448828697205
2.492924072265625,-0.5182897143661975,-0.0801694969917647,-2.13021053198576,-0.2418317198753357,0.2071772366762161,-0.5658968091011047
2.502904052734375,-0.9237634891524912,-0.081535780376289,-2.6853578586280342,-0.2667501270771026,0.1450997442007064,-0.5107571482658386
2.512883056640625,-1.2635564388908445,-0.1284425843114033,-3.1608617397129533,-0.235376238822937,0.0862568840384483,-0.4399262368679046
2.52286328125,-1.479736452963948,-0.2029470412787981,-3.68627736043632,-0.1470258682966232,0.0185476131737232,-0.3874529302120209
2.53284228515625,-1.5781228851750493,-0.2477261490028351,-4.310580640891194,-0.0298354346305131,-0.0647935569286346,-0.3638713657855987
2.542822265625,-1.6718750817142427,-0.2229245381635613,-5.004016494283079,0.0965991988778114,-0.2074929028749466,-0.3757538795471191
2.55280126953125,-1.7796619410857557,-0.0331884405103512,-5.908747658446431,0.227995827794075,-0.3513641953468323,-0.4168726801872253
2.562781005859375,-1.8635615827828644,0.4032331197200343,-6.950681307688355,0.3120537102222442,-0.3549709022045135,-0.4854887425899505
2.57276025390625,-1.9541972547367212,1.243722003738582,-7.971701348239183,0.2595807909965515,-0.2214492410421371,-0.546662449836731
2.582740234375,-2.1292387643441555,2.185046868544817,-9.321757528322934,0.0537149831652641,-0.0513600744307041,-0.5473671555519104
2.59271923828125,-2.2559632561586795,2.5955893248975275,-10.613325279080868,-0.2148932069540023,0.0897469148039817,-0.4784608483314514
2.60269921875,-2.3062302389755844,2.547256378883123,-11.342177313768865,-0.4293224215507507,0.1082982346415519,-0.3482277691364288
2.612677978515625,-2.2123320580944417,2.370416149290651,-11.58991288818717,-0.5159991979598999,-0.0327035337686538,-0.2066892981529235
2.622657958984375,-1.9816889266438784,2.159484118873626,-11.613760212242603,-0.4653229117393493,-0.2863086462020874,-0.0754580497741699
2.63263720703125,-1.820203940963,2.1239995485164225,-11.441398735499382,-0.3374607861042022,-0.541812002658844,0.030378108844161
2.642616943359375,-1.8794955033652485,2.40250070194602,-11.036278304195404,-0.2316121309995651,-0.7057937383651733,0.1400774270296096
2.65259619140625,-2.2654878942206502,2.6291280218839645,-10.494269860589505,-0.1995617598295211,-0.7806227803230286,0.2730681896209717
2.662576171875,-2.785599271056056,2.4334683794006704,-9.838274972319605,-0.2308240830898285,-0.7154155373573303,0.3697931170463562
2.672554931640625,-2.837390833091736,1.950764357678592,-8.825296783927083,-0.2989408075809479,-0.5108715891838074,0.3730917572975158
2.68253515625,-2.3641908450350164,1.22490317536965,-7.531559872436523,-0.3683182895183563,-0.2625680565834045,0.2980023324489593
2.692513916015625,-1.5591960663869977,0.4390087819783017,-6.294478329625726,-0.3706073760986328,0.0547396317124366,0.199854627251625
2.702494140625,-1.0009770772144198,-0.1560738838849589,-4.5410091066777705,-0.3137190639972687,0.4429931044578552,0.1287021487951278
2.712473388671875,-0.7938996763989329,-0.5162123235702515,-2.328532379415631,-0.2128054499626159,0.7789809703826904,0.0981010943651199
2.722453125,-0.5157391531005502,-0.7371857824649661,-0.1170505084097385,-0.091202862560749,0.974619448184967,0.1322630494832992
2.732432373046875,-0.0543383239090442,-1.0443018396779895,1.996492381891608,0.0254702512174844,1.0336856842041016,0.1894692778587341
2.742412109375,0.6293672858461737,-1.3593793042242526,3.87622826988399,0.07484632730484,1.079651951789856,0.230477973818779
2.75239208984375,1.251342854005843,-1.4822043043822049,5.509636696690321,-0.0084024583920836,1.1450501680374146,0.2414822727441787
2.762371337890625,1.7049593129314482,-1.3932000330224632,6.644347998350859,-0.1327521055936813,1.0763262510299685,0.2370393276214599
2.77235107421875,2.0940984773799776,-1.610335594254732,7.497835297489166,-0.3581266701221466,0.8641935586929321,0.3443605899810791
2.782330078125,2.0311495615139603,-2.206098716662824,7.905864894238114,-0.5446105003356934,0.6741504073143005,0.4815141856670379
2.792310302734375,2.3523538383774456,-2.199687096054852,8.5814137932837,-0.6203513145446777,0.4844647347927093,0.5427805781364441
2.8022890625,2.0943537673152983,-2.23437963925153,8.883103660729526,-0.5716330409049988,0.371819406747818,0.5507186651229858
2.81226904296875,2.142813700710237,-2.4807839650660752,9.119894062763452,-0.4260702133178711,0.1618881523609161,0.559658408164978
2.822248046875,2.349575751966238,-2.677175136694312,9.03438669360876,-0.205579936504364,-0.1001887395977974,0.5800531506538391
2.83222802734375,2.092887640285492,-2.725627617435157,9.039970046699048,0.0867536216974258,-0.3629836738109588,0.5891460180282593
2.842207275390625,1.6746489303417502,-2.760960796622932,8.843318762829899,0.4420877695083618,-0.5340698957443237,0.6309086680412292
2.852187255859375,1.472996623314917,-3.0150480781555173,8.734310691100358,0.8130379319190979,-0.5716293454170227,0.7004879117012024
2.86216552734375,1.5155935098953544,-2.9813550673902034,8.585420690837502,1.1362920999526978,-0.5312259793281555,0.7602967023849487
2.872145751953125,1.574292805492878,-2.548638773152232,8.314825049835443,1.3522791862487793,-0.339399129152298,0.7900716662406921
2.882124755859375,1.5610412558622655,-2.098214534396678,8.416166532459854,1.3872294425964355,-0.0381364822387695,0.7680742144584656
2.892104736328125,1.577565835814178,-1.6439130158163606,8.48247586466968,1.2024329900741575,0.2427400797605514,0.6853518486022949
2.902083740234375,1.7475721277333796,-1.2831352918468415,8.396078268676996,0.8916279077529907,0.4318860471248626,0.5627606511116028
2.912063720703125,1.997446029354632,-1.059786847449094,8.3802710432142,0.5855143070220947,0.4969671070575714,0.4487388134002685
2.922043701171875,2.145836263401806,-1.0083781472511588,8.58495833402276,0.3982487618923187,0.4468429684638977,0.3662047982215881
2.932022705078125,2.14865088243112,-1.1676947759170084,8.91411430054307,0.3354867994785309,0.2915482521057129,0.3286538422107696
2.942002685546875,2.081348301400244,-1.3522249024249613,9.077585783866049,0.3852828741073608,0.1289119273424148,0.3086596429347992
2.951981689453125,2.014831171658635,-1.3232612582691012,9.208961170226337,0.5217313170433044,0.0404621884226799,0.2716617584228515
2.961961669921875,1.971054281513393,-1.2098564859505745,9.36425051613748,0.7068748474121094,-0.0061420667916536,0.2427726089954376
2.9719404296875,1.9375093009166415,-1.2053938805185258,9.266762201809884,0.8751932978630066,-0.0848914012312889,0.2088976204395294
2.981920654296875,2.0302318621471525,-1.0876938952241093,8.861884347090125,0.9556071758270264,-0.2316385060548782,0.1858910918235778
2.991899658203125,2.159073053854704,-0.9274113441355526,8.229502974119782,0.9628257155418396,-0.4238642156124115,0.1634076535701751
3.00187939453125,2.317937335643172,-0.7557105232581496,7.6613628949135535,0.9380135536193848,-0.5992211103439331,0.1332457512617111
3.011858642578125,2.349035069218278,-0.5805372404972091,7.238529112264514,0.920726716518402,-0.6861914396286011,0.0615284293889999
3.0218388671875,2.223527113586664,-0.3980871716663241,6.790842043387889,0.9811400175094604,-0.747025191783905,-0.0228122826665639
3.0318173828125,1.9780933863699437,-0.3929041430052369,6.564748391935229,1.0903642177581787,-0.7397132515907288,-0.0895108804106712
3.0417978515625,1.7433138857670127,-0.2207398693345487,6.135649119150639,1.2204196453094482,-0.6471295356750488,-0.0944079011678695
3.05177783203125,1.3866007808879015,-0.097149510827288,5.489111210533976,1.3473116159439087,-0.5070247054100037,-0.0531605631113052
3.061756591796875,0.8153539678379893,0.0054836921080946,4.722759758535028,1.4182531833648682,-0.3339972794055938,-0.0173969715833663
3.07173681640625,0.4572206208974123,0.3846296511348336,3.715957628428936,1.3733586072921753,-0.2052053809165954,-0.0081790117546916
3.081715576171875,0.1743023816779255,0.9726204590409994,2.422753216379881,1.345434308052063,-0.1943830996751785,0.0446911267936229
3.091695556640625,-0.2946763354219496,1.3243095982782542,1.412925016450882,1.2514069080352783,-0.3185144662857055,0.1051458120346069
3.1016748046875,-0.7455893806077539,1.7352514292120933,-0.2476701079666614,1.18105149269104,-0.6135639548301697,0.0585460849106311
3.111654541015625,-1.2439137269183993,2.6507845578968525,-2.000121678304672,1.0673882961273191,-0.8196885585784912,-0.0694728046655654
3.1216337890625,-1.911297439686954,3.460720007817447,-3.829425017654896,0.8540769815444946,-0.5207098722457886,-0.1708732098340988
3.131613525390625,-2.802318935188651,3.311090295103192,-5.16278374543786,0.5417481064796448,0.183890238404274,-0.2778875827789306
3.141592529296875,-3.183046391253173,3.0457553511083124,-6.421417779365181,0.1873437166213989,0.9683179259300232,-0.4964691996574402
3.15157275390625,-2.520280693674088,2.811308297330141,-7.702704374605417,-0.2105359435081482,1.3939919471740725,-0.7840843200683594
3.161552734375,-1.710478514744341,2.15157334574908,-9.799211374431849,-0.5844690203666687,1.3939902782440186,-0.9711573123931884
3.171531494140625,-1.537546544636786,1.2919598188154398,-11.944884848487376,-0.8127913475036621,1.0660455226898191,-0.9806748628616332
3.18151171875,-1.9852021954618395,0.9133882256105542,-13.284517834234236,-0.8390655517578125,0.5770213007926941,-0.8354824781417847
3.19149072265625,-2.7226801658064126,0.9130303520835936,-14.216984562063216,-0.7245257496833801,0.0330099649727344,-0.5707070231437683
3.201470703125,-3.522355210736394,0.6002919980093836,-15.289070188462734,-0.5286473631858826,-0.3612009882926941,-0.2808323502540588
3.21144970703125,-3.979728976368904,-0.0437108391717076,-15.754055013620851,-0.327477753162384,-0.4507607817649841,-0.1245084851980209
3.2214296875,-3.6727760738283393,-0.3580005143411457,-15.5478824526906,-0.2279634177684784,-0.2709465622901916,-0.1427644491195678
3.23140869140625,-3.0089900932908056,-0.2829201389156281,-15.001034167838096,-0.3023810684680938,-0.0083933370187878,-0.2662964761257171
3.241388671875,-2.541206577324867,0.0670696490578353,-14.553389769059418,-0.5550985932350159,0.1585626304149627,-0.3776927590370178
3.25136767578125,-2.636089677590132,0.5803693000517786,-14.36865864008665,-0.8714988231658936,0.1556843519210815,-0.3744102716445923
3.261347412109375,-3.0122672152653336,0.917341201020032,-13.997363321495056,-1.10847806930542,-0.0211644526571035,-0.2317897528409958
3.27132763671875,-3.187778388211131,0.99979466249682,-13.390498667097091,-1.206982135772705,-0.3461192548274994,0.0047777513973414
3.281306640625,-3.013387451466918,0.8132644482128322,-12.818098592358826,-1.1682571172714231,-0.716623842716217,0.269571304321289
3.291286376953125,-2.608241885721683,0.5362286911606788,-12.261316942512988,-1.0466638803482056,-1.0485318899154663,0.5251003503799438
3.301265625,-2.2270339526638385,0.2921382683116942,-11.63786238784194,-0.8909916877746582,-1.1994072198867798,0.7243915796279907
3.31124560546875,-1.92073732207492,0.2490591511722654,-10.687928976905344,-0.7573357224464417,-1.0654035806655884,0.8070608377456665
3.321224609375,-1.7000597043216228,0.3379758173137903,-9.305888343539834,-0.7027931213378906,-0.6935330033302307,0.7690436840057373
3.331204833984375,-1.5822925720751284,0.4244822805084288,-7.619525740659236,-0.760400116443634,-0.2160654515028,0.6057312488555908
3.34118359375,-1.5996994878195223,0.4950412329867482,-5.75753418367207,-0.9402633905410768,0.2526935040950775,0.3679517209529876
3.351163818359375,-1.6709303482100366,0.4509862930851057,-3.805988027966022,-1.1906501054763794,0.576778769493103,0.122545525431633
3.361143798828125,-1.4586743757128715,0.2606192223182879,-1.974157800486684,-1.4234648942947388,0.6816005110740662,-0.0818885713815689
3.37112255859375,-0.9880280176617204,-0.038297874212265,-0.2838122654497623,-1.583200454711914,0.5485636591911316,-0.1866437345743179
3.381102783203125,-0.3756099669203162,-0.5624902732836082,1.1330103429615497,-1.5939172506332395,0.2765052318572998,-0.191714659333229
3.39108154296875,0.4190639087215065,-1.192180909332633,2.43317991784811,-1.4641536474227903,0.0249802079051733,-0.1253743171691894
3.4010615234375,1.1863805524908009,-1.6328351569630204,3.6887826212555166,-1.23930025100708,-0.1533919274806976,-0.0001554077607579
3.411040771484375,1.635081474585086,-1.981433052186668,4.734724921616912,-0.9921531677246094,-0.2665416896343231,0.1575839966535568
3.4210205078125,1.857036272667348,-2.233486197543144,5.640933172595501,-0.7567145228385925,-0.3698773980140686,0.3095540702342987
3.43099951171875,2.0080510099992157,-2.3455966192021966,6.389906788814067,-0.5410757660865784,-0.4541791975498199,0.426592081785202
3.440979736328125,2.3071862245261667,-2.552974756529927,7.018411612612009,-0.319641649723053,-0.5252054333686829,0.4965029656887054
3.45095849609375,2.6697026088565585,-2.922400774118304,7.559405910739303,-0.1320672482252121,-0.5847358107566833,0.5249179005622864
3.4609384765625,2.776413509559631,-3.02831234113723,7.898684627345204,0.0200831424444913,-0.5925604104995728,0.504845142364502
3.4709189453125,2.917141830676794,-2.975532644847035,8.265769634765386,0.1353382468223571,-0.5588067770004272,0.4291953146457672
3.480897705078125,2.812310752370953,-3.0250521702975037,8.572783912104368,0.1543439030647277,-0.5198934674263,0.3465622067451477
3.490877685546875,2.5366665958076715,-2.9966312547162173,8.604639186048507,0.0814023166894912,-0.4910555481910705,0.2589282989501953
3.500856689453125,2.376336625380814,-2.9069299410030243,8.521275258663296,-0.0091475546360015,-0.4485940933227539,0.1621586084365844
3.510836669921875,2.2751740064546464,-2.8641110822349787,8.529526954180001,-0.05184892937541,-0.3849648535251617,0.0532560236752033
3.52081591796875,2.203896238182485,-2.7620275490716097,8.660241246283054,-0.0431899279356002,-0.3088722229003906,-0.0332011021673679
3.530795654296875,2.189910967449844,-2.6787048304796217,8.72440421411395,-0.0109606506302952,-0.223049983382225,-0.1014434397220611
3.540774658203125,2.290772265341878,-2.5062708730220797,8.699736805847287,0.0400857552886009,-0.1068687811493873,-0.1614945232868194
3.550754638671875,2.4564374593168496,-2.2313763657823205,8.703884573176502,0.0969807207584381,0.0277932584285736,-0.2018111199140548
3.560734619140625,2.5819325554668904,-1.9808049834162,8.742056775182485,0.1379105895757675,0.1245078146457672,-0.2165064364671707
3.570713623046875,2.6836905099377035,-1.8640429365590212,8.61615952797234,0.1756537556648254,0.1989910751581192,-0.2032594084739685
3.580693603515625,2.8209917792156336,-1.8439707471281288,8.55099468962252,0.2200100272893905,0.2762579023838043,-0.1972342729568481
3.590672607421875,2.9588816620364784,-1.8004818801440297,8.582022280570865,0.2570210993289947,0.3168482780456543,-0.1995438784360885
3.600652587890625,3.0774177328288554,-1.7677884018100798,8.540158822831511,0.3019819259643554,0.333752691745758,-0.2086060941219329
3.610631591796875,3.106189653804898,-1.7769585273459552,8.524814538705348,0.3493373394012451,0.32549649477005,-0.2142643183469772
3.62061181640625,3.1339477215632794,-1.7733089187972246,8.48107651926577,0.4114619493484497,0.2983705997467041,-0.2182574570178985
3.630590576171875,3.1252532507151365,-1.7795505896657704,8.396978432387114,0.4835862219333648,0.2689104378223419,-0.2264439612627029
3.64057080078125,3.0822119813680646,-1.8323358389139173,8.232206972381473,0.55384361743927,0.2363431602716446,-0.2324723005294799
3.65055078125,3.0385113713294265,-1.881431732124835,7.927702632036804,0.634124219417572,0.2406922429800033,-0.2470913678407669
3.660529541015625,2.97866714348048,-1.8432780886888505,7.630662051701545,0.7137434482574463,0.2778744995594024,-0.2698347568511963
3.670509765625,2.850625577718019,-1.6915042035527523,7.210801147383451,0.7959229946136475,0.3509295284748077,-0.2778563797473907
3.680488525390625,2.652749720489979,-1.626227575391531,6.792535403302312,0.8809289336204529,0.4672510921955108,-0.2864852845668793
3.690468505859375,2.486958854308724,-1.5624606211408971,6.29969109583795,0.936008632183075,0.6264070272445679,-0.3208376169204712
3.70044775390625,2.328258238649368,-1.3972918323807415,5.539947663801908,0.9835306406021118,0.8112381100654602,-0.3519356250762939
3.710427490234375,1.9653340041704477,-1.140194116985798,4.728724219897389,1.027305006980896,0.9511881470680236,-0.3526285588741302
3.720407470703125,1.3647067828573285,-0.889495893369615,3.7609032700926064,1.0574620962142944,1.0833096504211426,-0.340992659330368
3.73038671875,0.7686528608091175,-0.5916778623884543,2.798900651177764,1.1031773090362549,1.107078194618225,-0.3378224670886993
3.740366455078125,0.0970740344382822,-0.3146125869808718,1.6395663649141787,1.198279619216919,0.9266895055770874,-0.3313232958316803
3.750345703125,-0.4768681551754474,-0.1862821578070521,0.3359247300028801,1.3561760187149048,0.5967094302177429,-0.3474500775337219
3.76032568359375,-0.8597272164411842,0.151623955271393,-0.9134113142251968,1.5285542011260986,0.1850105673074722,-0.3889708817005157
3.770304443359375,-1.2850452171213924,0.7868423052333295,-2.6027678382247683,1.5731738805770874,-0.221745952963829,-0.4646745920181274
3.780284912109375,-2.015839033526927,1.8771631148949264,-5.020531575754284,1.298357009887695,-0.5599817633628845,-0.5338270664215088
3.790263671875,-3.215737823760509,3.3213726196646687,-8.337654136759042,0.6621906161308289,-0.5865423679351807,-0.5216583013534546
3.80024365234375,-4.475598184612394,3.8311560792312025,-11.616645412290096,-0.1130707338452339,-0.1457399278879165,-0.3988591432571411
3.8102236328125,-4.98133704496324,2.764641530962288,-13.687251078140736,-0.6809324026107788,0.4025404453277588,-0.2962544560432434
3.82020263671875,-3.940183440183103,1.0495507001169024,-15.033899495607614,-0.8824660778045654,0.6373774409294128,-0.322695642709732
3.8301826171875,-2.16321117657274,-0.4273445380717515,-16.440779386675356,-0.8039368391036987,0.4780052602291107,-0.4113644063472748
3.84016162109375,-1.2695173931218684,-1.561163274806738,-17.780380808240174,-0.5593960881233215,0.0521074868738651,-0.4977506995201111
3.8501416015625,-1.4508201550811528,-1.3904380209632217,-18.914906231939792,-0.3149711191654205,-0.4751072525978088,-0.4781189560890198
3.860120849609375,-2.6643127325117586,-0.4611000926792621,-20.47302882387638,-0.1718105226755142,-0.8197556734085083,-0.2567559480667114
3.870100830078125,-4.267167031100392,-0.3525608805704862,-21.513498830306528,-0.0061621242202818,-0.886042058467865,0.0580065697431564
3.8800810546875,-4.971379714572429,-0.3551758123092353,-21.17710414470434,0.2455779761075973,-0.6308931708335876,0.3061857521533966
3.89006005859375,-4.904228670841455,-0.3122575117547065,-19.556715942990778,0.5059318542480469,-0.0930113196372985,0.383005678653717
3.9000400390625,-4.617617714583873,-0.2041918354418128,-17.130150474846364,0.618230938911438,0.6021554470062256,0.244301825761795
3.91001904296875,-4.361150844438374,0.042519802756235,-14.325523262715338,0.4643627107143402,1.2790929079055786,-0.083273097872734
3.9199990234375,-4.124831859308481,0.5623459329094738,-11.526404584872722,0.0558740124106407,1.7311583757400513,-0.4812809228897095
3.92997802734375,-3.851031577046215,1.1654103182416409,-9.111987235161662,-0.5102869868278503,1.9287418127059937,-0.8239732980728149
3.9399580078125,-3.5330461160987614,1.4396163317605852,-6.744595840519667,-1.1136269569396973,1.818126082420349,-1.029013752937317
3.949937744140625,-3.0616245358914136,1.3142740880846977,-4.78127858299911,-1.5739567279815674,1.34583842754364,-1.062688231468201
3.9599169921875,-2.610300864078104,0.9784194276433438,-3.3062218122839924,-1.782393217086792,0.6320303678512573,-0.8835150003433228
3.96989697265625,-1.8255502704270183,0.3088761256881058,-2.127606486967206,-1.7747316360473633,-0.078968733549118,-0.51739501953125
3.979875732421875,-0.8043730665531009,-0.4585231548633426,-1.226090193197131,-1.5940814018249512,-0.6728901863098145,-0.0398233644664287
3.98985595703125,-0.0999306659784168,-1.0279153530225158,-0.5169108272284269,-1.2900816202163696,-1.086733341217041,0.4850980937480926
3.999834716796875,0.1709901153247803,-1.752570520542562,0.0593459229379892,-0.9064502120018004,-1.2425146102905271,0.950447142124176
4.009814697265625,0.287780073102191,-2.378342704506218,0.75473057231009,-0.5076075196266174,-1.164780855178833,1.2380353212356567
4.0197939453125,0.4722239826314151,-2.9135335770517585,1.5079951637208462,-0.1730304062366485,-0.8694348335266113,1.3002442121505735
4.02977392578125,0.6821423059612512,-3.3404955455467102,2.447957215741277,0.0417231731116771,-0.430991381406784,1.131065011024475
4.03975390625,1.016873003873974,-3.433384257124364,3.5719343574196096,0.1446181982755661,0.0199358128011226,0.8253254294395447
4.049733154296875,1.350841339112073,-3.352258464054763,4.753797870877385,0.1762070059776306,0.4233407974243164,0.4716278314590454
4.059712890625,1.560513578726351,-3.1106475099965927,5.944456685209274,0.1766430735588073,0.7254456877708435,0.18952077627182
4.069692138671875,1.508739552347362,-2.6323539981931448,7.1153411240130655,0.2037772238254547,0.9310228228569032,0.0162283536046743
4.079672119140625,1.453708569999039,-1.9433437061585488,8.180108536353707,0.2495600134134292,1.0677502155303955,-0.021796628832817
4.08965087890625,1.4215347316250204,-1.251836628872156,9.238563696807622,0.3030852973461151,1.0736770629882812,0.0594534873962402
4.099631103515625,1.2452924679256976,-0.5963203178994357,10.007103598761558,0.3573317527770996,1.0067857503890991,0.1909938752651214
4.10961083984375,1.095910738623142,-0.0930239735961891,10.682149224460124,0.3982591927051544,0.8309340476989746,0.331828236579895
4.11958984375,1.0574171226430684,0.2102041728002019,11.062750131535529,0.430701732635498,0.5817406177520752,0.4612282812595367
4.129570068359375,1.0589649366069585,0.2500258773125708,11.230533632838725,0.4573256075382232,0.3918178081512451,0.5510308146476746
4.139548828125,1.290137571824342,0.2885368280199356,11.420366468864678,0.4979991614818573,0.5621401071548462,0.501132607460022
4.14952880859375,2.1285164414189754,0.319942221038416,11.535271781939269,0.5688844919204712,0.6924933195114136,0.4326294660568237
4.159509033203125,1.3875535515680908,0.9695286305055022,10.962568924862143,0.6238378882408142,0.6456566452980042,0.4710080921649933
4.169488037109375,0.5187688031200319,0.748420220119506,10.391630154848098,0.6615932583808899,0.4558257460594177,0.5571504235267639
4.179468017578125,0.2302889477180316,0.4556419734038412,9.994092141497134,0.6406629681587219,0.2377961128950119,0.6338873505592346
4.189447021484375,-0.1340219918789342,0.4793963219461962,9.691644733682274,0.5861432552337646,0.123992845416069,0.6492969393730164
4.199427001953125,-0.1687974641187116,0.3696910252001136,9.80485902493,0.5198293924331665,0.0822326466441154,0.5773729681968689
4.209406005859375,0.3871838291296735,0.314387728716433,9.827377146208285,0.4359855949878692,0.0732801705598831,0.4620338380336761
4.219385986328125,0.9529343463182448,0.0401384605776518,9.618763621866702,0.3373453915119171,0.0418086722493171,0.33931565284729
4.229365966796875,1.2651653353922068,-0.2239382269844412,9.261985488927364,0.282657116651535,-0.0008349260315299,0.2314131557941436
4.2393447265625,1.4256214164167642,-0.3714537240236997,9.12756357447803,0.2812658846378326,-0.0233562067151069,0.1551541835069656
4.249324951171875,1.425571439795196,-0.4407034205343574,9.04891440065503,0.3071832358837127,-0.0772319510579109,0.0941997542977333
4.259303955078125,1.349377696300298,-0.3622895167719572,8.727869259876012,0.3487209379673004,-0.1036428362131118,0.0701382532715797
4.26928369140625,1.1698610140401868,-0.3654954732064157,8.639865982252358,0.3721921741962433,-0.0876617431640625,0.0673102438449859
4.279262939453125,0.9021981385543942,-0.3061496233336627,8.584650290986895,0.3791674077510834,-0.0559413135051727,0.0924346074461937
4.289242919921875,0.6309454218830913,-0.222590319506824,8.350985327497124,0.4221383035182953,-0.0490152314305305,0.1286698430776596
4.299222900390625,0.4284954251399263,-0.3087606826148927,8.301144315007328,0.5090975761413574,-0.1100037992000579,0.1724043190479278
4.3092021484375,0.3959208239452913,-0.3459207849688828,8.074946034136413,0.5759354829788208,-0.1438469886779785,0.2098736613988876
4.31918212890625,0.5792200569514185,-0.2304951743472367,7.524101957646012,0.6233541965484619,-0.1497550457715988,0.2239367365837097
4.3291611328125,0.7144578908935189,-0.1281696491215378,6.910839711165428,0.6647820472717285,-0.1694019883871078,0.2066853046417236
4.33914111328125,0.8312966562487184,-0.003610591712594,6.031612406092882,0.7154942750930786,-0.1758445650339126,0.1913452595472335
4.349119873046875,0.8144524889536201,0.1029665996082127,5.002451729184389,0.8258301019668579,-0.1180273294448852,0.1987099647521972
4.359099853515625,0.534294508227706,0.3585616553552448,3.981709336531162,0.9637240171432496,-0.0078878477215766,0.2555995881557464
4.369080078125,-0.1137277206625789,0.6867226194888353,2.427497780558467,1.0161250829696655,0.1253415793180465,0.3562841117382049
4.379058837890625,-0.7753535274915396,0.8684498904705047,0.2549620185405016,1.0509628057479858,0.1553504317998886,0.4447346925735473
4.389038818359375,-1.232937721004337,0.9830598738603292,-1.616348570933938,1.0533447265625,0.0580020472407341,0.3909657299518585
4.399017822265625,-1.0511528746165335,1.434936503381282,-3.435796286702156,0.9303064942359924,-0.1061531975865364,0.225073754787445
4.408997802734375,-0.7301201549276709,1.6575057801000772,-5.555471396148205,0.6649706959724426,-0.3156544864177704,0.1273802071809768
4.418977783203125,-0.6136258190959691,0.8906295735746621,-7.994975840842724,0.3207970559597015,-0.543552577495575,0.1444189101457595
4.428956787109375,-0.666948901547864,-0.2082666106000542,-10.665613100200892,0.0129577573388814,-0.7171352505683899,0.2621865570545196
4.43893701171875,-0.8952942774500697,-1.1650529561713336,-13.565857572090623,-0.1456665098667144,-0.8143962621688843,0.3825714290142059
4.448916259765625,-0.6998524424359202,-1.8107766257956623,-16.153403875786065,-0.1414203643798828,-0.7667959928512573,0.3481378257274627
4.45889599609375,-0.2606384567417204,-1.8546464549213648,-18.19825433813333,-0.1409116089344024,-0.5179160833358765,0.149434357881546
4.4688759765625,-0.3473044213470071,-1.482724528864026,-19.660959576797485,-0.3673378229141235,-0.1705820858478546,-0.1032205373048782
4.478855224609375,-0.8916122279364616,-0.9580401450246572,-21.164284410619736,-0.8784716725349426,0.0080593591555953,-0.2840979099273681
4.4888349609375,-1.4247557394981385,-0.992619290974736,-23.158717521893976,-1.3439961671829224,-0.1259487718343734,-0.2830755114555359
4.49881396484375,-1.7360861264705656,-2.068894624149054,-24.47072366504669,-1.3930044174194336,-0.3722124397754669,-0.1878895312547683
4.5087939453125,-1.768523584216833,-2.846360906010866,-24.077499423241616,-1.071977138519287,-0.5328289866447449,-0.1331892758607864
4.51877294921875,-1.7110352718442678,-2.4227505860313774,-22.79714397137165,-0.7123249769210815,-0.4652925133705139,-0.0888333842158317
4.5287529296875,-2.459228843601048,-1.3310963358089327,-21.19663185199499,-0.5382775068283081,-0.1545104086399078,-0.0112720150500535
4.53873291015625,-3.6812872970640655,-0.1615024482723325,-19.03157212494612,-0.5343056321144104,0.2319164872169494,0.0922761633992195
4.5487119140625,-4.578997768810392,0.7079585920020938,-16.330332806575296,-0.6347987055778503,0.5120527744293213,0.1988486796617508
4.55869189453125,-4.711365381078422,1.1124124491561205,-13.378829272091387,-0.7792991399765015,0.5910725593566895,0.2927267253398895
4.5686708984375,-4.346891432939469,0.9847702579747885,-10.369380913639068,-0.8917023539543152,0.5439010858535767,0.4020143449306488
4.578651123046875,-3.779087453819811,0.5804705684691667,-7.256219082733988,-0.9583715200424194,0.4558064043521881,0.5210908055305481
4.588630859375,-3.1511388025999065,0.291367064743489,-4.321006757837534,-0.9999389052391052,0.4180672764778137,0.6583069562911987
4.598610107421875,-2.4189152456521987,-0.0588859772760421,-1.5361135892242193,-1.019144892692566,0.4011690318584442,0.7986708879470825
4.608590087890625,-1.3857288203589615,-0.6870967134982348,0.7959253370076418,-0.990753173828125,0.3613267838954925,0.8833197355270386
4.61856884765625,-0.0740202719133347,-1.22442554792054,2.664054373836517,-0.912678599357605,0.264417439699173,0.9147616624832152
4.6285498046875,0.9644578300472348,-1.744446250797808,4.15277142111361,-0.7601407766342163,0.1686035841703415,0.8986149430274963
4.638530029296875,1.4986644407957792,-2.300962966097146,5.47754176877141,-0.5612137317657471,0.1714139282703399,0.8337715864181519
4.6485087890625,1.669172983148694,-2.619081259644031,6.659964085155725,-0.3736342489719391,0.2311920374631881,0.7537696957588196
4.65848876953125,1.4122563234090804,-2.6424647655799984,7.414731482344865,-0.2420077621936798,0.3199162781238556,0.6817681193351746
4.668468994140625,0.9910537952236832,-2.4974960304141045,7.922915982282161,-0.1708904504776001,0.3990854024887085,0.6368864178657532
4.67844775390625,0.5137747942250221,-2.20637183451578,8.258672369980811,-0.140774205327034,0.4807142615318298,0.6167226433753967
4.688427978515625,0.253443138410151,-1.88555348822996,8.591182323104142,-0.1474137306213379,0.4837284386157989,0.6338958144187927
4.698406982421875,-0.0311026289459317,-1.548375835556537,8.721184083023667,-0.1429911255836486,0.3900565803050995,0.7058343291282654
4.708386962890625,-0.2477635218711569,-1.2397653750672937,8.81211406174898,-0.0764579102396965,0.2398875951766967,0.8046839237213135
4.718366943359375,-0.3972014748729765,-0.9952541695229709,9.025498453754189,0.0714589208364486,0.1165708601474762,0.8999295830726624
4.728345947265625,-0.4154791090372949,-0.8299517444457858,9.28690833325982,0.2744831442832947,0.0619092099368572,0.9567193984985352
4.738325927734375,-0.1693600664375349,-0.7572602369181811,9.336122153761982,0.4736970067024231,0.1075585931539535,0.9512443542480468
4.748304931640625,0.1614483434649184,-0.7256531655814499,9.225062994721531,0.6022693514823914,0.2102306485176086,0.8622806668281555
4.758284912109375,0.336508338577114,-0.7863838939413428,9.008675913769006,0.6479948163032532,0.27552130818367,0.7017918825149536
4.768263916015625,0.5268923422124236,-0.8081902136884629,8.693753639784454,0.6410074830055237,0.344447910785675,0.4634137153625488
4.778243896484375,0.7144802488557994,-0.6641532064147293,8.696194018673896,0.5818856358528137,0.4330606162548065,0.183435782790184
4.788223876953125,0.809612209315598,-0.5273762167392299,8.7552897662431,0.5040619373321533,0.4883467555046081,-0.0785620138049125
4.798202880859375,0.8304990761302411,-0.4584444636039436,8.679527546033263,0.4503599405288696,0.4924652874469757,-0.2940660715103149
4.808182861328125,0.7707246986471116,-0.2382723842199891,8.668086114564538,0.4561168849468231,0.4965814650058746,-0.4274944365024566
4.818161865234375,0.6114408032070845,0.0486050409540534,8.764040643453598,0.5229532718658447,0.5396161675453186,-0.4889789223670959
4.82814208984375,0.4899281277567148,0.21890973129794,8.957972731491923,0.5982376337051392,0.6167436838150024,-0.4763254523277282
4.838121826171875,0.3628237697791308,0.3665092533588409,9.05740341205895,0.6337233185768127,0.790570080280304,-0.437004029750824
4.84810107421875,0.2163875376102514,0.7014976523596793,9.41222105858028,0.6116193532943726,0.9445183873176576,-0.4039304852485657
4.8580771484375,-0.0216088061473332,1.0328749481912702,9.69902139993012,0.5302937030792236,0.9997102618217468,-0.3682896792888641
4.86805615234375,-0.259476956947986,1.0017272379945965,9.876928235840795,0.4236535429954529,0.940614938735962,-0.3317393958568573
4.8780361328125,-0.4405713185872882,0.8836497976899147,10.07791374952197,0.3480976521968841,0.8016005158424377,-0.3096987903118133
4.88801611328125,-0.5327880491875112,0.8202497770555317,10.274216073822975,0.3226908445358276,0.5893130302429199,-0.3097911775112152
4.8979951171875,-0.5565613581586629,0.6755833858370781,10.367296508580443,0.3586309850215912,0.2880866229534149,-0.3282775282859802
4.907975341796875,-0.4027741239061579,0.5484592271804809,10.225756871080398,0.459325909614563,-0.0477981865406036,-0.3496451377868652
4.917954345703125,-0.0405273502973839,0.4608991632796824,9.94264603189826,0.6117845773696899,-0.4368609189987182,-0.370603859424591
4.92793408203125,0.3440172163698822,0.5298275188814848,9.43260450591743,0.7891916036605835,-0.9458571076393129,-0.3957273066043854
4.937913330078125,0.7393028476841748,0.5909508998207748,8.555171683046222,0.9511783123016356,-1.4127548933029177,-0.4482603967189789
4.94789306640625,1.2372035617552697,0.737581869110465,7.683308769261837,0.9758239984512328,-1.410179615020752,-0.5843117237091064
4.957873046875,1.70028883690238,1.1062699278131127,6.320487800151109,1.0689735412597656,-1.2342711687088013,-0.6765177249908447
4.967852294921875,1.053504186983034,1.3085608250044285,5.961691313126683,1.029810667037964,-1.079773187637329,-0.7168925404548645
4.97783203125,0.8552431298296899,1.4600006558805705,3.83141297660172,0.992885410785675,-0.954683482646942,-0.7256031632423401
4.987811279296875,0.8411903468187898,1.3734922929897904,2.101753083786368,0.96680349111557,-0.7909810543060303,-0.6800199747085571
4.997791259765625,0.7304727677576244,1.2429391827978191,0.1437777718156576,0.9394456148147584,-0.6046860814094543,-0.5716836452484131
5.00777099609375,0.431116092499718,1.3234152797870338,-2.212414767941832,0.8738900423049927,-0.5194020867347717,-0.4443198144435882
5.017750244140625,-0.1233725875707343,1.617083022688329,-4.95735528087318,0.780977725982666,-0.5088077187538147,-0.4038257896900177
5.027730224609375,-0.8102328254319727,2.120483649349957,-7.258017656588554,0.7046520113945007,-0.5911992192268372,-0.4533627331256866
5.037708984375,-1.3533173738367854,2.4017190500490364,-9.351016356033089,0.6441757082939148,-0.6307361125946045,-0.5803554654121399
5.047689453125,-1.6754536708533765,2.21511321324557,-11.196138026762007,0.5464667081832886,-0.2746701538562774,-0.7215951681137085
5.05766943359375,-1.6443696735426785,1.2613671121530234,-12.26922201654911,0.339567482471466,0.362060546875,-0.8935251832008362
5.067648193359375,-0.6755832397066056,-0.0886664177075028,-13.21162795459032,-0.0369890965521335,0.8705874681472778,-1.1301288604736328
5.07762841796875,1.1301049038436264,-1.2640623425863682,-14.912617048716545,-0.5736327767372131,1.1045938730239868,-1.2995740175247192
5.087607177734375,2.651283739590645,-2.734017552378773,-16.850872930216788,-1.0187050104141235,0.9897935390472412,-1.2580841779708862
5.097587158203125,3.224580178646743,-3.8074236137270927,-18.05975070732832,-1.162857174873352,0.6380226612091064,-0.9464980959892272
5.1075673828125,2.5866563691183924,-3.781834998962283,-18.127655784296987,-1.0858200788497925,0.0269166901707649,-0.3722893893718719
5.117546142578125,1.0698284951224923,-3.4477123499453066,-18.558548954761022,-0.909291446208954,-0.6677032709121704,0.3990786373615265
5.127526123046875,-0.6526775073502212,-3.46109673217535,-19.03313630552292,-0.6466339826583862,-1.2820311784744265,1.1972812414169312
5.137505126953125,-1.9336632930129765,-3.156785284054279,-18.82537384505272,-0.3346521854400635,-1.6762017011642456,1.8249773979187007
5.147485107421875,-2.998541472251713,-2.4605519088983536,-17.813295235848425,-0.0608421973884105,-1.686184048652649,2.153897285461426
5.157465087890625,-3.8607209041506048,-2.088041077037156,-16.20352896591425,0.089312307536602,-1.3165524005889893,2.0768790245056152
5.167444091796875,-4.4380742173820735,-1.9373694540545343,-14.265270746326443,0.0224421955645084,-0.6602180004119873,1.5697442293167114
5.17742431640625,-4.54566394674629,-1.6972678816460072,-12.154066528105735,-0.3148804306983948,-0.0548151358962059,0.7485477328300476
5.1874033203125,-4.0917733470544215,-1.4774229153245686,-10.73033136382699,-0.8085501194000244,0.371667206287384,-0.1979357302188873
5.19738330078125,-3.360509867310524,-1.2699915865048763,-9.375306747680902,-1.3021962642669678,0.6018362045288086,-1.0772771835327148
5.20736328125,-2.6605527954563497,-1.0505620691165327,-7.976296274814009,-1.6485861539840698,0.6769631505012512,-1.7248929738998413
5.217342041015625,-2.129628348183632,-0.7179719634290784,-6.543487577241659,-1.822781324386597,0.6678341627120972,-2.0606093406677246
5.227322265625,-1.777867166623473,-0.4831765346046537,-5.086500716224313,-1.8534871339797971,0.6299930214881897,-2.066884279251098
5.23730126953125,-1.4531566352047025,-0.4505483765918761,-3.5800241403728723,-1.772803544998169,0.57860267162323,-1.808021903038025
5.247281005859375,-1.1220181896302848,-0.4878298403032123,-1.965645408207178,-1.602287769317627,0.5414731502532959,-1.4115173816680908
5.25726123046875,-0.8174341351129114,-0.7034804967399686,-0.2608925776332617,-1.3608922958374023,0.5041906833648682,-0.9950006008148192
5.267240234375,-0.3781337497768923,-1.1031864287145434,1.3668828117221592,-1.0643659830093384,0.5279431343078613,-0.6667507886886597
5.277219970703125,0.1607546438460238,-1.5360941538713873,3.1048201190173623,-0.7449009418487549,0.6240889430046082,-0.4674883782863617
5.28719921875,0.6680956604301929,-1.9915601861864327,4.7654719420582055,-0.442201554775238,0.7483546733856201,-0.4062511026859283
5.297178955078125,1.3075403959155083,-2.374354657783359,6.048481707829237,-0.1851337552070617,0.8782028555870056,-0.4251867532730102
5.3071591796875,1.675452647940069,-2.503157417176664,7.178709726595878,-0.0058388332836329,1.0099446773529053,-0.445899486541748
5.317138427734375,1.5348082057140766,-2.315489357969165,8.156535937586426,0.0857395604252815,1.2195032835006714,-0.5703409910202026
5.3271181640625,1.6960674198150634,-1.8510934386149047,9.225952637037636,0.1108417212963104,1.3362983465194702,-0.6868255138397217
5.33709716796875,1.0989313285533338,-1.495592778265476,9.919996977716684,0.1041015684604644,1.3405616283416748,-0.7607207894325256
5.347077392578125,0.4669267530061304,-1.1432695058431477,10.479885945928096,0.0934625044465065,1.25694739818573,-0.8197287321090698
5.35705615234375,0.0919682357318699,-0.7045483451671898,10.906413906919957,0.0995596274733543,1.0407326221466064,-0.8542056083679199
5.3670361328125,-0.1903016225814819,-0.435119665585272,10.836493398475646,0.1483242213726043,0.780163586139679,-0.8370751142501831
5.377016357421875,-0.3516706537324935,-0.4248704761084169,10.60471877877712,0.2346405982971191,0.5400391817092896,-0.7780694365501404
5.3869951171875,-0.5360121258005499,-0.3776301476363092,10.329013831937312,0.2937598526477813,0.1427682042121887,-0.6588575839996338
5.39697509765625,-0.8738063029371201,-0.2179568144872784,9.622160863089562,0.3290981352329254,-0.3212683796882629,-0.5254177451133728
5.4069541015625,-0.793615525695309,-0.4967163631247356,8.981261252620815,0.364647626876831,-0.6827993988990784,-0.4472456872463226
5.41693408203125,-0.6376247535165399,-0.7621487396121025,8.711977863261103,0.3891153633594513,-0.9051195979118348,-0.4057140052318573
5.4269140625,-0.4846478127336129,-0.7185959405463188,8.460196228322387,0.378896564245224,-0.8413723111152649,-0.4316712915897369
5.43689306640625,-0.1508546879319474,-0.6755092246223241,7.905830991968512,0.4403207302093506,-0.7327417731285095,-0.4860251843929291
5.446873291015625,-0.430737285782583,-0.9006735593356192,7.986419609421491,0.4558418989181518,-0.6170982718467712,-0.5537965297698975
5.456852294921875,-0.1949052439194172,-0.8029648802556097,7.135406006920337,0.4772923290729522,-0.5031599998474121,-0.6164673566818237
5.466832275390625,0.0453326682198792,-0.7889339437503368,6.7487792636841535,0.521877110004425,-0.3531233668327331,-0.657990038394928
5.476812255859375,0.2313548233838751,-0.7896929454240947,6.65353960506618,0.6261101365089417,-0.1896703094244003,-0.6836579442024231
5.486791015625,0.50995552819781,-0.7087593139257281,6.647635349458455,0.7579762935638428,-0.0323187634348869,-0.6949481964111328
5.496771240234375,0.8171456735603511,-0.5644965350721031,6.676657445803285,0.8811553716659546,0.1002024784684181,-0.6953073740005493
5.506750244140625,1.0874508071832358,-0.3380800814058631,6.718428549084067,0.9774584770202636,0.188139796257019,-0.6874648928642273
5.51672998046875,1.2540984363242984,-0.0446104914251714,6.7227353063672775,1.0607640743255615,0.2423811703920364,-0.6529818177223206
5.526710205078125,1.3229758654564618,0.2082202141750603,6.826998229396343,1.1536152362823486,0.2855065464973449,-0.5953728556632996
5.536689208984375,1.2476532057076692,0.4957029117658734,6.956549322938919,1.2650762796401978,0.3250044584274292,-0.5195379853248596
5.5466689453125,1.130632288718596,0.7811636750750243,7.089693472537398,1.3738754987716677,0.3846081495285034,-0.4356550872325897
5.556648193359375,1.0156736380215734,1.047521386246383,7.211352351525425,1.4609829187393188,0.4153792560100555,-0.3415907621383667
5.5666279296875,0.935685543745011,1.3336445589870214,7.105676054567098,1.5082902908325195,0.3818082511425018,-0.2480245977640152
5.576608154296875,0.863599381699413,1.5062329763539135,6.796702459853887,1.514378547668457,0.3316699266433716,-0.1683866381645202
5.58658740234375,0.8113247853871435,1.7082653687395155,6.410816890373826,1.4935059547424316,0.2281909137964248,-0.1415963023900985
5.596567138671875,0.8345329347562045,2.036924491653591,5.797107484647631,1.4629346132278442,0.0206292010843753,-0.1320681571960449
5.60654638671875,0.890804857076332,2.3582626240298152,4.7951948801487685,1.4554632902145386,-0.2632515132427215,-0.0958955064415931
5.6165263671875,1.041499714804068,2.505748894974589,3.4083833791196345,1.4595305919647217,-0.5108886957168579,-0.0289918687194585
5.626506103515625,1.283236706394702,2.541277596734464,1.7064274857878683,1.4779613018035889,-0.734061062335968,0.0987186878919601
5.6364853515625,1.4471436585254966,2.6105247359618544,-0.4164215775191783,1.4901089668273926,-0.8192686438560486,0.2983945608139038
5.64646533203125,1.4146056630142032,2.9030612828761337,-2.4793057092070576,1.456699252128601,-0.7070779204368591,0.5766986012458801
5.656444091796875,0.8404103023570031,3.286719823956489,-4.311505939042568,1.3064565658569336,-0.4948058724403381,0.936350643634796
5.66642431640625,-0.0178803602087311,3.278114492696524,-6.176833946976065,1.0274343490600586,-0.3927325010299682,1.3111135959625244
5.676404052734375,-1.0160277852214872,2.6575916075631976,-8.281220886397362,0.7065469026565552,-0.3018667101860046,1.5673617124557495
5.686383056640625,-1.5975832263179122,1.303506902615726,-9.836135622203347,0.4078941643238067,-0.0672808364033699,1.5936670303344729
5.696363037109375,-1.38411393250823,-0.2889560580790042,-11.029331846058367,0.0912659987807273,0.2613958120346069,1.3700371980667114
5.706342041015625,-0.5849375212827697,-1.6621654424741863,-12.550835310649871,-0.3380334377288818,0.6074181795120239,0.9556002616882324
5.716322265625,0.6760165165573359,-2.843971672786772,-14.437192662608622,-0.8882701992988586,0.8601247072219849,0.4073565602302551
5.72630224609375,2.077528158590197,-3.7870001266404985,-16.382766758167744,-1.4455903768539429,0.9775115251541138,-0.2165501415729522
5.73628125,3.119627227526903,-4.218203093706071,-17.8912657797575,-1.9109176397323608,0.7724087834358215,-0.702447235584259
5.74626123046875,3.5643498936399816,-4.722638470242917,-19.768027620375157,-2.1511030197143555,0.218387633562088,-0.835527777671814
5.756240234375,3.419022846555709,-5.553448950409889,-21.634880645918845,-1.9803308248519895,-0.2927842438220978,-0.6095635890960693
5.76622021484375,2.7339468252301216,-5.414836014011502,-21.60577847007513,-1.4594255685806274,-0.4493253827095032,-0.161110445857048
5.7762001953125,1.101218781903386,-3.82607862983644,-19.95098764802217,-0.8835216164588928,-0.1478662192821502,0.3804194927215576
5.78617919921875,-1.236858109318465,-2.065653011879325,-17.49085191870928,-0.5049871206283569,0.410962700843811,0.898181676864624
5.7961591796875,-3.401813937601447,-1.1708680721908806,-14.73513399117589,-0.4085055291652679,0.997163712978363,1.174463987350464
5.806137939453125,-4.378999804861843,-0.4345930478952824,-11.566211694604158,-0.6136235594749451,1.3310800790786743,1.1177862882614136
5.8161181640625,-4.410704856680334,0.0991382734917104,-8.720440571179985,-1.0274792909622192,1.314321756362915,0.795616626739502
5.826098388671875,-3.996854298692941,-0.2325399049825966,-6.495794098174572,-1.4977182149887085,1.08614981174469,0.3192047476768493
5.836076904296875,-3.42319019536823,-0.9761275903791188,-4.579772844836116,-1.851638913154602,0.772196888923645,-0.2367548644542694
5.84605712890625,-2.736482773448526,-1.4932095363907516,-3.0410312451958657,-2.0309016704559326,0.5400278568267822,-0.8217088580131531
5.8560361328125,-1.855806146350503,-1.7986539340645074,-1.8740631030529735,-2.028029441833496,0.4957261383533478,-1.342915654182434
5.866015869140625,-0.914825784133002,-2.0158686980128286,-0.941160321894288,-1.9192345142364504,0.6779998540878296,-1.679011344909668
5.87599609375,-0.3588793430022895,-2.2496130103491248,-0.102763624382019,-1.7605551481246948,0.9362412095069884,-1.7821489572525024
5.88597509765625,-0.2913066397931426,-2.3948778058521447,0.4977782567352056,-1.5474982261657717,1.2830524444580078,-1.6791561841964722
5.895954833984375,-0.4466325913876295,-2.638788707415759,1.658145393177867,-1.295031189918518,1.667230486869812,-1.4152681827545166
5.90593408203125,-0.7417568167075514,-3.1090611175879834,3.1527696186721323,-1.0193549394607544,2.023875951766968,-1.061989188194275
5.9159140625,-0.9783132638551294,-3.575607785235345,4.747622397112846,-0.7575125694274902,2.265698909759521,-0.6993778944015503
5.92589404296875,-1.1748648867420852,-3.79649042404145,6.163057350558042,-0.5217173099517822,2.330629587173462,-0.3886858224868774
5.935873291015625,-1.4847209633782503,-3.875579742847383,7.299097270473838,-0.367183119058609,2.2189290523529053,-0.1453388333320617
5.94585302734375,-1.989535986882448,-3.742840959179401,7.9642457715362305,-0.2329893857240677,1.9750359058380127,-0.0305898748338222
5.95583203125,-2.2194845601975914,-3.6674157158389686,8.598878722825646,-0.105092205107212,1.534204125404358,-0.0283944960683584
5.965812255859375,-2.40216635542512,-3.4397511618077754,8.830283340167998,0.034835334867239,0.9933294057846068,-0.1019217148423194
5.9757919921875,-2.26201934132725,-3.121710463541746,9.09724033240676,0.2132641375064849,0.4555433392524719,-0.2378990799188614
5.98577099609375,-1.899506756389141,-2.611153973776102,9.291693813970683,0.4194697737693786,-0.0592537075281143,-0.410613864660263
5.995751220703125,-1.7113626041024923,-1.9952023420810696,9.17411489777267,0.6193835139274597,-0.5147724747657776,-0.5321105122566223
6.00572998046875,-1.8518021714061497,-1.6241260730676352,8.7863594427675,0.7365368008613586,-0.8940892219543457,-0.5515760779380798
6.0157099609375,-2.244924414141476,-1.2590263942457736,8.141158335712552,0.7804644703865051,-1.1234395503997805,-0.4776797890663147
6.025690185546875,-2.6301211245745417,-0.8509165718674659,7.710956654644012,0.7758718132972717,-1.1806777715682983,-0.3379836678504944
6.0356689453125,-2.9711440544992684,-0.4716038779716938,7.527863940528035,0.7268191576004028,-1.112767219543457,-0.1727145165205001
6.045649169921875,-3.3022797966599464,-0.1391303478686139,7.41371675234437,0.6431959271430969,-0.9931619763374328,-0.0088978772982954
6.05562890625,-3.542467439916729,0.1046250343397259,7.431812381005287,0.523728609085083,-0.8800024390220642,0.1452195197343826
6.065608154296875,-3.712525315892696,0.2707742855045944,7.648405798184871,0.3818734884262085,-0.805436372756958,0.2831999957561493
6.075588134765625,-3.852631705719233,0.311841112973541,8.115722865682839,0.2296009659767151,-0.833882749080658,0.3954293429851532
6.085567138671875,-3.791356860545277,0.3038873774901032,8.521050217735766,0.0802711471915245,-1.0098851919174194,0.4924131333827972
6.095547119140625,-3.467338841435313,0.1982099845532327,8.746266501832007,-0.0300772413611412,-1.377200722694397,0.5834929943084717
6.10552685546875,-2.8113676263019443,-0.0652669104848056,8.622180687958002,-0.0297592598944902,-1.87994396686554,0.6305742263793945
6.115506103515625,-1.6508908920049667,-0.341746056567505,8.403597558265924,0.1190589442849159,-2.3831069469451904,0.5726523399353027
6.125486083984375,-0.5518031307809055,-0.077767860943824,8.400504852947591,0.3999103307723999,-2.7269763946533203,0.4513850510120392
6.13546484375,0.3367136884234845,0.1937413147065788,8.03276576553285,0.7941917777061462,-2.6688265800476074,0.3096454441547394
6.145445068359375,0.7805434973500669,-0.0734646107919514,8.164877649474143,1.247621774673462,-2.2693586349487305,0.2047486007213592
6.15542529296875,0.6367226170450448,-0.1960280374042689,8.358281914246081,1.6218454837799072,-1.6637872457504272,0.1156398952007293
6.165404052734375,0.4433851704316213,0.4840247489318251,8.12963273309171,1.840215921401977,-1.0850517749786377,0.0952414125204086
6.17538427734375,-0.2370695843014865,1.4404068976163864,7.642406850031017,1.9169121980667116,-0.7104931473731995,0.1394692212343216
6.185363037109375,-0.7442831203147768,1.9012962701544165,7.003173126947879,1.7191178798675537,-0.6250712275505066,0.3069604933261871
6.195343017578125,-1.397032304661721,2.115073753130436,5.730502968883514,1.36845862865448,-0.651853621006012,0.4956434667110443
6.2053232421875,-1.292270784460753,2.4778996418014168,5.217649892613292,1.036623477935791,-0.7014933228492737,0.5503231883049011
6.215302001953125,-0.4996832866389304,3.1360330034047363,4.684638409933448,0.8418489694595337,-0.721470057964325,0.5279550552368164
6.225281982421875,-0.2828096277458593,3.5413574328482147,4.099423861807584,0.8540550470352173,-0.6790355443954468,0.518869936466217
6.23526123046875,-0.381325568088144,3.5380502079963683,3.626787645113468,1.0361723899841309,-0.6312009692192078,0.5822517275810242
6.245240966796875,-0.7090904455762356,3.3531028059244155,2.993179360696673,1.2903378009796145,-0.5316964983940125,0.7187150120735168
6.255220947265625,-0.9528770631730556,3.084393417060375,2.4149334825396536,1.4866721630096436,-0.1903321593999862,0.8497706055641174
6.265199951171875,-0.814935230969265,2.9386329469949004,2.2842916711509225,1.4529792070388794,0.3695977330207824,0.9485528469085692
6.275179931640625,-0.5607585906527937,2.999403349778056,2.062614667096734,1.0893977880477903,0.9304683208465576,0.9474102258682252
6.285158935546875,0.220419076414965,2.9638024595648047,1.0209142420887949,0.4282752573490143,1.2757151126861572,0.8635299801826477
6.29513916015625,0.924531770111248,2.7306553824692963,-0.8187351347088814,-0.4130074083805084,1.3042380809783936,0.73076331615448
6.305119140625,0.8585024969518185,2.283045762743056,-2.444598552963137,-1.3204115629196167,1.0237971544265747,0.5670135617256165
6.31509814453125,0.6421894310835748,1.929236270350963,-3.9875568935155865,-2.159163475036621,-0.2635499536991119,0.3560521006584167
6.325078125,0.8747852309718728,1.337598118918389,-8.347937630364298,-2.577012300491333,-2.009127140045166,0.1791495233774185
6.33505810546875,1.4325107375390826,-0.7407727741062641,-12.10804711973071,-2.425785779953003,-3.0881855487823486,-0.0416884310543537
6.345037109375,2.308724540009349,-2.4293660586483776,-13.560241485774515,-1.897428035736084,-3.3085596561431885,-0.35539710521698
6.35501708984375,2.7537752690330146,-1.2712801650106906,-15.19243235348463,-1.3780540227890017,-2.652565717697144,-0.5034472942352295
6.36499609375,1.552119259868562,1.5992760017104446,-16.65784392849803,-1.0884078741073608,-1.3191823959350586,-0.3718530237674713
6.374975830078125,-0.7836553457602858,4.031787664908171,-16.892469845974443,-1.0704649686813354,0.167788490653038,-0.0860658884048461
6.3849560546875,-3.167127229848504,5.140249257546663,-16.041092670857907,-1.2084603309631348,1.2165786027908323,0.1188268065452575
6.39493505859375,-4.8188519423291085,5.49665680360794,-14.728689052820204,-1.40522038936615,1.8320536613464355,0.0800767466425895
6.404914794921875,-5.094483531671762,5.346964254790544,-12.488533460515736,-1.6773676872253418,1.979934930801392,-0.1273664534091949
6.41489404296875,-4.601217491663992,4.533101986815035,-10.925700791192057,-2.0426025390625,1.7547309398651123,-0.3650092184543609
6.424874267578125,-3.268681478440761,3.181151663547754,-10.144957241225242,-2.4266433715820312,1.1135085821151731,-0.5977133512496948
6.43485400390625,-0.7432197288669645,2.2089504528321324,-10.343765995389225,-2.6486599445343018,0.230254516005516,-0.7772101163864136
6.444833251953125,1.8161179868236184,2.0093024713650345,-10.911092420125009,-2.5712711811065674,-0.5719066262245178,-0.7447853088378906
6.454813232421875,2.76178380344361,1.8038241763092575,-10.967603996419903,-2.300764560699463,-0.9501017928123474,-0.4525601267814636
6.4647919921875,2.6112629871085287,1.6150301818117498,-10.694697740387916,-1.9372450113296509,-0.9033766388893129,0.1158998534083366
6.474772216796875,1.4603784031517804,1.2868376534961163,-10.304695383238792,-1.6677647829055786,-0.4457326233386993,0.8958942294120789
6.484751953125,-0.2078996769838035,0.510087922405824,-9.078380149114132,-1.5968035459518433,0.0930850356817245,1.7511014938354492
6.49473095703125,-1.270611764229834,-0.6861285260532051,-7.571715357214212,-1.7742927074432373,0.6325750350952148,2.5340073108673096
6.504711181640625,-1.5775696352064608,-2.4409425146736203,-5.278934090137481,-2.076063394546509,0.963796854019165,3.061456680297852
6.51469091796875,-0.8793034390486776,-4.342548143038154,-3.024260727658868,-2.271975517272949,1.0163546800613403,3.2706902027130127
6.524669921875,0.1657453282727859,-6.121655080589652,-0.8809253411620854,-2.117058515548706,0.8767813444137573,3.1979494094848637
6.534650146484375,0.9499858717761932,-7.61655286232829,1.1738006185114382,-1.5851579904556274,0.8332180976867676,2.8278231620788574
6.54462890625,1.2769568954728543,-8.324944292789697,3.550968726280332,-0.9003132581710815,0.8884238004684448,2.238771677017212
6.554609130859375,1.206627075575292,-8.395622926124929,5.369064442917704,-0.301001638174057,0.7787758708000183,1.5815017223358154
6.56458935546875,1.0594241516165437,-7.854719813412427,5.878526707705855,0.0663801133632659,0.654242217540741,0.9881880283355712
6.574568115234375,1.0065635721098631,-6.8789639789551495,5.640594734421372,0.28562131524086,0.2999449670314789,0.334689199924469
6.584548095703125,0.4315176590379327,-5.111128377002477,4.619626131796837,0.531031608581543,-0.0060817981138825,-0.213809072971344
6.594527099609375,0.3465323775285854,-4.339469466245174,5.1887978921383615,0.7730878591537476,-0.1093850880861282,-0.5571221113204956
6.604507080078125,0.3801566704392433,-4.205389497101307,5.97816372449994,0.923613965511322,-0.169317677617073,-0.7006747126579285
6.614487060546875,0.0366567559417337,-3.739237966251373,6.018500995585322,1.000723958015442,-0.2130891233682632,-0.6779146790504456
6.624466064453125,-0.3825040007503703,-3.3689681913152336,5.916103866428137,1.013627529144287,-0.1727933585643768,-0.5706095695495605
6.634446044921875,-0.4322092945639044,-3.07934899315238,5.959156826213002,1.014467477798462,0.0393433272838592,-0.4545705616474151
6.644426025390625,-0.2192472378903068,-2.618725285813212,6.329931920322776,0.9877671003341676,0.5204036831855774,-0.4060078263282776
6.654405029296875,-0.1565354735147208,-1.8081513918586076,7.141601938951015,0.8788763284683228,1.0040403604507446,-0.3940451741218567
6.66438525390625,-0.515406048688665,-1.0728623829256745,7.557199340605735,0.7165963649749756,1.3468477725982666,-0.335549384355545
6.67436376953125,-1.358900142405182,-0.7104202328752726,8.140184522244335,0.5753396153450012,1.5736349821090698,-0.1890781670808792
6.68434423828125,-2.2386397809140384,-0.6002794307887553,9.120859108403325,0.5048454999923706,1.6717923879623413,-0.0061317784711718
6.69432421875,-2.5560084251374007,-0.6467720826987177,9.81627123030424,0.536109447479248,1.7088855504989624,0.1448034197092056
6.704302978515625,-2.488158877748251,-0.8142765478648245,10.249320117497444,0.6170032024383545,1.6345585584640503,0.2012738734483719
6.714283203125,-2.228391504752636,-0.9698837275534868,10.30980994977355,0.7088351249694824,1.4018689393997192,0.3081112504005432
6.724261962890625,-2.3346456015989183,-1.731260606010258,10.179783055412768,0.7278972268104553,1.311712384223938,0.5187212228775024
6.734241943359375,-1.942703070167452,-2.2532252094969154,10.273428138315676,0.7046491503715515,1.0345847606658936,0.5671296119689941
6.74422216796875,-1.5828730023115871,-1.2628123425252735,9.406088839435576,0.7333961129188538,0.8261873722076416,0.5070912837982178
6.754200927734375,-1.3005978833012282,-0.931187355542928,9.83540847697258,0.7718334794044495,0.5675727128982544,0.4101751744747162
6.764180908203125,-1.2842422301754357,-1.5147916919931768,9.55552595218718,0.7609366178512573,0.1283674091100692,0.2715229988098144
6.774160888671875,-1.1229133118391037,-1.9340996386036275,8.692292919582128,0.686505138874054,-0.4057010114192962,0.1241094470024108
6.784138916015625,-1.1522517806567252,-2.1688164492338893,8.039801655519009,0.6136053800582886,-1.0904804468154907,0.0140862734988331
6.7941181640625,-1.263018386491388,-2.083212195575982,7.24101566838324,0.6393609046936035,-1.9388271570205688,-0.0705336704850196
6.804097900390625,-1.232910394605994,-1.7354843611851334,6.401959630179404,0.8067275285720825,-3.0271358489990234,-0.1117239817976951
6.814077880859375,-0.9846662861436604,-1.4069057561613618,5.032255331295729,1.1743862628936768,-4.086823463439941,-0.0898539647459983
6.82405712890625,-0.2220765978310257,-1.4178566276341675,3.372343512967229,1.5752739906311035,-4.173753261566162,-0.0994506627321243
6.834037109375,1.2773450180076062,-1.6433571354992689,0.8718979850977658,1.8332823514938357,-3.146315574645996,-0.2563440203666687
6.84401708984375,1.9144972586415707,-1.535752500826865,-2.1772107680916784,2.202990770339966,-1.978165626525879,-0.2652144730091095
6.853996337890625,0.4827393122311681,-0.8693341259591281,-5.538679251301288,2.042455673217773,-0.645168662071228,-0.2952612936496734
6.86397607421875,-0.4964668088104575,0.5116275530632585,-9.340656874582171,1.6412968635559082,0.5281774997711182,-0.3140555024147033
6.873955078125,-2.4954952119857072,1.609744642624259,-10.151254880064725,1.1513293981552124,1.1710143089294434,-0.365147590637207
6.88393505859375,-3.7346149826258417,2.706047595435381,-10.695665708637238,0.6828659772872925,1.5155173540115356,-0.4884290397167206
6.8939150390625,-3.309244374975562,2.890824317115545,-10.076039772343634,0.2437353581190109,1.4935649633407593,-0.6662817597389221
6.90389404296875,-1.570372124917805,2.0414105510264635,-9.669472064840791,-0.1941482424736023,0.9209302067756652,-0.8684138059616089
6.9138740234375,0.7142620029952377,1.1042043005201965,-10.148121842736003,-0.5402854084968567,-0.2897414863109588,-1.01888108253479
6.92385400390625,2.8923955119550224,-0.2231151470985263,-11.46141510308981,-0.5542497038841248,-1.715601086616516,-1.0074323415756226
6.9338330078125,3.7416599327012894,-1.41774030777812,-12.488746226483585,-0.2807610630989074,-2.8758060932159424,-0.7720714211463928
6.94381298828125,2.7467688974022866,-1.4035843566536903,-13.95471894251108,0.0271754711866378,-3.6535074710845943,-0.3769978582859039
6.9537919921875,1.0252949413910508,-1.1051008109685032,-16.910917356812952,0.2285056561231613,-3.929206371307373,0.1177155897021293
6.963771728515625,-1.0984629073239862,-1.1469424222022295,-19.76556327608824,0.3709408342838287,-3.7486743927001953,0.5299886465072632
6.973751953125,-2.73711961004734,-0.622414105707407,-20.96349646533728,0.4288774728775024,-2.953687191009521,0.6868932843208313
6.983731201171875,-3.52644627944231,0.5044270470999181,-20.1832439137578,0.2562444508075714,-1.6094499826431274,0.59688401222229
6.9937109375,-3.7598388557314872,1.2744681473970412,-18.902988999652862,-0.1782300621271133,-0.117135502398014,0.4194167256355285
7.00369091796875,-3.712327162972093,1.049418159778416,-17.496653882986305,-0.670482337474823,1.0025029182434082,0.112769715487957
7.013670166015625,-2.885003648138046,1.4021090234041214,-15.630965225046872,-1.0138249397277832,1.655896782875061,-0.2356331348419189
7.02364990234375,-2.2162176673561333,1.9600284451082348,-12.510108163464068,-1.2429594993591309,1.8863760232925413,-0.4490031898021698
7.033629150390625,-1.9531421927258368,2.001148098742962,-9.03382789068222,-1.4384673833847046,1.7649681568145752,-0.5105822682380676
7.043609130859375,-1.3039035007178783,2.0521186997845766,-6.187199273645877,-1.590939998626709,1.42832350730896,-0.4461084902286529
7.0535888671875,-0.2700471402738243,1.87866767423898,-3.800757726097107,-1.6693350076675415,1.075534701347351,-0.2498520165681839
7.063568115234375,0.5477124274011701,1.5766164261348543,-1.5656266839563846,-1.684388279914856,0.7620236873626709,0.0443652272224426
7.0735478515625,0.9153575529221444,1.468043384821713,0.3887012114226817,-1.6635401248931885,0.473482996225357,0.3975957036018371
7.083528076171875,0.7223641339734196,1.3638161176279189,2.04522104922533,-1.5978282690048218,0.0739598274230957,0.788431704044342
7.093507080078125,-0.0012052110712975,0.7145806404903531,3.072830405038595,-1.432782530784607,-0.3108227849006653,1.2021756172180176
7.103487060546875,-0.490494529467821,-0.1912067912602797,4.124634290909767,-1.1778671741485596,-0.5317825675010681,1.5399725437164309
7.113466064453125,-0.0085983169972896,-0.9254854906395076,5.051490777641535,-0.90249502658844,-0.6413551568984985,1.722423076629639
7.1234462890625,0.8960677460405975,-1.6399474731862544,5.421430589970946,-0.6731305718421936,-0.55666583776474,1.7744709253311155
7.133426025390625,1.5192374193556606,-2.2168758390039205,5.93374122992754,-0.5013927221298218,-0.3634062707424164,1.7208870649337769
7.143405029296875,1.51475749746263,-2.4551152708023785,6.526437658241391,-0.3916100561618805,-0.1256467252969741,1.5986841917037964
7.153385009765625,0.8870699813969433,-2.474755206295848,7.291876671570539,-0.32902991771698,0.1074639782309532,1.381373405456543
7.163364990234375,0.1287896807160228,-2.438953532813489,8.064047038981318,-0.2991633713245392,0.2251879572868347,1.0554767847061155
7.173343994140625,-0.3339747649788856,-2.528461369781196,8.586872643211484,-0.2652781009674072,0.210382655262947,0.6808687448501587
7.18332373046875,-0.5983658522523939,-2.654439865534008,9.010425972306727,-0.2115077823400497,0.0793612524867057,0.2765055000782013
7.193302978515625,-0.5783767379950732,-2.5025480531066653,9.17275413081348,-0.1325601786375045,-0.1567657142877578,-0.1036901548504829
7.203282958984375,-0.3649713762670755,-2.315164363798499,9.000413696858287,-0.027701674029231,-0.3378050029277801,-0.4025194346904754
7.213262939453125,-0.0786558958247304,-2.1061054337769747,8.823245112094282,0.0831059664487838,-0.3898058235645294,-0.60951167345047
7.223241943359375,0.0041438218064606,-1.84787564561218,8.642826585623622,0.155442476272583,-0.2487698793411255,-0.7805300354957581
7.23322216796875,0.395501027630642,-1.5120970460817218,8.55248931209445,0.1642960458993911,-0.0118717569857835,-0.9299944639205932
7.243201904296875,0.7157284953512251,-1.2011545624483375,8.221285765394567,0.1157961636781692,0.2136013209819793,-1.028473734855652
7.25318115234375,0.7115294362261891,-1.1608513397630302,7.966756293052434,0.078188233077526,0.3876339197158813,-1.0640721321105957
7.2631611328125,0.6610097938224673,-1.2334312036097048,8.029314163774252,0.0840128362178802,0.5399571657180786,-1.0752116441726685
7.27314013671875,0.7860848379295319,-1.172033974165097,8.41779734853208,0.1116314232349395,0.652611494064331,-1.0742067098617554
7.2831201171875,0.9708733961779624,-1.0861901395976543,8.752170757439732,0.1363032162189483,0.7149441242218018,-1.038231372833252
7.293099853515625,0.9903680779818445,-1.0255661595478651,9.032295274287462,0.1339590102434158,0.7624355554580688,-0.9770979285240172
7.3030791015625,0.9499882829289884,-0.9166627903018146,9.325009808117152,0.1089716255664825,0.8030937910079956,-0.90449059009552
7.31305908203125,1.1184240375958383,-0.806096967736259,9.598525135958194,0.0945412665605545,0.8277141451835632,-0.8027635812759399
7.323038818359375,1.35215724401623,-0.68670208815746,9.71753729982972,0.1414163708686828,0.8602257370948792,-0.657811164855957
7.33301806640625,1.3208593116939067,-0.5082885448336601,10.159830985230206,0.2101631164550781,0.8702598810195923,-0.4981826245784759
7.342998291015625,1.1428498921915888,-0.4040929148871451,10.37394369150996,0.2350109368562698,0.8445166945457458,-0.3096798062324524
7.35297802734375,0.8677555515307933,-0.5000782042406499,10.324967771416905,0.2268706560134887,0.7520084381103516,-0.1191202402114868
7.36295703125,0.6917360637366772,-0.6547832474578171,10.193293694370984,0.2169860601425171,0.5345405340194702,0.0644274875521659
7.372937255859375,0.5713606486879289,-0.8211641884867101,9.898677126312256,0.2440869510173797,0.2178071588277816,0.2229440212249755
7.382916015625,0.4719806023295969,-1.113539699620381,9.641225629043578,0.3154277205467224,-0.218225821852684,0.328599065542221
7.39289599609375,0.4963189247723668,-1.3972446322381495,9.149430538371204,0.404896467924118,-0.7898319363594055,0.3758807182312011
7.4028759765625,0.6674326664768159,-1.7295386045232417,8.223914944854378,0.4902155995368957,-1.466771125793457,0.3633465468883514
7.41285498046875,0.9718063661791384,-1.9962436678275464,6.983625545912981,0.5913126468658447,-2.260457992553711,0.3180740177631378
7.4228349609375,1.2545362432196736,-2.2131392828240988,5.371895282429456,0.6049967408180237,-2.426041603088379,0.2112125307321548
7.43281494140625,1.811305325844884,-2.341173542062938,2.6819612019270656,0.8980706930160522,-2.00613784790039,0.059075728058815
7.4427939453125,0.954723056365922,-2.427223639792204,1.3694932864814997,1.123285174369812,-1.657788634300232,-0.0939764082431793
7.45277392578125,0.042508039253205,-2.0343144552856685,-3.518379877364635,1.164222002029419,-0.9145948886871338,-0.3195523917675018
7.4627529296875,-0.3605414309956133,-1.6589577324740588,-7.410344061040877,1.02815842628479,-0.290655642747879,-0.5421959161758423
7.472733154296875,-1.3665632243789732,-0.8708685689847916,-11.725504430937766,0.8370346426963806,0.1702747792005539,-0.692720353603363
7.482713134765625,-2.442477323025465,0.6431440283946692,-14.99835939567089,0.6546707153320312,0.966017723083496,-0.6995260715484619
7.492692138671875,-3.675229312199354,1.4960356997273865,-15.465399399793148,0.4834218621253967,1.811113953590393,-0.5723722577095032
7.502672119140625,-3.4524846789136525,1.1330344544894992,-14.870629672336577,0.3549011647701263,2.01783299446106,-0.4352477192878723
7.51265185546875,-1.918627051922679,0.8119963279731571,-14.49721253928542,0.2384460717439651,1.4205710887908936,-0.3226934671401977
7.522631103515625,-0.155460830020532,0.5536497450282797,-14.446395375239849,0.1331316232681274,0.2413249313831329,-0.1054634228348732
7.532611083984375,0.3259508868686854,-0.0861669655745848,-14.799254873430728,0.1112044900655746,-1.1892956495285034,0.2358443737030029
7.5425908203125,-0.5928335717622191,-0.5036007158109918,-15.604286476957798,0.2206644117832183,-2.51606559753418,0.5856148600578308
7.552570068359375,-1.9042659336149688,-0.6339776291858404,-17.226048305112123,0.4019846022129059,-3.537111520767212,0.8493425250053406
7.562550048828125,-3.020789252156019,-1.0432478736456483,-19.625696540236472,0.573856770992279,-3.812072277069092,0.9091312885284424
7.572530029296875,-3.9971412989407775,-1.1107853594109416,-21.360552832651138,0.6278107762336731,-3.177415370941162,0.6871641278266907
7.58250927734375,-4.578662837767601,-0.7650036906518042,-21.95485026642084,0.4803246855735779,-1.8930726051330569,0.2143007218837738
7.5924892578125,-4.89082967556417,-0.4980363962147384,-21.62267582886219,0.1774300336837768,-0.2767737507820129,-0.4174472689628601
7.602468017578125,-4.494014131268859,-0.1576859952567145,-19.93185507752895,-0.2108311653137207,1.2117562294006348,-1.035164475440979
7.6124482421875,-3.744522628656029,0.4430355532763526,-17.410919719338416,-0.5544291734695435,2.0431807041168213,-1.478584051132202
7.622427978515625,-2.950381252455711,1.1602090963367373,-14.757916316348313,-0.7459325790405273,2.2872700691223145,-1.6092365980148315
7.632406982421875,-2.6505083713039754,1.5975487395264207,-11.18507770356536,-0.8358375430107117,2.1041183471679688,-1.452736258506775
7.64238720703125,-2.5152540976837274,1.999320006532967,-7.631955598643421,-0.8594752550125122,1.6985206604003906,-1.0674753189086914
7.652366943359375,-2.224890072502941,2.316771506734192,-4.442372791358828,-0.8420273661613464,1.2545387744903564,-0.5529745817184448
7.662345947265625,-1.6429145062983035,2.2325654294364154,-1.6161457418382166,-0.7666378021240234,0.7973832488059998,-0.0204944740980863
7.672325927734375,-0.5545212306331843,1.6754165537133812,0.4797919336676597,-0.6357348561286926,0.390548974275589,0.4737522900104522
7.682304931640625,0.7473920461155473,0.7429659002363681,2.167105553662777,-0.4751142561435699,0.0698921382427215,0.8699358701705933
7.692284912109375,1.646143989738822,-0.148887251183344,3.5895687983095645,-0.310585469007492,-0.1034417450428009,1.132982611656189
7.70226513671875,2.033736070875823,-0.5843894954785704,4.859706807547807,-0.1745339035987854,-0.0937598198652267,1.2873977422714231
7.712244140625,1.7534885121703148,-0.9807835264261812,6.011663843041658,-0.0709735751152038,0.0306172147393226,1.358229398727417
7.72222412109375,1.3149512566938997,-1.334224550832063,6.955963047483563,0.0005030067404732,0.1908020973205566,1.3487067222595217
7.732203857421875,1.0120361583020538,-1.489346138960868,7.847903703656792,0.0521168559789657,0.3608794212341308,1.2560807466506958
7.74218310546875,0.810685537635535,-1.5042336192302406,8.740234820452333,0.0567571446299552,0.4562005996704101,1.116028904914856
7.7521630859375,0.7110721209127455,-1.5775386555463076,9.257413943228125,0.0484723150730133,0.4805220663547516,0.960866630077362
7.762142822265625,0.525735281131789,-1.7931427694275974,9.751152569183708,0.0448781140148639,0.4776053726673126,0.7952558398246765
7.7721220703125,0.4940321290094405,-1.9736495587036007,10.159228927683827,0.0519101098179817,0.487080305814743,0.5585942268371582
7.78210205078125,0.6191331843405962,-1.9491024158157408,10.282967535555365,0.1157087981700897,0.4483302533626556,0.4333010017871856
7.792081787109375,0.837846004826948,-1.8942444519467647,10.280551122063398,0.1902101337909698,0.350681871175766,0.2681232094764709
7.80206103515625,0.8990497575260699,-1.8380567007787525,10.042395861417054,0.2773418724536896,0.2451221197843551,0.1156263574957847
7.812041015625,0.8221810373790561,-1.6201805503122508,9.86349358472824,0.3487211167812347,0.1956849247217178,-0.031440332531929
7.82202001953125,0.6011093788068741,-1.4525411336548626,9.788471953752635,0.3502218127250671,0.195375457406044,-0.1786646693944931
7.832000244140625,0.5871790531318635,-1.2666104196339845,9.62318611448407,0.2773728370666504,0.2484055757522583,-0.3381088972091675
7.84197998046875,0.8988000205487012,-1.073034232361242,9.4301407461524,0.1447538137435913,0.3418399095535278,-0.5026712417602539
7.851958984375,1.119630417710915,-0.9975061131682248,9.246676860636471,0.0139665389433503,0.4426038861274719,-0.6332615613937378
7.861939208984375,1.118022251861915,-0.9984203054036944,9.261748173040152,-0.0602530948817729,0.5098188519477844,-0.7047653198242188
7.871919189453125,0.9614970074802636,-1.0277531481981277,9.286586261698604,-0.0633248686790466,0.5242391228675842,-0.6816651821136475
7.881898193359375,0.643116921192035,-1.107271944462508,9.349048270830512,-0.0082608163356781,0.4715181291103363,-0.7206810712814331
7.89187841796875,0.6254207401774823,-1.1072948138814418,9.253795752730966,0.0645551085472107,0.3725851774215698,-0.6789568066596985
7.901858154296875,0.6416418071381748,-1.1862428245205432,9.054781246861817,0.162164494395256,0.2018778771162033,-0.6361353397369385
7.911837158203125,0.7015469713941216,-1.3153762041077015,8.749089158037304,0.2573847770690918,0.0628783926367759,-0.6079258918762207
7.9218173828125,0.9429192213255913,-1.3652468810833989,8.551865627238154,0.354201078414917,-0.011115139350295,-0.6064070463180542
7.931797119140625,1.1552088768966495,-1.350732471910119,8.370303775951266,0.4608997106552124,-0.0182120893150568,-0.6225261688232422
7.941776123046875,1.0654501339077949,-1.263425944378972,8.162699136391282,0.5909144282341003,-0.0409179329872131,-0.6154405474662781
7.951756103515625,0.7966315125156194,-1.234362785371393,7.856787851858138,0.7024430632591248,0.0359246395528316,-0.603457510471344
7.961735107421875,0.8161647727642208,-1.2842289323024452,7.687967993244528,0.7494997382164001,0.1645238995552063,-0.6302273273468018
7.971715087890625,1.0334022600010038,-1.3346211489342152,7.294547936606406,0.6950060725212097,0.2636854648590088,-0.7017843723297119
7.98169482421875,1.422734755064547,-1.4644611424207687,6.585722206380963,0.5985152721405029,0.296280175447464,-0.7975968718528748
7.991674072265625,1.670064671291411,-1.573713398169726,5.754734908342361,0.5865471959114075,0.2540627419948578,-0.8618332743644714
8.001654296875,1.4867526153363286,-1.649986490511149,4.812742811799049,0.685286819934845,0.3058111369609833,-0.9288224577903748
8.011634033203125,1.1848445020299403,-1.696810347136855,4.010400008964538,0.8720847368240356,0.468969851732254,-0.9885542392730712
8.02161328125,0.8544538060829043,-1.7487334265977144,3.0009271983444687,1.0400917530059814,0.6845154166221619,-1.0133098363876345
8.03159326171875,0.8330907731238753,-2.050283008790016,1.3955775758087634,1.1013071537017822,0.8969451785087585,-1.030061960220337
8.041572998046876,1.2699454092755913,-2.6536618668988345,-0.891525061109662,1.040369749069214,1.0866796970367432,-1.1547138690948486
8.05155224609375,1.9986001678258176,-2.834085069544613,-3.297024360349774,0.878571093082428,0.916206955909729,-1.4257694482803345
8.061531982421876,2.109712226097286,-1.7435248981691895,-6.087063659679889,0.6045683026313782,0.5510292649269104,-1.77585768699646
8.071511962890625,1.3956293059960008,0.2286687626376748,-8.374681844905018,0.2002064436674118,0.4783338010311126,-2.0016746520996094
8.0814912109375,0.0769656411828473,1.0548958605371417,-9.288108941221235,-0.1975481212139129,0.7007330060005188,-1.927440404891968
8.091470947265625,-1.228831600859761,0.3615935703970491,-9.25999811450243,-0.3355004489421844,0.8472102284431458,-1.554064393043518
8.1014501953125,-1.423407101368159,-0.9475883821804076,-9.862829567861557,-0.20532888174057,1.1072174310684204,-1.137904167175293
8.111430419921875,0.0049872138280421,-1.812578999042511,-10.106323851448296,-0.002749937120825,1.6539585590362549,-0.837104320526123
8.12141015625,1.7435042937725782,-2.026586345251649,-11.051080736529826,0.0939987078309059,1.6882330179214478,-0.4610913395881653
8.13138916015625,2.5676883415371177,-3.592982406145334,-14.386449148321152,0.1099545285105705,1.43703031539917,0.0043569235131144
8.141369384765625,2.680029941603541,-4.561097954982519,-15.626676003420352,0.1936137378215789,1.0894430875778198,0.3434255421161651
8.15134912109375,2.781372301010787,-4.955327574437856,-15.228027398478984,0.3654197752475738,0.7042369842529297,0.6689465045928955
8.161328125,2.963030306148529,-4.519770211555064,-14.349483984017372,0.5362434387207031,0.2817344963550567,0.7878177165985107
8.17130810546875,3.127693045082688,-4.042958462741971,-14.024499165701863,0.6468940377235413,-0.1324546635150909,0.776835560798645
8.1812880859375,3.319555341109633,-3.837799462768435,-13.944340171837808,0.7724210619926453,-0.5385233163833618,0.7267244458198547
8.19126708984375,3.234500976419449,-3.5936809098035094,-13.533797715485097,0.9004050493240356,-0.6472826600074768,0.6164117455482483
8.2012470703125,2.866860673204064,-2.6667358680054543,-11.79834521074295,0.9843515753746032,-0.4682559072971344,0.3914428651332855
8.21122705078125,2.23248783415556,-1.2558514174714683,-9.652101243323088,0.9618086218833924,-0.2764543890953064,0.0883471667766571
8.2212060546875,1.5223822932526467,0.0357873526960611,-8.119220060148836,0.8323073387145996,-0.1619970351457595,-0.190878078341484
8.231186279296875,0.7427057149302214,0.8328333642967045,-6.464588228049874,0.6161069869995117,-0.2234478443861007,-0.35153928399086
8.241166259765626,-0.1779720831666141,1.243085021009296,-5.107904154258966,0.3258751332759857,-0.4780356585979461,-0.3566706478595733
8.251145263671875,-0.855247002287209,1.3121876371994614,-4.364658852559328,0.0117420572787523,-0.8171964287757874,-0.2300549447536468
8.261125244140626,-0.9283368614826352,1.0011322677761316,-3.947927478438616,-0.2240539491176605,-1.2283077239990234,-0.0235236026346683
8.271104248046875,-0.612946823855862,0.6166289464347064,-4.136579580247402,-0.2964126169681549,-1.5006482601165771,0.1065694466233253
8.281083984375,-0.2795409082734957,0.5754555167861283,-3.725129361400008,-0.2686305344104767,-1.4530977010726929,0.2742351293563843
8.29106396484375,-0.382862970255874,0.9157068778164684,-2.8341186795532702,-0.1960927844047546,-1.1880700588226318,0.3749265670776367
8.301043212890624,-0.4968898565281182,1.331938193460554,-2.379872106030583,-0.0421357192099094,-1.0804985761642456,0.2883560061454773
8.31102294921875,-0.4540674540961161,1.4498065941244362,-2.4697569596171376,0.1966228634119033,-0.997845470905304,0.4692128598690033
8.3210029296875,-0.4015912707971408,1.630682801234722,-1.370564130583405,0.4291282594203949,-0.8354418873786926,0.5490211844444275
8.330982177734375,-0.6680678225751966,1.8518774285994468,0.3134019325494766,0.5434834361076355,-0.7479940056800842,0.6338988542556763
8.3409619140625,-1.2591405221447347,1.7795134725257753,1.2650532533198595,0.5955855250358582,-0.709236741065979,0.8884299397468567
8.350942138671876,-1.0637556049495935,2.3240621021337806,2.189137352728844,0.6192390322685242,-0.7016654014587402,0.8316400647163391
8.36092138671875,-0.7334533910036086,2.979473491427302,2.850360204780101,0.64922034740448,-0.669192910194397,0.737804114818573
8.370901123046876,-0.6201647193454206,3.176971162992716,3.3617139824032782,0.7007268667221069,-0.6206979155540466,0.8386201858520508
8.380881103515625,-0.514664034682326,2.9547458774060007,3.713221481463313,0.788364827632904,-0.5597858428955078,0.6841240525245667
8.390860107421876,-0.120632166288793,2.596910928890109,3.84392642121613,0.9218299984931946,-0.4968483746051788,0.6174031496047974
8.400840087890625,0.3191852651912719,2.2986410990208386,3.8862066430628297,1.0444320440292358,-0.383155882358551,0.6300206780433655
8.410820068359374,0.836847860635072,2.2737635551348325,3.808182907661796,1.1076807975769043,-0.2762214243412018,0.3380054235458374
8.420799072265625,1.1269006279096008,2.4329917017996308,3.353938087704777,1.0671226978302002,-0.3388728201389313,0.2621037364006042
8.430779052734374,0.925422508405894,2.351969661365449,2.4193419466316697,0.9716922640800476,-0.5312326550483704,0.1985682100057602
8.44075830078125,0.7516562794312834,2.113441475753486,1.7568728939116,0.8911780118942261,-0.630790650844574,0.0855364575982093
8.450738037109375,0.4072071013849228,1.9922902540266512,2.1492022327035665,0.8570739030838013,-0.5311563014984131,0.1076695844531059
8.46071826171875,0.0172812435381114,2.153350876815617,2.96284209010005,0.8421154618263245,-0.2918243706226349,0.100685179233551
8.470697265625,-0.1979794637329876,2.4552549715340137,3.503965567564964,0.8237565755844116,-0.0402547121047973,0.0400869324803352
8.48067724609375,-0.4018725354239344,2.6408064769789577,3.75265332814157,0.7976770401000977,0.1105808690190315,0.0987931191921234
8.4906572265625,-0.5461526307385415,2.6314327916949987,3.79709569645822,0.76529860496521,0.1118233129382133,0.12997567653656
8.500635986328126,-0.5443722501277923,2.589818340280652,3.677967797252536,0.7210949063301086,-0.0740088745951652,0.1866184473037719
8.5106162109375,-0.3783016902223229,2.5727386106640098,3.45039179828763,0.6688023209571838,-0.4280962646007538,0.2499451339244842
8.52059619140625,-0.1571380425177514,2.427574937447905,3.035011254253983,0.6271227598190308,-0.916900634765625,0.3219077289104461
8.530574951171875,0.1350485949803143,2.176750749364495,2.304949843776226,0.6416975855827332,-1.3898062705993652,0.3407068252563476
8.54055517578125,0.5227968895923346,1.80365714917928,1.566155676266551,0.7189108729362488,-1.608378767967224,0.2871618270874023
8.55053515625,0.7663415151268244,1.658167605009675,1.5072832160592078,0.8154861330986023,-1.5253660678863523,0.1742573529481887
8.560513916015625,0.6880455386556684,1.9039593518838285,1.7798019340783358,0.8820342421531677,-1.2120825052261353,0.0243770480155944
8.570494140625,0.371857920910418,2.2650682075038557,1.9331559280127288,0.8616318702697754,-0.761872410774231,-0.1314115822315216
8.580474365234375,-0.0299707753717899,2.4900530209317804,1.9389082079291344,0.7431151270866394,-0.2856643199920654,-0.2430749982595443
8.590453125,-0.4376921829544007,2.5827880032524466,1.9008873970925808,0.5615983009338379,0.1204742193222045,-0.2921603918075561
8.60043310546875,-0.6383819285593927,2.545264912804961,1.7925895194590091,0.3428076505661011,0.4034585356712341,-0.3030207455158233
8.610413330078124,-0.5971215512797237,2.403647533893585,1.4921920299112796,0.115759827196598,0.5224140882492065,-0.2971216440200805
8.62039208984375,-0.3667319561988115,2.1896160761564967,1.1031097102165222,-0.0952312424778938,0.5297644138336182,-0.302431970834732
8.6303720703125,-0.0672208940967917,2.045330354818702,0.7997960409611463,-0.2777012288570404,0.4981175363063812,-0.3108660578727722
8.640352294921875,0.0560984654493629,2.0076988355606797,0.6442296316742897,-0.4155161082744598,0.4806453585624695,-0.3126445114612579
8.6503310546875,0.0625023411422967,1.9405752643585203,0.523048307070136,-0.5022632479667664,0.4985285103321075,-0.3184833526611328
8.66031103515625,0.0505646505892276,1.8170356861904264,0.3737544021815061,-0.538536012172699,0.5237365961074829,-0.3159586489200592
8.6702900390625,-0.0491960656497627,1.6992375742837786,0.1769727699309587,-0.5206038355827332,0.5412276387214661,-0.2909955382347107
8.68027001953125,-0.1738244619678705,1.6439534939572211,0.0306552505046129,-0.4474025964736938,0.506570041179657,-0.2428583651781082
8.690250244140625,-0.3129297849930822,1.6421645647138357,-0.0162239895701408,-0.3093963861465454,0.4370735883712768,-0.1631527692079544
8.700229248046876,-0.4675388935551047,1.615630485792458,0.1182242283642291,-0.1110465452075004,0.3607905209064483,-0.0461704805493354
8.710209228515625,-0.6273265007335692,1.598629082109034,0.441622069749236,0.1168199479579925,0.3147625625133514,0.0809268951416015
8.720189208984374,-0.698399540213868,1.6595725033715367,0.8505576754271984,0.3522713482379913,0.3126653432846069,0.1898224949836731
8.730170166015625,-0.6810388747639954,1.7568252553775905,1.1879074697971344,0.5555822849273682,0.3756440877914428,0.2741990983486175
8.740149169921875,-0.7543905997660011,1.7356296148747206,1.3928677323281764,0.7074418663978577,0.4776330292224884,0.343536913394928
8.750129150390626,-0.82003365008682,1.521495865806937,1.4297124851226806,0.7757408618927002,0.5701356530189514,0.4045043885707855
8.76010888671875,-0.7595102078020572,1.264746379327774,1.2185194656819105,0.7472826242446899,0.5914071202278137,0.4402426779270172
8.770088134765626,-0.6389567327726632,1.060009404158592,0.8356354161053895,0.6351927518844604,0.5107961893081665,0.440320074558258
8.780068359375,-0.4632880311775952,0.906077610336244,0.5537246003627777,0.4621389806270599,0.3722915947437286,0.4005878567695617
8.790048095703124,-0.2517735246974975,0.7488993819385766,0.5170078578621149,0.2612133920192718,0.2467811405658722,0.3316848874092102
8.80002734375,-0.1500748261332511,0.6276917538493871,0.6085515845716,0.0762057155370712,0.156552717089653,0.2647865414619446
8.81000732421875,-0.1391854025240987,0.4926809335961937,0.7571224358826876,-0.0644706413149833,0.1114562824368476,0.2200818657875061
8.819987060546875,-0.1779948795203119,0.3642760874792933,0.8509218325644731,-0.1495051085948944,0.0765805914998054,0.1859441250562667
8.82996630859375,-0.2245798128236085,0.2982601852580905,0.7945803521394729,-0.1963297575712204,0.0642145052552223,0.166130855679512
8.8399462890625,-0.2699340352881699,0.3185562465727329,0.8264636831343174,-0.2134618759155273,0.0396958440542221,0.1689396947622299
8.849926025390625,-0.3148057349327951,0.3344827145010233,0.7219459085613489,-0.2211082726716995,-0.0032258341088891,0.1920658946037292
8.8599052734375,-0.4140579901929944,0.2718883111611008,0.4615928446322679,-0.2168653309345245,-0.0676953718066215,0.2362309545278549
8.869885009765625,-0.4746558859534561,0.1285293492794036,0.1798918722480535,-0.1832209229469299,-0.1425489485263824,0.2875875234603882
8.879864990234376,-0.4006337874092161,-0.0063587213769555,-0.0202946000099182,-0.1303095072507858,-0.1888461410999298,0.3194594383239746
8.88984423828125,-0.2933676639761775,-0.0984513141408562,-0.2056587661892175,-0.0631267130374908,-0.2026869058609008,0.3308532238006592
8.899823974609374,-0.2259068967089056,-0.2132902839809656,-0.332606983757019,0.0034278118982911,-0.1788883656263351,0.3087276816368103
8.909803955078125,-0.1863015200946479,-0.294560746218264,-0.3311199600696563,0.0469677858054637,-0.111397735774517,0.260109394788742
8.919782958984374,-0.1505030614826828,-0.3536877657085657,-0.380393986326456,0.0605083629488945,-0.0089107761159539,0.2026412785053253
8.929762939453125,-0.1719869443424046,-0.3962684318065643,-0.3709562958955764,0.0413179174065589,0.1092765182256698,0.1487887352705001
8.9397431640625,-0.2211019075799733,-0.3711158703714609,-0.3170347360938787,-0.0026721777394413,0.2178184390068054,0.0979564487934112
8.9497216796875,-0.2847559760406613,-0.2663917595714331,-0.3028618338346481,-0.0529950112104415,0.2708341479301452,0.0652952715754509
8.9597021484375,-0.3481250170148909,-0.1974640615567565,-0.2736310631752014,-0.0700019598007202,0.2878626585006714,0.0504513494670391
8.96968212890625,-0.332030279847607,-0.2250304061353206,-0.1004670378774404,-0.0505697838962078,0.2735559642314911,0.0456771440804004
8.979660888671875,-0.2338286296188831,-0.2532780109763145,0.0259960265219211,-0.0020136996172368,0.2172948271036148,0.0416315384209156
8.98964111328125,-0.1342114865690469,-0.241242120745778,-0.0070668696463108,0.0757629796862602,0.1544106602668762,0.0387037359178066
8.99962109375,-0.1029711296528577,-0.1700502771914005,-0.0027028292179107,0.1803666204214096,0.1054026335477829,0.0473888367414474
9.009599853515626,-0.1025631333738565,-0.0759776165261864,0.0027256255716085,0.2965222299098968,0.0811838954687118,0.0761342421174049
9.019580078125,-0.131140554691106,0.003890285436809,0.0653004474282264,0.4027389585971832,0.069958671927452,0.1134384721517562
9.02955908203125,-0.0963269423980265,0.0937678324997425,0.0468576127648353,0.4783667922019958,0.0595411583781242,0.1408205926418304
9.039538818359375,-0.0520986552234739,0.1168009175628423,-0.0268774855315685,0.5239347815513611,0.0674198493361473,0.166775494813919
9.04951904296875,-0.0260943723298609,0.0775663470223546,0.0292336932688951,0.5399481058120728,0.0879648178815841,0.1870522052049636
9.059497802734375,0.0213603295452892,0.0707400081336498,0.139701900678873,0.5174649357795715,0.103792518377304,0.1925130188465118
9.06947802734375,0.06104856213741,0.058904316650331,0.2373696632266044,0.4719609022140503,0.094449371099472,0.1799554377794265
9.0794580078125,0.1038800611913204,-0.0156070267155766,0.2220236255347728,0.4093829989433288,0.0658350363373756,0.1628046780824661
9.08943701171875,0.1600059261042624,-0.1061237484648823,0.1964016930222511,0.3447297513484955,0.0385323986411094,0.1428863108158111
9.0994169921875,0.1907118108175695,-0.1705532582774758,0.2225204691410064,0.2823856770992279,0.0275372713804245,0.1123201474547386
9.10939697265625,0.2204167748600244,-0.1725724891453981,0.2520569447487593,0.2185254395008087,0.026972122490406,0.0798184350132942
9.1193759765625,0.2283806664112955,-0.1694213316380977,0.2349918281793594,0.1553677767515182,0.0195498950779438,0.042150679975748
9.12935595703125,0.1837522009380161,-0.1318275140419602,0.1455243232220411,0.0975783988833427,0.0068338708952069,0.021199332550168
9.1393359375,0.1116056139420717,-0.1228977731332182,0.0385036259174346,0.0471836701035499,-0.0010514827445149,0.0061000087298452
