seconds_elapsed,ax,ay,az,gx,gy,gz
0.060896484375,-0.4792223536187782,0.292966170503199,0.0722480746090412,0.0234849229454994,0.1322181522846222,-0.1275117844343185
0.07092236328125,-0.4318163131909445,0.5048712106708437,0.1886848350346088,-0.0055066104978322,0.1427912414073944,-0.0860641598701477
0.0809482421875,-0.368301762798801,0.5873703379202634,0.3993693204313516,-0.0518789030611515,0.1402465850114822,-0.0469098351895809
0.090974365234375,-0.2560307072179392,0.6127214176021516,0.5631529384434223,-0.0984108000993728,0.1532012224197387,-0.0033180369064211
0.101000244140625,-0.1448087040322832,0.6414732456382364,0.6532990733146667,-0.149931252002716,0.1682070791721344,0.0369044840335845
0.1110263671875,-0.0404189580194652,0.638542891274765,0.6468482897400856,-0.1937418133020401,0.1613759100437164,0.083174742758274
0.12105126953125,0.0498274406221695,0.619256153133139,0.530499207597971,-0.2139671891927719,0.1235978901386261,0.1314892917871475
0.131077880859375,0.1217440365208312,0.5875121575437486,0.2712649185657501,-0.1972192972898483,0.0765646398067474,0.1735471487045288
0.14110400390625,0.0842909608359448,0.5605338419862091,0.0212649063467979,-0.1509812176227569,0.0365775451064109,0.1965089291334152
0.1511298828125,-0.0772217348357662,0.5261513876520097,-0.0977460884809494,-0.0871006697416305,0.007509121671319,0.1892111301422119
0.161156005859375,-0.2064593785149976,0.4759756633151322,-0.0726128162682056,-0.0317687019705772,-0.0137120112776756,0.1556872576475143
0.171180908203125,-0.2650606936307624,0.4418022486217319,0.0753565620183944,-0.009773451834917,-0.0347284413874149,0.1034517586231231
0.18120703125,-0.2177781699847429,0.3844342746932059,0.3407680783808231,-0.0388852655887603,-0.0558097548782825,0.0420499183237552
0.19123291015625,-0.107452037926577,0.3482343956734985,0.5623398684948683,-0.0975778698921203,-0.0526906624436378,-0.0071040471084415
0.2012587890625,0.0170803506711497,0.4143744357310235,0.7326788994997739,-0.1667385697364807,-0.0265706442296504,-0.0304873995482921
0.211284912109375,0.1519012926417403,0.5651113790348172,0.8118138110131025,-0.2216713279485702,-0.0001454302109777,-0.037890188395977
0.221310791015625,0.3002779548212885,0.7342841427393257,0.8761907138556242,-0.2669991254806518,0.0171320922672748,-0.0273326188325881
0.231335693359375,0.4167041573202237,0.8188790732242166,0.9831330852270126,-0.3049164414405823,0.023027004674077,0.0042055882513523
0.24136181640625,0.4266162237972021,0.725144120080769,1.1098849034398794,-0.3291927576065063,0.0228805318474769,0.0457514338195323
0.2513876953125,0.3583703340342268,0.5746962228514254,1.2469850971877574,-0.3325541317462921,0.0235683061182498,0.0839684158563613
0.261413818359375,0.2449207727259024,0.4142839079033583,1.3722288489252328,-0.3134400844573974,0.0108988508582115,0.1099856346845626
0.271439697265625,0.1400539472532458,0.2218155357420444,1.4426216510564087,-0.2813216745853424,-0.0242997072637081,0.1132773086428642
0.281464599609375,-0.034477640070673,-0.02201630923599,1.5086568424999711,-0.2432347238063812,-0.0763735622167587,0.0876451805233955
0.29149072265625,-0.1831533765283413,-0.2440628772549331,1.5421680669575928,-0.2046330273151397,-0.1301098614931106,0.0560654439032077
0.3015166015625,-0.200754591002129,-0.3311145532421767,1.5640806235581637,-0.1566982567310333,-0.1884863525629043,0.0235141590237617
0.31154296875,-0.1906843930876813,-0.396420115236938,1.5727075821280478,-0.1148777902126312,-0.2520790696144104,-0.0069361738860607
0.32156884765625,-0.2134581148285418,-0.5094448752619326,1.625229796525836,-0.089185744524002,-0.3277157843112945,-0.0418070703744888
0.331594970703125,-0.2529733289413154,-0.5975466448239982,1.6677157700777052,-0.0835186094045639,-0.4008949100971222,-0.0811015293002128
0.341619873046875,-0.3232856862474232,-0.5965529576115309,1.6805092006772755,-0.0920532420277595,-0.4479649662971496,-0.1099475547671318
0.351645751953125,-0.4341601363707333,-0.4034654306385666,1.6431173353940247,-0.1074578091502189,-0.444537878036499,-0.1206700578331947
0.361671875,-0.5272445531835779,-0.0576641803961247,1.6161474954038857,-0.1275212615728378,-0.3732770085334778,-0.1076919436454773
0.37169775390625,-0.5591916701296344,0.2615286105144769,1.6831699443191288,-0.1503429859876632,-0.2503446936607361,-0.0770709291100502
0.381723876953125,-0.545601791922748,0.409441509373486,1.7940613455772398,-0.1747468709945678,-0.1069577038288116,-0.0314656235277652
0.391748779296875,-0.5315343227993696,0.4134203498765826,1.9110785362392664,-0.196658119559288,0.0448252409696579,0.0275804307311773
0.401774658203125,-0.5361706773631274,0.3715256202161311,2.0239888761043545,-0.2051418870687484,0.1816075891256332,0.0838311836123466
0.41180078125,-0.696095866381377,0.258522158707492,2.122808146774769,-0.2055025845766067,0.2795692086219787,0.1155123859643936
0.42182666015625,-0.8698070041678846,0.0560280670942738,2.173780793642998,-0.2095543146133422,0.2928876876831054,0.1094417124986648
0.431852783203125,-0.8652106893535703,-0.2625732607292011,2.0530624103754755,-0.2244890183210373,0.2278468012809753,0.0714728459715843
0.441878662109375,-0.714326227337867,-0.5105381869239732,1.428568575784564,-0.236051395535469,0.2149666845798492,0.033343032002449
0.45190380859375,-0.4451614228565245,-0.53428690944314,0.2439846974521875,-0.2389668375253677,0.3313727080821991,0.0118002630770206
0.4619296875,-0.2346688798353076,-0.3648688657406717,-1.1427741966068743,-0.2425210922956466,0.5092902779579163,0.0006101928884163
0.47195556640625,-0.2016426076167263,-0.2413922698061913,-2.5425059694856404,-0.2517845928668976,0.6857315301895142,-0.023767240345478
0.48198193359375,-0.2305056957412511,-0.1704410666072741,-3.7195553606599567,-0.2829768657684326,0.8100643754005432,-0.0585297495126724
0.4920078125,-0.2043929292381741,-0.0058641427930444,-4.35642995339632,-0.3415872752666473,0.8538661599159241,-0.0668456256389617
0.502032958984375,-0.0909075842304155,0.243398129735887,-4.496618760809303,-0.3952400982379913,0.8190591931343079,-0.0114404214546084
0.51205908203125,-0.0299419648358365,0.5665783097822219,-4.687037872290611,-0.4085419476032257,0.7229355573654175,0.100059375166893
0.5220849609375,-0.1827386582476086,0.7954916217654943,-5.190443905779719,-0.343248963356018,0.5322138071060181,0.2355458289384842
0.532111083984375,-0.336407837344706,0.9691107704196124,-5.9209396160215135,-0.1674100160598755,0.2670062780380249,0.3858171701431274
0.542136962890625,-0.5595120246578008,1.0421094442002474,-6.602464082345366,0.1254761815071106,-0.034798577427864,0.5144094824790955
0.55216259765625,-0.7967209443647414,0.8805334192350506,-6.9503726801306005,0.4710519015789032,-0.3691209554672241,0.5820499658584595
0.56218798828125,-1.0658666057541966,0.5251123999930918,-6.860857244378328,0.7724530100822449,-0.700204074382782,0.5653364658355713
0.5722138671875,-1.2690468530006709,0.1620357879640534,-6.500519373130798,0.9705622792243958,-0.9566592574119568,0.4789085686206817
0.582239990234375,-1.2473537843696771,-0.0071148004412651,-6.102104576945305,1.0565203428268433,-1.100481390953064,0.3700792789459228
0.592265869140625,-1.0795302433170375,-0.0179543935593217,-5.711587840533256,1.043391466140747,-1.1058040857315063,0.2816695272922516
0.602291748046875,-0.9280759455241262,-0.0212152219861745,-5.23477287684977,0.9445396661758424,-0.9926010966300964,0.2256616503000259
0.61231689453125,-0.8644603824429213,-0.2291059850111603,-4.528914179736376,0.7798811793327332,-0.844393253326416,0.1773031651973724
0.6223427734375,-0.7284475455403328,-0.7565616601947694,-3.647574997076392,0.5583235025405884,-0.7517789006233215,0.0697849690914154
0.63236865234375,-0.3565430090092122,-1.4727787427805363,-2.7339263669639826,0.3135604560375213,-0.7962646484375,-0.1119211316108703
0.642394775390625,0.155177702230215,-1.8603744771793485,-2.1403695224285126,0.0987962260842323,-0.9237360954284668,-0.3197238743305206
0.6524208984375,0.2965724513668566,-1.6272186322554945,-1.9244348614186049,-0.0455818064510822,-0.9927643537521362,-0.5319663882255554
0.662447021484375,0.0917071005776524,-0.91250304027386,-1.6683230883210896,-0.1192392483353614,-0.9885240793228148,-0.7332488894462585
0.672471923828125,-0.0428819140668958,-0.0136215519867837,-1.2742992205709218,-0.1384762078523636,-0.9409098625183104,-0.8969448804855347
0.682497802734375,-0.0458273198690265,0.7150492078501731,-0.8336451190710067,-0.1272754818201065,-0.8347264528274536,-1.0219491720199585
0.69252392578125,-0.0565286735601723,1.2213039087686688,-0.240967979979515,-0.1033239737153053,-0.6476800441741943,-1.1322752237319946
0.7025498046875,-0.1034095941353589,1.5372975383117795,0.4876595983028411,-0.0848128721117973,-0.3945929408073425,-1.2204746007919312
0.712575927734375,-0.0114321521837264,1.7624809430517254,1.3611667721629142,-0.0934383943676948,-0.1375309526920318,-1.2705143690109253
0.722601806640625,0.2085830561380833,1.9189134676486248,2.285394079434872,-0.1395049542188644,0.0856978595256805,-1.25092613697052
0.732626708984375,0.3932636970326304,2.0383692836344243,3.2617566476136446,-0.234456792473793,0.2846796214580536,-1.1654109954833984
0.74265283203125,0.4028428417608141,2.146861076404899,4.257262307679653,-0.3657855093479156,0.4552170038223266,-1.0435510873794556
0.7526787109375,0.2855718224681913,2.2415981923282144,5.145459685671329,-0.5099601149559021,0.5722976922988892,-0.908126175403595
0.762704833984375,0.1706402059085667,2.1932743064031004,5.842538864001631,-0.6557806730270386,0.5952816009521484,-0.7567601203918457
0.772730712890625,0.2540405928466469,1.979457660460472,6.261935073417424,-0.7796281576156616,0.520811140537262,-0.5734633803367615
0.7827568359375,0.6741350867249071,1.6294342624783515,6.256456349745393,-0.855880081653595,0.3387206792831421,-0.3539424240589142
0.79278173828125,1.1757082787636666,1.1079008169505744,5.818736548131704,-0.8701757192611694,0.0729216113686561,-0.1266134679317474
0.8028076171875,1.5161951290503144,0.4961164244702085,5.187660412541032,-0.8269203901290894,-0.1916274726390838,0.0556703172624111
0.812833740234375,1.6266484311521052,-0.0604694836078211,4.411800542962551,-0.7193930149078369,-0.3320260643959045,0.1661185026168823
0.822859619140625,1.387903680180013,-0.3714549661327153,3.687391459158063,-0.5603309273719788,-0.328936755657196,0.2027928978204727
0.832885986328125,0.976358111199364,-0.4372043994374573,3.4095763882964847,-0.3798792958259582,-0.1964655220508575,0.1914312243461609
0.84291064453125,0.6953750778261572,-0.3804443648068234,3.3393238714188334,-0.1768548190593719,-0.0060678822919726,0.1732221245765686
0.852936767578125,0.465368417648226,-0.2961251825233921,3.619306349447369,0.0316093973815441,0.1472514271736145,0.1848620921373367
0.862962890625,0.3778565037380904,-0.3659777037654071,4.368154293459654,0.1964968889951706,0.2080593705177307,0.2215500622987747
0.87298876953125,0.4993052471067756,-0.6667458532564342,5.125878786888718,0.3215035200119018,0.1496628224849701,0.2647452056407928
0.883014892578125,0.6236004659477621,-1.021209644838795,5.55096531690061,0.4099742472171783,-0.0204801484942436,0.292638897895813
0.893040771484375,0.5941853516973554,-1.2768906983688473,5.651775469127297,0.4705466628074646,-0.2622682750225067,0.2912548184394836
0.903065673828125,0.4313788350891321,-1.3389160696491598,5.3883600950181485,0.5136669874191284,-0.4750383198261261,0.2415863126516342
0.913091796875,0.2463775839380919,-1.2017316316839306,4.869167878854275,0.5479606986045837,-0.5516376495361328,0.1538230180740356
0.92311767578125,0.0145444389853626,-0.7727956597022712,4.276480802890658,0.5940230488777161,-0.479768306016922,0.0755471140146255
0.933143798828125,-0.2682852451678365,-0.1455220581997185,3.755639650475979,0.6421170234680176,-0.3334682881832123,0.0725388899445533
0.943169677734375,-0.5072412277378141,0.4243369537536055,3.219555920743942,0.6536466479301453,-0.1340313404798507,0.1451694220304489
0.95319482421875,-0.7999564191546291,0.8217248180441558,2.448593760079145,0.6049010157585144,0.2185836881399154,0.2252051830291748
0.963220947265625,-1.1901678159445523,1.025041989543289,1.6001853716403245,0.4906556904315948,0.7125012278556824,0.2555662989616394
0.973246826171875,-1.4754108448497951,1.0454559781491757,0.90139471321702,0.317447304725647,1.188647747039795,0.2278198450803756
0.98327294921875,-1.5109911306664348,0.800979478592053,0.1306973409682512,0.0793495178222656,1.5883100032806396,0.1395262032747268
0.993298828125,-1.1868611756145953,0.5361413782034069,-0.7787813099831342,-0.2087472379207611,1.9044030904769895,0.0270488355308771
1.00332470703125,-0.4170978328129276,0.5640050252281129,-1.8415882359057665,-0.507593035697937,2.082413911819458,-0.0444288104772567
1.013349853515625,0.6960851257916539,0.869249881741777,-2.8026579578846693,-0.7780068516731262,2.029070854187012,0.0095475725829601
1.0233759765625,1.8582446255438028,1.194415974908322,-3.7195518535286185,-0.9541065096855164,1.712313175201416,0.2420473843812942
1.033402099609375,2.61904677285254,1.1533239399328827,-4.929194769793749,-0.9548190236091614,1.2229119539260864,0.5477375984191895
1.043427978515625,2.8926924490749832,0.8983074147261678,-6.492021593898534,-0.7431901097297668,0.6666949987411499,0.8088248372077942
1.053453857421875,2.769166899432242,0.9112611504539848,-8.047948721617459,-0.3281626403331756,0.1780184954404831,1.055131912231445
1.06347998046875,2.423163112355024,0.8997449732486158,-9.330966086173056,0.2198370844125747,-0.1699685007333755,1.3242433071136477
1.0735048828125,2.017035111443698,0.6405617568165064,-9.76436627102196,0.8128446936607361,-0.4790379703044891,1.6148111820220947
1.08353076171875,1.142230006727576,0.1907974798070266,-9.688037649101018,1.3603949546813965,-0.8069874048233032,1.7703500986099243
1.093556884765625,-0.0707421544249635,-0.6853468010909854,-9.355013316714762,1.7979708909988403,-1.0159560441970823,1.6665363311767578
1.103582763671875,-0.9660144849047064,-1.8834040551111104,-8.954758445620536,2.0820765495300293,-0.9945401549339294,1.3407630920410156
1.11360888671875,-1.4149411785788832,-3.339999578723311,-7.971116241827606,2.0888864994049072,-0.9076208472251892,0.8470335006713867
1.123634765625,-1.4241725327827035,-4.612025009143352,-6.255021933028101,1.7308437824249268,-0.9716144800186156,0.2267689108848571
1.133659423828125,-0.9190010239910332,-5.20869910891652,-4.699326275977492,1.034696340560913,-1.096460461616516,-0.4730153679847717
1.143685546875,-0.1920254506994038,-4.852586746409535,-3.920739611783624,0.164336159825325,-1.094147801399231,-1.1256842613220217
1.15371142578125,0.6012803149269893,-3.457821656027436,-4.427500800919533,-0.6731298565864563,-0.8661602735519409,-1.5504775047302246
1.163737548828125,1.3643383879363535,-1.0397156809315085,-5.813714336055517,-1.3137623071670532,-0.4104454517364502,-1.6477118730545044
1.173763427734375,2.0383198915347456,1.5959204076722264,-7.227279988497496,-1.6538057327270508,0.1674330383539199,-1.4920591115951538
1.183788330078125,2.44533972671926,3.366361515948176,-7.96281135481894,-1.6771368980407717,0.6706029772758484,-1.2061502933502195
1.193814453125,2.524374977250397,3.923456469526887,-7.197026889052987,-1.4796595573425293,0.9214165210723876,-0.8161689043045044
1.20384033203125,2.4317697587892413,3.2989205493599174,-5.524852970522642,-1.1297441720962524,0.9206013083457948,-0.3920450508594513
1.213866455078125,1.6281712568052111,1.773348520155251,-3.613521336305141,-0.6971545219421387,0.698074996471405,-0.0310788042843341
1.223892578125,0.1585364928725175,0.0960102045990526,-1.4850474188536404,-0.2765900194644928,0.3800658881664276,0.0910569578409195
1.233918701171875,-1.7516789785303175,-1.1444724518921223,0.7598615054577589,0.054655734449625,0.0531263351440429,-0.0893369391560554
1.243943603515625,-3.511649107804894,-1.7117948580399154,2.6998639383643863,0.2503775656223297,-0.2365574091672897,-0.5009233951568604
1.253969482421875,-4.53977927262187,-1.853136927141249,4.064880956214666,0.2764177620410919,-0.4986909925937652,-1.0186502933502195
1.26399560546875,-4.647480937927961,-1.6914361067526045,5.118774507841468,0.0933701917529106,-0.7420405149459839,-1.5096253156661987
1.274021484375,-3.794400466024876,-1.1618395470827818,5.850178565099835,-0.2698550224304199,-0.8786560893058777,-1.8366825580596924
1.284047607421875,-2.4918185692995785,-0.2715633900556713,5.94612315711677,-0.6682087779045105,-0.7377802133560181,-1.930352568626404
1.294073486328125,-1.1944651478122918,0.7900470195587724,5.223752301141619,-0.9493331909179688,-0.2748988568782806,-1.821511149406433
1.304098388671875,-0.2507460082806647,1.6929392047919332,4.695635604766011,-1.0963109731674194,0.3906125724315643,-1.6063152551651
1.31412451171875,0.4348015030141919,2.0963567777007817,4.716262797731161,-1.114837408065796,1.0683673620224,-1.3250808715820312
1.324150390625,0.906722922502458,2.0304023964084683,5.12000083476603,-1.0499757528305054,1.5135400295257568,-1.0233566761016846
1.33417626953125,1.0163415273457763,1.5232057384647428,5.788715503877401,-0.9321109652519226,1.6072806119918823,-0.7465372681617737
1.344202392578125,0.9378525125205516,0.6972053619932382,6.495912756118178,-0.7683106064796448,1.438646674156189,-0.5321527719497681
1.354228271484375,0.7872800390634686,-0.2859341529745608,7.021431837216019,-0.5781879425048828,1.2204093933105469,-0.4049082100391388
1.364253662109375,0.4038250211985781,-1.077670294664055,7.378750652903318,-0.3841782808303833,0.9931325316429138,-0.3413750529289245
1.374279541015625,-0.1235658085878938,-1.294265611539781,7.725598343458771,-0.1942885071039199,0.7578939199447632,-0.3004571795463562
1.38430517578125,-0.3532111977053806,-1.240142245555669,7.883316377821564,-0.0060570845380425,0.531145453453064,-0.2690318822860718
1.39433154296875,-0.3960272799944505,-1.179205984686315,7.920124305737018,0.1850529909133911,0.3247798979282379,-0.2347722202539444
1.404357421875,-0.4098192201120779,-1.0789055355474353,7.793464841982722,0.3670459389686584,0.1585709303617477,-0.17651928961277
1.4143828125,-0.4394905010806396,-0.88032942109555,7.537408598464727,0.4931466579437256,0.085325002670288,-0.1331735849380493
1.42440869140625,-0.6254920518480241,-0.7117285389948635,6.9829697123527525,0.5698352456092834,0.2972372770309448,-0.1669051796197891
1.4344345703125,-0.8857548802103846,-0.4814376915806904,5.691272782257199,0.594176173210144,0.7659142017364502,-0.2558883726596832
1.444460693359375,-1.4287521156579257,-0.1833725357043557,5.565430480104684,0.6503963470458984,0.8078688383102417,-0.2998798191547394
1.454486572265625,-1.652242306613922,0.2598588141387328,6.154841310876607,0.7249090075492859,0.6840246915817261,-0.3187358975410461
1.4645126953125,-1.337360364639759,0.5571225722379982,6.071832188278436,0.8115797638893127,0.5792085528373718,-0.3561562299728393
1.47453759765625,-1.1261550702393055,0.6865630450129508,5.859658341106772,0.9105711579322816,0.4257221221923828,-0.3666114807128906
1.4845634765625,-1.108772266022861,1.0028028313368558,5.663311008620262,1.0096704959869385,0.258785605430603,-0.3135789036750793
1.494589599609375,-1.0730679154351352,1.6188707828879356,5.311500727221369,1.091391921043396,0.1840998381376266,-0.203045517206192
1.504615478515625,-1.2189557382073253,2.204113095803559,4.995077401024103,1.142353057861328,0.2369774430990219,-0.0632772296667099
1.5146416015625,-1.4111647287800908,2.558987733209133,4.865524553915858,1.144133687019348,0.3614653050899505,0.0857665911316871
1.52466748046875,-1.5173904763147237,2.6262723401919006,4.795719780805706,1.0651811361312866,0.4924574196338653,0.2387550771236419
1.5346923828125,-1.350640409712493,2.5718676730483767,4.564655355203152,0.8817909955978394,0.6237035393714905,0.4207545518875122
1.544718505859375,-0.7980613261230289,2.6067072235003117,3.652682549348474,0.5859220623970032,0.6689498424530029,0.6509062647819519
1.554744384765625,0.031232319740206,2.541058108764887,2.367559736946225,0.2213819921016693,0.4516267776489258,0.902564287185669
1.564770751953125,0.8230421842530369,2.153464566323161,0.7031120287537574,-0.1592090278863906,0.0235643740743398,1.102501392364502
1.574796630859375,1.3634702267996963,1.365817666708678,-1.1540075382828712,-0.5199230909347534,-0.45811927318573,1.1691501140594482
1.58482275390625,1.5891384924471377,0.5611534351892769,-3.1810558019578457,-0.818813145160675,-0.8537096977233887,1.089080572128296
1.59484765625,1.418109433351457,0.2930043105565011,-5.559961108782887,-1.0082528591156006,-1.1308242082595823,0.9543520212173462
1.60487353515625,0.9732546652913092,0.655678369666636,-8.66162948577106,-1.0073883533477783,-1.1591655015945437,0.896851658821106
1.614899658203125,0.7265133626073599,1.420171188186854,-11.990891397380828,-0.7909384369850159,-0.7953307032585144,0.9443308115005492
1.624925537109375,1.0461435950871556,1.995664698895812,-14.28267897724509,-0.418980062007904,-0.1525238007307052,1.1055729389190674
1.63495166015625,1.7919784018233418,1.8136968971565364,-14.48598387378454,-0.0242469757795333,0.3501638174057007,1.3323745727539062
1.6449775390625,2.080682530967891,0.6859868525601923,-12.725008805251122,0.274730384349823,0.3031856417655945,1.4767223596572876
1.65500244140625,1.507909823524952,-0.6672319562729447,-10.38832409904003,0.4318337142467499,-0.1829864084720611,1.4184447526931765
1.665028564453125,0.8951995849039405,-1.9764386049002407,-8.441606094142793,0.4742863774299621,-0.8927595615386963,1.148964285850525
1.675054443359375,1.1597487122833727,-2.995547258871793,-7.686280478549003,0.4597123563289642,-1.5052263736724854,0.7973038554191589
1.68508056640625,1.337763100221753,-3.082029902799427,-7.853065031942725,0.4097189605236053,-1.8379753828048704,0.5085897445678711
1.6951064453125,0.9408500138361008,-2.209860699544847,-7.893634942740201,0.3266120851039886,-1.8758058547973635,0.356158971786499
1.70513232421875,0.376346720229648,-0.9615707303036004,-7.526758609634637,0.2334057390689849,-1.6232980489730835,0.3339322209358215
1.715157470703125,-0.5331996256630868,0.0387437913488596,-6.633048605701327,0.143570601940155,-1.116044282913208,0.3820115029811859
1.725183349609375,-1.5949642759911715,0.7984295749135315,-5.011352828520536,0.0300056971609592,-0.4685193002223968,0.4392239451408386
1.735209716796875,-2.6632784210279583,1.234770781650394,-2.951627453124523,-0.1445914804935455,0.1968641430139541,0.4807009994983673
1.745235595703125,-3.4387118818879125,0.818063372927159,-0.8931506164848804,-0.4083884954452514,0.7208729982376099,0.3507451117038727
1.755261474609375,-3.492091882158816,-0.2802238855689763,0.8248743681162595,-0.7098554968833923,0.9040120244026184,0.0415026433765888
1.76528759765625,-2.6893174099087718,-1.3421896844923495,1.996941879224777,-0.9899137616157532,0.6446739435195923,-0.2932215332984924
1.7753125,-1.431958802744746,-1.789914747291803,2.5794623659610747,-1.2104429006576538,0.1499310582876205,-0.5491239428520203
1.78533837890625,-0.3390705172153189,-1.6997136673629285,2.6925527385681867,-1.3384016752243042,-0.1936100572347641,-0.684829831123352
1.795364501953125,0.3036825573666952,-1.24069987943843,2.5123861410319805,-1.3760648965835571,-0.2833884954452514,-0.7120538353919983
1.805390380859375,0.4698158985763788,-0.6806967833280563,2.276307102137804,-1.3301912546157837,-0.2096553891897201,-0.6821457147598267
1.81541650390625,0.4294198465084657,-0.2323558536525815,2.332635723081231,-1.2133455276489258,-0.0503956377506256,-0.6246655583381653
1.8254423828125,0.2876495055250823,0.0373840655692853,2.869241430860757,-1.046573042869568,0.1515414863824844,-0.5608152151107788
1.83546728515625,0.2043414730455726,0.0995809209589846,3.862560979059338,-0.8648803234100342,0.3012775480747223,-0.4839769303798675
1.845493408203125,0.2346838947413489,0.0044929457713849,5.137431862038373,-0.7124338150024414,0.304093599319458,-0.4030624032020569
1.855519287109375,0.3334692996747792,-0.2687229424653574,6.255025440159439,-0.6006578207015991,0.1228989586234092,-0.3319450914859772
1.86554541015625,0.6207846778746694,-0.7248102119512856,6.952759867528081,-0.5223840475082397,-0.1712668985128402,-0.2561552822589874
1.8755712890625,1.13051092736125,-1.1168326036859304,6.982198727980256,-0.4523007273674011,-0.4893845617771148,-0.1903793066740036
1.88559765625,1.4605243874937297,-1.459648773702979,6.4902522461384535,-0.3714724481105804,-0.7559501528739929,-0.1450448483228683
1.89562255859375,1.4856886393666269,-1.6286746762827038,5.684786927369236,-0.2686734497547149,-0.8884139060974121,-0.121810957789421
1.9056484375,1.2323153513222933,-1.5562778408527371,4.678691484227776,-0.1191028654575347,-0.8464089632034302,-0.1085553392767906
1.915674560546875,0.8963400601759552,-1.19331458953768,3.865955297672748,0.073725439608097,-0.6486535668373108,-0.0622120760381221
1.925700439453125,0.6226775789491832,-0.695732001505047,3.393255368092656,0.290064126253128,-0.3055260181427002,0.0117140775546431
1.9357265625,0.3902315262624993,-0.2888292533615604,3.33703663726449,0.4950355887413025,0.1076545417308807,0.0789330825209617
1.94575244140625,0.185881833377853,-0.1117340626273304,3.706215986615419,0.6587816476821899,0.4970449209213257,0.1239950954914093
1.955777587890625,-0.0513300637374632,-0.1145458321124315,4.433208657172322,0.7700281739234924,0.7941335439682007,0.1481194347143173
1.9658037109375,-0.3296660349342972,-0.1513841551661491,5.300400072014331,0.8284872174263,0.9997841715812684,0.1455899626016616
1.97582958984375,-0.5426186479261145,-0.1614930593894794,6.064516896829009,0.8531540036201477,1.141335368156433,0.1107126101851463
1.985855712890625,-0.7087496693145483,-0.1387879093728028,6.61982029081583,0.8452860116958618,1.237667441368103,0.0675896406173706
1.995881591796875,-0.8427361880213021,0.044533042274788,7.117660506871342,0.8002468943595886,1.2544012069702148,0.0336021520197391
2.005907470703125,-0.8449096596028656,0.289096343332529,7.368927762547135,0.7292448878288269,1.2120572328567505,-0.0041316468268632
2.0159326171875,-0.712858858199045,0.5957310102367773,7.1059367513298985,0.6407312750816345,1.1412731409072876,-0.0445302724838256
2.02595849609375,-0.4790866349425166,1.0164717295967045,6.363399890160561,0.5061553716659546,1.0694465637207031,-0.0538209751248359
2.035984619140625,-0.2009375463536009,1.653665325154364,5.350861846750974,0.2647864520549774,1.1571882963180542,-0.006362936925143
2.046010498046875,0.2137741219751536,2.415786592237651,4.036353365388512,-0.0614955350756645,1.4256925582885742,0.0923905372619628
2.056036376953125,0.8854431108474731,2.9912545301139355,2.714834128481149,-0.3240140378475189,1.6117122173309326,0.2952273190021515
2.066062744140625,1.6187173458918929,3.129446026229858,1.312507078412175,-0.5132572054862976,1.7470364570617676,0.5653330683708191
2.07608740234375,2.2328923233032225,2.792141824567318,-0.1759673922806978,-0.6284204721450806,1.6455113887786863,0.8383867144584656
2.08611376953125,2.712168124142289,2.109290201292932,-1.477259833717346,-0.6426745057106018,1.0724071264266968,1.039818525314331
2.0961396484375,3.098075320932269,1.2007508770182729,-3.026309476882219,-0.5237780213356018,0.1558343768119812,1.1236492395401
2.10616552734375,3.1324592365711927,0.6405535735100507,-5.328485764291882,-0.2505121231079101,-0.6785893440246582,1.1265450716018677
2.116191650390625,2.761480144321918,0.7088068793945014,-7.969137050709127,0.1480812430381775,-1.1756622791290283,1.1975425481796265
2.126217041015625,2.289345447409153,1.2221945009328423,-10.32060490003228,0.5609809160232544,-1.334614872932434,1.4010730981826782
2.136241943359375,1.7461087771825492,1.6222645169794558,-11.818209602642058,0.9165263772010804,-1.2985625267028809,1.6067947149276731
2.14626806640625,1.418077576908469,1.5616224167510866,-13.080713756000996,1.2251739501953125,-0.9977002739906312,1.7580678462982178
2.1562939453125,1.223685981599614,0.9681439712140708,-13.710603896677494,1.4280164241790771,-0.5541192293167114,1.845898151397705
2.166320068359375,1.4020859347894787,-0.0570014787036925,-12.858504252505302,1.4875154495239258,-0.3813773393630981,1.8669438362121584
2.176345947265625,0.9601831484027208,-1.1079347922854126,-11.414852089357376,1.37245774269104,-0.4100590348243713,1.724251389503479
2.1863720703125,-0.3353119318667799,-2.2426617299064997,-10.072259084761145,1.0910868644714355,-0.4790375828742981,1.3333967924118042
2.19639697265625,-1.05962186614573,-3.363773253020644,-9.404164008852838,0.6747862100601196,-0.5689065456390381,0.7581520676612854
2.2064228515625,-1.0757103197026998,-4.056457995784283,-9.394383788594602,0.2116446495056152,-0.5314933657646179,0.150362491607666
2.216448974609375,-0.8726041606057435,-4.0089287673681975,-9.757643100246788,-0.2097723186016082,-0.2529525458812713,-0.340790182352066
2.22647509765625,-0.6664592914000154,-3.0417028608471157,-9.618723289856314,-0.5451375842094421,0.1599034667015075,-0.6419084668159485
2.236501220703125,-0.5762132398182526,-1.5151890207476912,-8.523212948727608,-0.8012288808822632,0.5807031393051147,-0.7512689828872681
2.246527099609375,-0.622457798718661,0.1224481296695768,-6.465936720049381,-0.981986165046692,0.8576071858406067,-0.7044615149497986
2.256552001953125,-0.707686935453862,1.192996609629691,-4.011468514978885,-1.0623867511749268,0.8997953534126282,-0.5516224503517151
2.266578125,-1.1245704313963651,1.3255439623788,-1.8839707490831608,-1.0133544206619265,0.7222993969917297,-0.3764383792877197
2.27660400390625,-1.7547319363601506,0.8070982537332921,-0.0986895068109035,-0.8629069328308105,0.3791530430316925,-0.2456960082054138
2.286630126953125,-2.157220996247232,0.1440698866300284,1.3038280973941088,-0.6786835789680481,-0.0646853968501091,-0.246278703212738
2.296656005859375,-2.3579649562574923,-0.6009914515156298,1.821129969766736,-0.5068103075027466,-0.5095372200012207,-0.3951055705547333
2.306681884765625,-2.365665593762696,-1.1045748873982577,1.6403087077140808,-0.3597660064697265,-0.8585519194602966,-0.6239904165267944
2.31670703125,-2.033453162281215,-0.9191702430780976,0.9347808499902486,-0.2269399017095565,-1.0006356239318848,-0.8295677304267883
2.32673291015625,-1.6463818901479244,-0.071267904465273,0.4250134647756814,-0.1005867570638656,-0.8560938835144043,-0.9008616209030152
2.336759033203125,-1.021203434293717,1.1003919756904244,0.800902540898323,-0.0057444833219051,-0.5108524560928345,-0.8057860732078552
2.346784912109375,-0.2654091052096337,1.9379080909758808,1.944291070011258,0.0632455050945282,-0.0837820917367935,-0.5625166893005371
2.356810791015625,0.2768641998775303,2.144471404789388,3.658564593124389,0.1116792410612106,0.2649620771408081,-0.2988502085208893
2.3668369140625,0.2983887435412034,1.7949422200649976,5.468244363594055,0.1411862671375274,0.4248609244823456,-0.0943410173058509
2.376863037109375,0.044687282988429,1.2130637575592844,6.920879459142684,0.1821516156196594,0.293936550617218,0.0912184417247772
2.38688818359375,0.0180364458195865,0.6337448433432727,7.735116113388538,0.2436210960149765,-0.0332809872925281,0.285935491323471
2.3969140625,0.41364889793545,0.1946753076210617,8.046198078557849,0.3157473802566528,-0.4009158611297607,0.4921217858791351
2.40693994140625,0.7936727357752621,-0.1839328182019293,8.175971874940394,0.3822909891605377,-0.6808857321739197,0.6661409735679626
2.416966064453125,0.8474638010650872,-0.5474193627387285,8.041298616078496,0.408373475074768,-0.8771373629570007,0.7431055903434753
2.426991943359375,0.5629145265776664,-0.5620362824384123,7.671662170609832,0.3838396370410919,-0.9903275966644288,0.6824648976325989
2.43701806640625,0.1685207295365631,-0.4243918257459997,7.070803478628396,0.3329752087593078,-0.9991117715835572,0.5558210015296936
2.447043212890625,-0.1923711040656082,-0.109899540676549,6.829935451892018,0.265494167804718,-0.9385464191436768,0.4737676978111267
2.457069091796875,-0.3321475495517254,0.230714296990633,6.961067677146196,0.2040744870901107,-0.7863835096359253,0.4569277167320251
2.46709521484375,-0.4434161500917747,0.4385861361194402,6.882934051629901,0.1727977842092514,-0.5536405444145203,0.4428108334541321
2.47712109375,-0.7480661459848285,0.3686048373986035,6.540366230350733,0.1990697979927063,-0.2961252629756927,0.3816491067409515
2.487147216796875,-1.1949611877009272,0.0902500336371362,6.280514101681113,0.2648943364620209,-0.0802353248000145,0.2467467039823532
2.497173095703125,-1.342034786191583,-0.0141503981664776,6.26515052833259,0.3591612577438354,0.0910404324531555,0.0583904609084129
2.507197998046875,-1.107707267139852,0.1034183619637042,6.27227701921165,0.4740838408470154,0.2279636561870575,-0.1343901753425598
2.51722412109375,-0.7673311106860637,0.5264038280431181,6.427459982138871,0.6047605276107788,0.3323192298412323,-0.2793762683868408
2.52725,-0.5425621684985235,1.1867294389937073,6.478355472117662,0.7467085719108582,0.4107354879379272,-0.3466288149356842
2.537276123046875,-0.4486587634529918,1.8878155879430472,6.68078709295392,0.8730520606040955,0.4557974338531494,-0.3235073983669281
2.54730224609375,-0.3619821678558364,2.514980249178409,6.975523488000035,0.955502986907959,0.4372453391551971,-0.2245560437440872
2.557328369140625,-0.1314513285401742,3.008843086035549,7.16119452817142,0.9570735692977904,0.3330117166042328,-0.0619250647723674
2.567353271484375,0.2585001478050835,3.2447266023576256,7.154193709498643,0.8729522824287415,0.1741552054882049,0.1540279984474182
2.577379150390625,0.7361622115708887,3.1005262212157247,6.807521960031986,0.7399710416793823,0.0726163983345031,0.3953270018100738
2.5874052734375,1.0700895572114737,2.7278520154863592,6.179791627737879,0.5345435738563538,0.0814674124121666,0.5863803029060364
2.59743115234375,1.0480209332663566,2.29164071873948,5.28227521725893,0.1806513667106628,0.2796988189220428,0.7194321155548096
2.60745703125,0.6855132436990737,1.7984353228777643,3.8746903927922247,-0.2411360889673233,0.2081655263900756,0.7873454093933105
2.617483154296875,0.4717759466029703,1.1302972846105694,2.5229455289691685,-0.5941970944404602,-0.2462984025478363,0.7782036066055298
2.627508056640625,0.7681677076406777,0.3608936054341495,-0.036449615997076,-0.8864417672157288,-0.7057991623878479,0.6551575660705566
2.6375341796875,1.2376467754781246,-0.1822952801279723,-3.527222524511814,-1.028899073600769,-1.0569456815719604,0.5713689923286438
2.64756005859375,1.2767039436250924,-0.0208275378428399,-7.410930336496233,-1.0040265321731567,-0.9684885144233704,0.5770140886306763
2.6575859375,0.6146697751909495,0.5452898033641278,-11.083979966568949,-0.8355650305747986,-0.4788459539413452,0.6515251398086548
2.667612060546875,-0.037157307608705,1.257529433686286,-13.806616293233631,-0.5883067846298218,0.1517368108034134,0.7463352680206299
2.677637939453125,0.166290157472901,1.343241823893785,-15.185852975094315,-0.2882621586322784,0.7306203246116638,0.8458671569824219
2.6876640625,1.0747785918105393,0.2052570535205304,-15.041369685357807,0.0191760994493961,1.1068626642227173,0.96144437789917
2.69768896484375,1.3231965224698186,-1.580241192503273,-13.385747673177718,0.227151870727539,1.1845511198043823,0.96064293384552
2.70771484375,0.6952945599358529,-3.298113616891205,-11.44481351237893,0.2810840606689453,0.9236119985580444,0.6835364699363708
2.7177412109375,0.3960697674293071,-4.399164933273196,-10.342436792612077,0.2200088948011398,0.4226152896881103,0.139768585562706
2.72776708984375,0.756534114600718,-4.765394200646877,-10.60823058629036,0.1211124137043953,0.0741041824221611,-0.4824502468109131
2.737793212890625,1.1010124456763266,-4.0943794378995895,-11.573327664089202,0.0289322584867477,0.0052228271961212,-0.9729740619659424
2.747819091796875,1.3362927354082463,-2.405101093702763,-12.147580673217773,-0.0513620488345623,0.1448845863342285,-1.2212145328521729
2.757843994140625,1.49648066701591,-0.3900340674616396,-11.907758356142043,-0.1002149283885955,0.4568833708763122,-1.2058184146881104
2.7678701171875,1.32501175519824,1.2451735177211465,-10.800094051361084,-0.1025212258100509,0.8433420658111572,-1.0255048274993896
2.77789599609375,0.7695907261811197,2.24376662240848,-8.854672516015171,-0.0646345466375351,1.1804614067077637,-0.7786890864372253
2.787922119140625,-0.0893409559682011,2.558276370069384,-6.20601269518733,0.013748406432569,1.353790283203125,-0.5434531569480896
2.797947998046875,-1.0334614428423343,2.262125724311173,-3.3561575173199176,0.1149750798940658,1.3473325967788696,-0.3355701565742492
2.80797412109375,-1.9241727033510805,1.5517853517390787,-0.595973842549324,0.2110904306173324,1.1984601020812988,-0.1889897584915161
2.8179990234375,-2.68333249028027,0.689385555087775,1.871442106899619,0.2720195651054382,0.991546392440796,-0.139114499092102
2.82802490234375,-3.135759447160363,-0.2439776831895113,3.697220194733143,0.2651187777519226,0.7597736120223999,-0.2239356487989425
2.838051025390625,-3.102465957106649,-1.1586831288784742,4.847434185951948,0.1611086279153823,0.4807488322257995,-0.4500545561313629
2.848076904296875,-2.6582944951355456,-1.907460930263996,5.479930709734559,-0.0425251983106136,0.1030667871236801,-0.742973268032074
2.85810302734375,-2.133146147046238,-2.2625720067739485,5.835727430421113,-0.3354270160198211,-0.2710879743099212,-1.036224365234375
2.86812890625,-1.799045417600125,-2.1010379212543366,5.972408521974087,-0.6554161906242371,-0.4697480797767639,-1.2648769617080688
2.878155029296875,-1.6020846293903883,-1.3422104350194335,5.698914236921072,-0.921322464942932,-0.4367117285728454,-1.3695513010025024
2.888179931640625,-1.391102768482268,-0.0794422969620674,5.286615876811743,-1.1105400323867798,-0.2068303078413009,-1.3280779123306274
2.8982060546875,-1.1178765597809106,1.079707061188668,5.209958753588795,-1.2038969993591309,0.115379087626934,-1.1662464141845703
2.908232177734375,-0.8457838120888919,1.7074623817935586,5.441009735187888,-1.1945937871932983,0.4231819212436676,-0.93292897939682
2.918258056640625,-0.6623262101832776,1.9361412274338303,5.802765656539798,-1.1063042879104614,0.599156379699707,-0.6806191205978394
2.928283935546875,-0.6242320418495685,1.8554497341282663,6.0913704169631,-0.9713494181632996,0.5847880840301514,-0.4654660522937774
2.93831005859375,-0.5458034519746899,1.4718889543339608,6.275881181183457,-0.7952644228935242,0.4020191133022308,-0.2681795358657837
2.9483349609375,-0.3258278450109064,0.9404146180935204,6.297478095963597,-0.5862462520599365,0.1610634922981262,-0.086684837937355
2.95836083984375,-0.2400935352325439,0.4568025050831958,6.318395796307921,-0.3563083708286285,-0.067865289747715,0.0955507457256317
2.968386962890625,-0.249375450579822,0.1902502394541166,6.400118386226892,-0.1214556619524955,-0.2606824040412903,0.2846663296222687
2.978412841796875,-0.3735479198239743,0.030801198313944,6.434838401952385,0.1123605445027351,-0.3988877236843109,0.4559948146343231
2.98843896484375,-0.647969621920213,-0.0322448212509974,6.390439288255572,0.3434264957904815,-0.456224262714386,0.595104992389679
2.99846484375,-0.9992922659326344,0.0282855256985872,6.181081083026528,0.5454243421554565,-0.3805013298988342,0.663477897644043
3.008489990234375,-1.4826137619659303,0.1266086103498935,5.959868189352751,0.6984785795211792,-0.1916025131940841,0.6371932625770569
3.01851611328125,-1.9138133680306373,0.3493723136622458,5.971845042872428,0.8368565440177917,-0.0025169639848172,0.5543813705444336
3.0285419921875,-2.17923482126519,0.611014686749503,6.146226042744517,0.9489912986755372,0.1061104461550712,0.4551194906234741
3.038568115234375,-2.145054903765768,0.8296496927592902,6.269675896802545,1.030388116836548,0.1074529439210891,0.3491680026054382
3.048593994140625,-1.894856884756684,1.0194842823509127,6.3106701704919335,1.0693150758743286,0.0009139864705502,0.2747121453285217
3.0586201171875,-1.5624270111322405,1.224281024883315,6.3753346581041805,1.0523566007614136,-0.1613252460956573,0.269567996263504
3.06864599609375,-1.2373948465436695,1.3298951433256267,6.377041462022066,0.9665367603302002,-0.2960484623908996,0.3248381614685058
3.078671142578125,-1.0268211280450223,1.3322715170681476,6.0503451636135575,0.8132826685905457,-0.2486390173435211,0.3907395899295807
3.088697265625,-0.9029793520599604,1.371743695756793,5.3928796182692045,0.5797897577285767,0.0634435266256332,0.4369574189186096
3.09872314453125,-0.5214250897824764,1.6349049489744008,4.283754593285918,0.2224016487598419,0.6478208899497986,0.499178946018219
3.108749267578125,0.0324854616064578,1.9438418649390337,3.3442864622622728,-0.1881453990936279,0.989253580570221,0.6005876064300537
3.118775146484375,0.8748440484870225,1.8339140480160712,2.7015999683767555,-0.5858753323554993,1.031015396118164,0.7444678544998169
3.1288017578125,1.909638712694496,1.2250634074326603,1.409332544916868,-0.9387606978416444,0.759280800819397,0.8805668950080872
3.138826904296875,2.699047945806384,0.5130228798791766,-0.1904050829559564,-1.1843879222869873,0.1234019175171852,0.9810002446174622
3.148852783203125,2.938648729085922,-0.0024803455736488,-2.273598427700996,-1.2830008268356323,-0.5333511829376221,0.9958652257919312
3.15887890625,2.730795667722821,-0.3617788638360798,-5.026184486949443,-1.2046366930007937,-0.9423069953918456,0.9857524037361144
3.16890478515625,2.337156707637012,-0.5935832941509783,-8.169096143952011,-0.9159668684005736,-1.081940770149231,1.033793330192566
3.178930908203125,1.398662974603474,-0.6383354590691626,-11.145925258350372,-0.4688222110271454,-0.87096107006073,1.0765764713287354
3.188956787109375,0.12515110501796,-0.6242513310719281,-13.37216572254896,0.0666369721293449,-0.3526428341865539,1.0008747577667236
3.198982666015625,-0.4507078780025244,-1.0781067133199422,-14.516470197463034,0.6095895171165466,0.2895649969577789,0.835195004940033
3.209008056640625,-0.0020650427710264,-2.053116186389327,-13.991195446515082,1.0178775787353516,0.7789941430091858,0.6387767195701599
3.219033935546875,0.5929020338885486,-3.071077423891425,-11.839158867168424,1.147156000137329,0.7866228222846985,0.3880694508552551
3.22906005859375,0.7576257822949439,-3.570117371125519,-9.08699658629,0.9703710079193116,0.4534720182418823,0.0851854979991912
3.2390859375,0.8039898393891751,-3.5373294925063847,-7.129534484538436,0.5941768884658813,0.0907401442527771,-0.2060452848672866
3.24911181640625,1.152984771106392,-3.3272111165598037,-6.1894502674430605,0.1239712834358215,-0.3044827878475189,-0.4076281785964966
3.259137939453125,1.9939049957469104,-3.053971390789747,-6.288438464939594,-0.2966431081295013,-0.7435568571090698,-0.4924737513065338
3.269162841796875,2.576297764450312,-2.521791098237037,-7.26345078755319,-0.54835045337677,-1.0159772634506226,-0.4861324727535248
3.27918896484375,2.252785064513981,-1.6245866763167085,-8.404771278220414,-0.5917841792106628,-1.0128552913665771,-0.4354766011238098
3.28921484375,1.2725666976898908,-0.5890560259848833,-9.171431357777118,-0.4380609393119812,-0.7153655290603638,-0.3428126871585846
3.29924072265625,0.1165129674669355,0.2175684727568179,-8.83061593312323,-0.1672292500734329,-0.231963574886322,-0.237324446439743
3.309266845703125,-0.9414815166726708,0.5744893021024763,-7.199117723852396,0.1207442209124565,0.2783713042736053,-0.1585446745157241
3.319292724609375,-2.0824740905597805,0.4876250384461134,-4.855736150351167,0.340595543384552,0.7181819677352905,-0.1448788195848465
3.329319091796875,-3.255416338676214,-0.010308774176985,-2.123544059833884,0.4529178142547607,1.0473604202270508,-0.2272661030292511
3.33934375,-4.164636630952358,-0.5858630020972341,0.7125327680498361,0.4519053101539612,1.2166320085525513,-0.4132364988327026
3.34936962890625,-4.62590565045774,-1.1385310060791671,3.416256304451823,0.3085974156856537,1.1229915618896484,-0.7482986450195312
3.35939599609375,-3.897627324004471,-1.822898733004928,5.514426269054413,0.065220795571804,0.651738166809082,-1.202095627784729
3.369421875,-2.245682246771455,-2.1476060495533047,6.169381877404451,-0.2166918516159057,-0.1794229298830032,-1.6378090381622314
3.379447998046875,-0.3586002337999641,-1.8456508091695605,5.625489519748092,-0.460723727941513,-0.9315175414085388,-1.915791392326355
3.389473876953125,1.0191799656420946,-0.7061404366642237,4.406601805275678,-0.614171028137207,-1.2222009897232056,-1.9682015180587769
3.3995,1.3104291030943394,0.9596070290151985,2.987273936045169,-0.6762898564338684,-1.1486059427261353,-1.847783446311951
3.40952490234375,1.0634512882407754,2.423200375625491,1.9979086784303184,-0.6475018858909607,-0.8451926112174988,-1.609125018119812
3.41955078125,0.9114180945813656,3.180878399564325,1.7444775227189062,-0.5308358073234558,-0.4177230894565582,-1.2648032903671265
3.429576904296875,0.8229027757823467,3.117750035478174,2.312176287898421,-0.3430384397506714,-0.0010347990319132,-0.9259842038154602
3.439602783203125,0.5941233193118125,2.429443653929233,3.293970233476162,-0.0969917848706245,0.2165607362985611,-0.6500434875488281
3.44962890625,0.1173654195778071,1.4490885089829564,4.337437083634734,0.1843528002500534,0.1577885001897812,-0.4718324542045593
3.45965478515625,-0.5496475601822137,0.4404808638248592,5.3788756428360935,0.4663713872432709,-0.0763465017080307,-0.3581431806087494
3.4696796875,-0.7774284340694546,-0.1002861283525824,6.047130877742171,0.7309601306915283,-0.3482142388820648,-0.2610701620578766
3.479705810546875,-0.6126578508466481,-0.2162406582191586,6.406791288119554,0.9444449543952942,-0.5617650747299194,-0.1473757326602935
3.489731689453125,-0.2876894722092896,-0.0692411478780209,6.689005470722913,1.0513701438903809,-0.6730223894119263,-0.0419920422136783
3.4997578125,-0.1214926555756479,0.1517045462269335,6.873803235191106,1.076543211936951,-0.6803202033042908,0.0574276447296142
3.509783935546875,-0.1139406327608972,0.4857900781039148,6.8877353144317865,1.0813512802124023,-0.6180317997932434,0.2073436379432678
3.519809814453125,-0.1490440217807888,0.9141670279633252,6.894727365276217,1.079935073852539,-0.5221361517906189,0.3832048177719116
3.5298359375,-0.3316724793858826,1.2549465775862336,6.9494175713628525,1.085090398788452,-0.4090020954608917,0.522505521774292
3.53986083984375,-0.5894487881621345,1.4400890638388693,6.786083450683951,1.0974050760269165,-0.287361592054367,0.5944564342498779
3.549886962890625,-0.9426219188794492,1.525154242184013,6.663396397691964,1.1036592721939087,-0.1733048260211944,0.6099602580070496
3.559912841796875,-1.252254562023282,1.6370000215575098,6.661901775220036,1.096357345581055,-0.0951828882098198,0.5857996940612793
3.569938720703125,-1.4354011982835828,1.7061602131538092,6.747183518925309,1.0359715223312378,-0.0901548415422439,0.5112689733505249
3.57996484375,-1.5023928136691451,1.7123206354796885,6.780332924333214,0.905070424079895,-0.1206734851002693,0.40531986951828
3.58999072265625,-1.2992055521599948,1.8083992291398343,6.475771885365248,0.7099195718765259,-0.073652446269989,0.339127779006958
3.600015625,-0.9276466872613875,2.2794673197343944,6.031934477654099,0.4277046024799347,0.1859972476959228,0.3954538702964782
3.610041748046875,-0.4945713504526763,3.038089054264128,5.208711383876204,0.0609590895473957,0.7058676481246948,0.5495648384094238
3.620067626953125,-0.1557854223323986,3.3169416514799,4.225553164207935,-0.2685284614562988,1.1585397720336914,0.7490880489349365
3.63009375,0.2929090334884822,3.181072168570757,3.2227111699044704,-0.5787733793258667,1.521074891090393,0.9233949184417723
3.64011962890625,1.0375560917448252,2.7755589385569093,2.310001866468787,-0.9108116030693054,1.6051678657531738,1.0264036655426023
3.650145751953125,2.1145083743326363,2.103065773820132,1.650795030415058,-1.2278624773025513,1.2580373287200928,1.0955281257629397
3.660171875,3.136142893519997,1.2071300566613674,0.9083142833471296,-1.5031369924545288,0.6135164499282837,1.1145806312561035
3.670196533203125,3.797014447915554,0.7122859536819159,-0.5058838217794895,-1.6250258684158323,-0.1131156086921691,1.129631280899048
3.680222900390625,3.7489836997181176,0.8852144166581332,-3.1543764693468805,-1.5071730613708496,-0.6740289330482483,1.231917142868042
3.690248779296875,3.1466487977042794,0.9710195997156202,-6.188023449510336,-1.1660610437393188,-0.966273307800293,1.410275101661682
3.70027490234375,2.488050156676769,0.4042766008909791,-8.955691342556475,-0.6402092576026917,-1.104791522026062,1.5704206228256226
3.71030078125,1.7100170347124335,-0.3296211728792637,-10.898838503229618,-0.040642462670803,-1.1993838548660278,1.6218066215515137
3.720326904296875,1.1172811511710286,-0.9595072949677704,-12.309583253031969,0.5483894348144531,-1.140861749649048,1.5250647068023682
3.730352783203125,0.6747130327433347,-1.9116494679950176,-13.078618829548358,1.0348619222640991,-0.8492696285247803,1.3573391437530518
3.740377685546875,0.3543669070791453,-3.092974782922864,-12.597421705257892,1.3373523950576782,-0.5375201106071472,1.1736280918121338
3.75040380859375,-0.2245738032079301,-4.124935319682956,-11.049593712842464,1.3918278217315674,-0.5375877618789673,0.9766408205032348
3.7604296875,-1.169829888249561,-4.713571074429154,-9.33019451727867,1.248669147491455,-0.6835599541664124,0.6807928085327148
3.77045556640625,-1.839441140874475,-4.771377074448764,-8.418178456804156,0.9712649583816528,-0.8057955503463745,0.2680901885032654
3.780481689453125,-1.8216645150348545,-4.432883078479766,-8.024777104866505,0.5938634872436523,-0.9656963348388672,-0.1071323081851005
3.790507568359375,-1.30363447451815,-3.747020290690661,-7.999767751294374,0.1981736719608307,-0.9785280227661132,-0.3129088878631592
3.800532958984375,-1.0870867961764334,-2.702248203152418,-8.5135104698807,-0.1418318897485733,-0.6178054213523865,-0.3395292460918426
3.810558837890625,-1.6432244490303098,-1.4946208644933998,-8.588553728166222,-0.4012743830680847,0.0087628755718469,-0.2752211093902588
3.82058447265625,-2.521298346284032,-0.610165595639497,-7.447101135551929,-0.5685586929321289,0.7439208626747131,-0.2156944125890731
3.83061083984375,-3.1484608155623075,-0.2668989784412086,-5.371364536553621,-0.6650465726852417,1.389994978904724,-0.2060937136411667
3.84063671875,-3.447685754199326,-0.4081957470960914,-2.699351312667132,-0.7068952322006226,1.7853397130966189,-0.2246439605951309
3.850662841796875,-3.3499136544942854,-0.944315863315761,-0.158551562577486,-0.7121499180793762,1.878555417060852,-0.2918935418128967
3.860688720703125,-2.494404786400497,-2.11770074063316,1.394778534385562,-0.6740206480026245,1.6589252948760986,-0.4815186262130737
3.8707138671875,-1.4205737776383758,-3.290266702783108,2.1277187151700256,-0.6145029664039612,1.1323243379592896,-0.7742477059364319
3.880739990234375,-0.399360771798715,-3.633571021643281,2.494510292601585,-0.5571049451828003,0.4595378339290619,-1.0930469036102295
3.890765869140625,0.605816825845465,-3.2465012108147144,2.584295777466893,-0.5257068276405334,-0.0997909754514694,-1.3753750324249268
3.9007919921875,1.22194001471512,-2.2672183712750678,2.669633635273576,-0.536308765411377,-0.419008195400238,-1.533766269683838
3.910817626953125,1.5723514621667565,-0.8767245284713804,2.633119721868634,-0.5579512119293213,-0.5113586187362671,-1.5131845474243164
3.92084375,1.740378562967479,0.4356617731053382,2.51581845356822,-0.559303879737854,-0.3942145407199859,-1.3640685081481934
3.93086962890625,1.6969458100847898,1.3331167357206344,2.7539930034369227,-0.5251389741897583,-0.1571727097034454,-1.137489676475525
3.940894775390625,1.5489987897604702,1.8207547067135568,3.369455390310287,-0.452474981546402,0.0725251287221908,-0.885902464389801
3.9509208984375,1.1870868741292506,1.895281686040014,4.232021483439207,-0.349169909954071,0.1961437463760376,-0.6359091401100159
3.96094677734375,0.8108741190101951,1.6630998007148503,5.092966112846136,-0.2264480143785476,0.2053362876176834,-0.413442313671112
3.970972900390625,0.5331950956184417,1.2019921092510222,5.7526832365095615,-0.0900874957442283,0.1402869820594787,-0.2530774176120758
3.984758544921875,0.3235834270849824,0.6611567280124873,6.263686885520816,0.0920283272862434,-0.0019066049717366,-0.1464384347200393
3.99478466796875,0.2366489477366209,0.2985590220741927,6.500636277508735,0.2019388377666473,-0.117935262620449,-0.1252869069576263
4.004810546875,0.0876966228272765,0.2025396112553775,6.532600272524356,0.291892409324646,-0.1943208426237106,-0.1352902799844741
4.0148359375,-0.0613916034214198,0.402741573343426,6.493617338657379,0.379130482673645,-0.1746653616428375,-0.1369519382715225
4.02486181640625,-0.2711305515963584,0.6148707045905292,6.501029660740494,0.4533911347389221,-0.0593832284212112,-0.1203463226556778
4.0348876953125,-0.4445410990010947,0.817531019616127,6.658908438622951,0.5087207555770874,0.0987334176898002,-0.0937996208667755
4.044913818359375,-0.4666102344028651,1.0552052918124943,6.893371274492144,0.5412581562995911,0.2478810846805572,-0.058139894157648
4.05493994140625,-0.4609472402051091,1.3531060691736638,7.02857469470799,0.5576850175857544,0.3519525825977325,-0.0094548016786575
4.064966064453125,-0.597637026521191,1.4921299244605004,7.089791672214865,0.5672804117202759,0.3909173011779785,0.0252350009977817
4.07499169921875,-0.8420300855785607,1.5520391803696751,7.203109423837065,0.563899576663971,0.3723833262920379,0.0279571320861578
4.085016845703125,-0.9697113666612656,1.6656695050723849,7.311409055036306,0.546562671661377,0.2997027337551117,7.54337524995e-05
4.09504296875,-1.04251298349984,1.8500734479174017,7.248409285765886,0.5216231942176819,0.1761863678693771,-0.025233756750822
4.10506884765625,-1.1500147423196585,2.0351615736342965,7.048941775432229,0.4911028444766998,0.0569678209722042,-0.0142862983047962
4.115094970703125,-1.2713348178073762,2.2740815350428223,6.711154174166918,0.4568082094192505,0.0668640285730362,0.0628183558583259
4.125120849609375,-1.2853420081108808,2.488504037924111,6.0970034544140095,0.4169870316982269,0.2505116164684295,0.2092514783143997
4.135146728515625,-1.2445695604786275,2.506135848465562,5.551513013911247,0.3388290107250213,0.5348448753356934,0.3827775120735168
4.1451728515625,-1.119441471010074,2.490726682409644,5.174604531612992,0.1709862053394317,0.8610243201255798,0.523915708065033
4.155197509765625,-1.1385658581968396,2.334402148231864,5.053076585528254,-0.0640664547681808,0.9865193963050842,0.6040604114532471
4.1652236328125,-1.069365042329207,1.7948393442124126,5.074731367975473,-0.3374859988689422,0.8910525441169739,0.6358252763748169
4.175249755859375,-0.5932545736532658,1.016919765625149,4.696577269530296,-0.6566311120986938,0.6364026069641113,0.6204397082328796
4.18527587890625,0.2608395322717726,0.1875578768312931,3.4514550436049696,-0.9594690203666688,0.1736373901367187,0.5995485186576843
4.1953017578125,1.055644925338775,-0.3686673081755638,1.3790665859907865,-1.206262230873108,-0.4189928770065307,0.5834421515464783
4.20532763671875,1.569316478385031,-0.7247359776712954,-1.560517378118634,-1.3485288619995115,-0.8858115077018738,0.5622069239616394
4.215353759765625,1.5278110403031109,-0.8837953436404467,-5.235689991694689,-1.3452749252319336,-1.0452378988265991,0.5390001535415649
4.225378662109375,1.0440502030044794,-0.6992292690362781,-8.795707701349258,-1.2051258087158203,-0.935338854789734,0.4816266298294067
4.23540478515625,0.2970779897361993,-0.3082605510730296,-11.60861875770092,-0.9769288301467896,-0.6642545461654663,0.399759829044342
4.2454306640625,-0.412660106093809,0.2308150539513677,-13.52666654843092,-0.7007079124450684,-0.1996221393346786,0.3423276841640472
4.25545654296875,-0.6343799994416535,0.4359064685814082,-14.457670802491904,-0.409000426530838,0.3623045980930328,0.3587287664413452
4.265482666015625,-0.4989562144733965,0.0611444237273186,-13.98340610781312,-0.1567375510931015,0.7402018308639526,0.4407248198986053
4.275508544921875,-0.5180293098643421,-0.6580095160279422,-12.176818458139897,0.0331753008067607,0.6722536087036133,0.5082264542579651
4.28553466796875,-0.7610740230526775,-1.6806610302381215,-10.17847606446743,0.1826260387897491,0.2682044208049774,0.478856086730957
4.2955595703125,-0.8895851790882646,-2.801184378200769,-9.028839580875635,0.328724056482315,-0.2825123071670532,0.345973253250122
4.30558544921875,-0.6937494493857026,-3.828679167723656,-8.592675776532293,0.4802313148975372,-0.8815978765487671,0.1314361840486526
4.315611572265625,-0.2983573620222509,-4.149416265466809,-8.74723096294999,0.632477879524231,-1.4509910345077517,-0.1311336457729339
4.3256376953125,-0.1768553540963679,-4.03225469789803,-9.129067549300194,0.7417740821838379,-1.878064513206482,-0.4310625195503235
4.335663818359375,-0.367630439408496,-3.4130788434594868,-9.402927745056152,0.7789139747619629,-2.055178642272949,-0.7123050689697266
4.345689697265625,-0.5340791119113564,-2.3642272315226496,-9.360416052541137,0.7372146248817444,-1.921249866485596,-0.8835387229919434
4.3557158203125,-0.5929048834327608,-1.2431596936807037,-8.806067767322062,0.6301656365394592,-1.5059863328933716,-0.9353856444358826
4.36574169921875,-0.7672479624472558,-0.1505121946372091,-7.382870363181829,0.4843886196613312,-0.9961121082305908,-0.9123277068138124
4.3757666015625,-0.8823222754132002,0.8332803774118422,-5.112707170626521,0.3180875480175018,-0.5655995607376099,-0.8614874482154846
4.385792724609375,-0.9683390553947536,1.508875745947659,-2.316714515849948,0.1339325606822967,-0.2814220190048218,-0.8020288944244385
4.395818603515625,-0.9208420487478376,1.79219613622725,0.4772007481306791,-0.0502106510102748,-0.1082632839679718,-0.7699167728424072
4.4058447265625,-0.936056715144962,1.5833203076876698,2.673856221404672,-0.2250699400901794,-0.0606317780911922,-0.7474380135536194
4.41587060546875,-0.7528620019592345,1.0421481687754393,4.155829639640451,-0.4235036671161651,-0.1573910862207412,-0.7251718640327454
4.425896484375,-0.2089039221229031,0.3311293124198913,4.902923433461785,-0.6397035121917725,-0.3569859564304352,-0.7321256399154663
4.435922607421875,0.41049233360067,-0.1270420333310961,4.966131292524934,-0.8439647555351257,-0.612937331199646,-0.7767223715782166
4.445947509765625,0.8279840245693921,-0.0722415718030184,4.606338195678592,-0.9907598495483398,-0.8219825029373169,-0.8145195245742798
4.455973388671875,1.0577301341149956,0.4911649030100554,3.973607863140106,-1.0520581007003784,-0.8722808361053467,-0.818697988986969
4.46599951171875,1.1642875247567892,1.256620356017351,3.2920641075938937,-1.0187253952026367,-0.7431157231330872,-0.7843297719955444
4.476025634765625,1.3585298477880656,2.0566757785670458,3.038889556992054,-0.8919060230255127,-0.5377742648124695,-0.6718860864639282
4.4860517578125,1.7880200195863842,2.661803964561224,3.2241286354869603,-0.6738651990890503,-0.3937102556228637,-0.4835878908634186
4.49607763671875,2.1708386027112603,2.535815239675343,3.583525426492095,-0.414800614118576,-0.3026503920555115,-0.2940376698970794
4.506103759765625,2.199193467319012,1.8927390158198771,4.214688071322441,-0.1625594645738601,-0.2965949177742004,-0.058444794267416
4.516128662109375,1.8825392549753188,1.3178259353473782,5.203233244726062,0.0657290965318679,-0.3195529580116272,0.1985518485307693
4.526154541015625,1.6698646186746655,0.8945064880732446,5.964423952960968,0.2609652280807495,-0.3287121951580047,0.453216552734375
4.5361806640625,1.5360425698146225,0.6326880277667194,6.387875575247406,0.4424492716789245,-0.3540606796741485,0.6829650402069092
4.54620654296875,1.462381121276319,0.3718154700081795,6.525452738857269,0.6066678762435913,-0.3964093029499054,0.8725888729095459
4.556232666015625,1.3507149362534283,0.1541837958220392,6.482661060357094,0.744846522808075,-0.4194504618644714,0.998920738697052
4.566258544921875,1.185001007765904,0.00348513870202,6.402402113249898,0.856498122215271,-0.398211807012558,1.0540021657943726
4.576284423828125,0.9852141292847691,-0.0825477156314998,6.287745806500316,0.9212121367454528,-0.3036677241325378,1.0194226503372192
4.586310546875,0.6335101578045637,-0.1920779846042394,6.184286601069569,0.928326427936554,-0.1105093657970428,0.8763217329978943
4.59633544921875,0.131958812271431,-0.0894248348593711,6.213180687120556,0.9286646246910096,0.0739481002092361,0.6850817203521729
4.606361572265625,-0.2940911559451371,0.3250848446238786,6.294867621204257,0.9497636556625366,0.2193395793437957,0.5338208079338074
4.616387451171875,-0.3378311481460929,0.7523658890053629,6.375368560373783,0.9466392397880554,0.3612599372863769,0.4433116912841797
4.62641357421875,-0.1990354755919426,1.0709674360245465,6.53567135053277,0.8983014822006226,0.4932214021682739,0.3894884884357452
4.636439697265625,-0.175271884297207,1.3495169586405158,6.752611973714828,0.789639413356781,0.5847002267837524,0.3540820479393005
4.646465576171875,-0.2817816364049911,1.6166967998497188,6.794477185019851,0.5895969867706299,0.6098079681396484,0.3445068895816803
4.65649169921875,-0.2401690481541678,2.0080467722155158,6.472845184263587,0.3066214919090271,0.6702550649642944,0.3897558450698852
4.6665166015625,-0.1677764139752835,2.3353509733892976,5.591310186770558,0.0080724935978651,0.8597320318222046,0.4667137861251831
4.67654248046875,-0.1596770229434594,2.336496197901666,4.362316673347354,-0.2571096420288086,1.1226918697357178,0.5226825475692749
4.686568603515625,-0.1582760701043531,2.122035408836603,3.269720758360624,-0.5486595630645752,1.4068808555603027,0.4765352010726928
4.696594482421875,-0.1145514216030016,1.849056672090292,2.3156448407918213,-0.8858495950698853,1.6706411838531494,0.3337679207324981
4.70662060546875,0.0415575746945338,1.5278892201058565,1.214182313260436,-1.2452086210250854,1.8248144388198853,0.1895201653242111
4.716646484375,0.2235846277737989,1.107345740351081,-0.147262691321969,-1.572203278541565,1.7505130767822266,0.1329642087221145
4.726672607421875,0.684079922960326,1.0615607983190565,-1.5933096406519411,-1.7824615240097046,1.3982993364334106,0.1949706077575683
4.736697509765625,1.7271531706914305,1.4344186169870197,-3.4102404051631687,-1.8001928329467771,0.9094612002372742,0.3598919212818146
4.746723388671875,2.4939231403633952,1.695191806024313,-5.764996774637699,-1.6168127059936523,0.5090423226356506,0.5828798413276672
4.75674951171875,2.5287960085630417,1.6619631979003548,-8.113551951384544,-1.235379338264465,0.2365762293338775,0.8429223299026489
4.766775390625,1.7963685996063052,1.3957976483002303,-10.600610758936403,-0.6996432542800903,0.0571030341088771,1.0865153074264526
4.7768017578125,0.6933660030260682,0.820108834214881,-12.149129656225442,-0.0962727218866348,-0.0914230570197105,1.2380307912826538
4.78682763671875,0.1585188658842816,-0.1140468330817297,-12.979642907011508,0.5058624744415283,-0.2617356181144714,1.282410979270935
4.796853515625,0.1550172875041142,-1.4508603409610688,-13.390248491728306,1.0536729097366333,-0.3079111278057098,1.2431964874267578
4.806879638671875,0.27589853318315,-2.852948467707634,-13.221796297383309,1.4882619380950928,-0.307295560836792,1.1089410781860352
4.81690478515625,-0.2936451657433062,-3.974891473209858,-12.10910978052616,1.7080979347229004,-0.4066493213176727,0.808725118637085
4.8269306640625,-1.3196443829461932,-4.560108943945169,-10.641152028161288,1.7231847047805786,-0.5812820792198181,0.3706416487693786
4.83695654296875,-2.1698205117098985,-4.496756123453379,-9.466848136302827,1.566758155822754,-0.6512406468391418,-0.1055850833654403
4.846982421875,-2.6805203554689885,-4.0743993106663225,-8.426721828743815,1.2554775476455688,-0.580978274345398,-0.5359753966331482
4.857008544921875,-2.513862058803439,-3.1976942175477743,-7.294696405166387,0.8008303642272949,-0.4354660511016845,-0.8602461814880371
4.867034423828125,-1.9554107221797108,-2.013301039481908,-5.928682192972302,0.2481414973735809,-0.2418742030858993,-1.0344427824020386
4.877060546875,-1.369192549969256,-0.8283538807950913,-4.445025351694226,-0.301258772611618,0.010889334604144,-1.037037014961243
4.887085693359375,-0.9362965883154422,0.3602284195236861,-2.928361143827438,-0.7513821125030518,0.2440721243619918,-0.9241747856140136
4.897111572265625,-0.8299636540792882,1.1582236946731803,-1.5354174236536025,-1.0368887186050415,0.3929119408130646,-0.7736853957176208
4.9071376953125,-1.1633341695547104,1.4443259707562623,-0.4746025483310222,-1.1327104568481443,0.4328817129135132,-0.6254397034645081
4.91716357421875,-1.8907403893485664,0.9539270836826412,0.5674789849489927,-1.0749739408493042,0.4105923771858215,-0.5283480286598206
4.927189697265625,-2.592942025259137,0.0014106705155223,1.7246394343048332,-0.918370246887207,0.3556091487407684,-0.4860347211360931
4.937215576171875,-2.9320518150389194,-0.9957015479642898,2.6639713717281817,-0.7176472544670105,0.3341533839702606,-0.5427834391593933
4.94724169921875,-3.076203388603032,-1.977021957746148,3.406738534522056,-0.5360283851623535,0.2903360426425934,-0.737176775932312
4.957266845703125,-2.878046960867941,-2.407077946733683,3.9696155786335465,-0.402550458908081,0.0911185443401336,-0.982113003730774
4.967292724609375,-2.2768647360205647,-2.17832662037909,4.115150423249602,-0.3197206258773803,-0.2294706255197525,-1.2703956365585327
4.97731884765625,-1.6182178719371556,-1.6338871502339838,4.132545794686675,-0.2653804123401642,-0.4830533564090729,-1.5358827114105225
4.9873447265625,-0.8927268381148576,-0.4861838997270911,4.044651238134503,-0.2272257059812545,-0.593957245349884,-1.680880784988403
4.997370849609375,0.0724830889413133,0.777949096942693,3.945832551985979,-0.202740341424942,-0.6135996580123901,-1.6324008703231812
5.007396728515625,1.1449851506546138,1.7329152413494884,3.9761189691782,-0.1906523555517196,-0.5914195775985718,-1.4058148860931396
5.017422607421875,1.968095723968744,2.232320660895109,4.180981032031775,-0.1749903112649917,-0.5554389357566833,-1.0420846939086914
5.02744873046875,2.355032994458824,2.2259802058272062,4.514136297321319,-0.1407377123832702,-0.5071730613708496,-0.6232680678367615
5.0374736328125,2.2281581343881784,1.81842743280977,4.6593765429049725,-0.0573735758662223,-0.4266931414604187,-0.2280387580394745
5.047499755859375,1.646818820260465,1.2790168967425823,4.6956192381531,0.0789184272289276,-0.3391673266887665,0.1062477231025695
5.057525634765625,0.9919906376823784,0.5310099701317027,4.910894558471441,0.240681767463684,-0.2487159967422485,0.306568294763565
5.067551513671875,0.4602984209075569,-0.2242805376160889,5.237655738809704,0.4043633341789245,-0.1725850999355316,0.362904280424118
5.077577880859375,0.1662068631036207,-0.7385304020069539,5.514716776433587,0.5444349646568298,-0.11080002784729,0.3098868727684021
5.087603759765625,-0.0496451702572871,-0.9922950274564324,5.784899160459637,0.6552639007568359,-0.0599702857434749,0.1896069943904876
5.0976298828125,-0.1583722787541337,-1.008192707681656,5.978491056758165,0.7405122518539429,-0.0014321422204375,0.0203972067683935
5.10765478515625,-0.1276765318423509,-0.7052222989059984,6.174712132516503,0.7912244200706482,0.0926452428102493,-0.1736526191234588
5.1176806640625,0.0021148184631951,-0.1358892105229198,6.373683968287706,0.8148823380470276,0.212296262383461,-0.3410970270633697
5.127706787109375,0.1549157450920902,0.6034924745511263,6.524641422474384,0.8144350647926331,0.3163635432720184,-0.4217974543571472
5.137732177734375,0.3551879776710644,1.2716221103161574,6.7039610477924345,0.7880263328552246,0.3814959526062011,-0.4134662747383117
5.14775830078125,0.6959506126917898,1.8210322084806856,6.686421883970499,0.7363423109054565,0.4187142252922058,-0.3375104367733001
5.1577841796875,0.870263223502785,2.296543103828281,6.667746409595012,0.6529131531715393,0.4234165549278259,-0.2211345583200454
5.167810546875,0.8446854954581707,2.6254759291172025,6.757915925341845,0.5225263833999634,0.3756068646907806,-0.0970687270164489
5.17783642578125,0.8832508615002036,2.7983623065173626,6.65376172338426,0.3609473705291748,0.3201092481613159,0.0290905367583036
5.187861328125,1.186854161351919,2.8667689032673835,6.0731228126108645,0.1966765373945236,0.342989444732666,0.1773979514837265
5.197887451171875,1.487274301122874,2.693026201298833,5.227002242848277,0.0510642156004905,0.4567572772502899,0.3404827415943146
5.207913330078125,1.4154649101920425,2.352783608096838,4.353195209258795,-0.0918675065040588,0.6040334701538086,0.4696012735366821
5.217939208984375,1.030855132801458,2.122444428028911,3.466130050167441,-0.2396106421947479,0.6696732044219971,0.5091326832771301
5.22796533203125,0.8161926106192171,1.7976396424554288,2.7505677051633595,-0.3784815073013305,0.5884502530097961,0.515870213508606
5.2379912109375,1.1084009484924375,1.2605422056362032,1.8501655101150276,-0.5123324990272522,0.4309765100479126,0.5334164500236511
5.248017333984375,1.6221465896882117,0.4976411863520741,0.4677320780396461,-0.6298602223396301,0.1929105222225189,0.5528566241264343
5.258042236328125,2.224440282908827,0.0956898866035044,-1.4132394892275333,-0.7218487858772278,-0.1317591816186905,0.6076668500900269
5.268068115234375,2.51105372338444,0.4889945001684129,-3.591490706282854,-0.7727445363998413,-0.4166844487190246,0.7224370837211609
5.27809423828125,2.258281031581759,1.054289126815647,-6.009397067153453,-0.7747134566307068,-0.660447359085083,0.8774367570877075
5.2881201171875,1.474983851609379,1.18994591682218,-8.375635784628987,-0.7088656425476074,-0.8578638434410095,1.0429061651229858
5.298146240234375,0.330890754423663,0.7273172994013876,-10.875095224070549,-0.5285965204238892,-0.817192554473877,1.12837016582489
5.308172119140625,-1.0157318710148333,-0.1567917863633483,-13.493293855661152,-0.2391893416643142,-0.2648437917232513,1.0728849172592163
5.318198486328125,-2.167358943901956,-1.2016276598528026,-15.05898951320052,0.0526238679885864,0.6049784421920776,0.8904756307601929
5.328224365234375,-2.5947484901592133,-2.254752419064194,-14.656235226505991,0.1777431070804596,1.304951310157776,0.6104162931442261
5.338249267578125,-2.3208196130812166,-2.958427196267247,-12.180603821897506,0.0607911869883537,1.4696859121322632,0.2868592739105224
5.348275390625,-1.4649572553746402,-2.8251199650615453,-9.425613624116778,-0.2126572579145431,1.2296150922775269,0.0092609832063317
5.35830126953125,-0.4130136687718331,-2.07292651001364,-7.875338823071122,-0.5179734826087952,0.886283814907074,-0.1456415057182312
5.368327392578125,0.5741369815334677,-1.1802624349366873,-7.576169414013623,-0.7491397261619568,0.5533078908920288,-0.163290187716484
5.378353271484375,1.12254952002801,-0.4090671231031417,-8.111815336850285,-0.8457038402557373,0.2747707962989807,-0.1404165625572204
5.388379150390625,0.8601908153649419,-0.0104015670269727,-8.547426183485983,-0.8191194534301758,0.0683549642562866,-0.1601053178310394
5.3984052734375,0.7227158700205385,0.2614211315520107,-8.568630884078145,-0.7142132520675659,-0.1209648996591568,-0.2067023813724517
5.40843017578125,1.00068532772623,0.3324979338919743,-8.267847025561332,-0.5576803684234619,-0.2573333084583282,-0.2203247249126434
5.418456298828125,1.0915614573724568,0.2233401149608194,-7.829357993140817,-0.3721688091754913,-0.2868885397911072,-0.1653573364019394
5.428482177734375,0.5784349709883332,0.0473497801959514,-7.153773438259959,-0.1789061427116394,-0.1816145628690719,-0.0751387700438499
5.438508056640625,-0.3998802656281739,-0.2024930321672931,-5.8891281812191005,-0.0227873791009187,0.0065990192815661,-0.0366752631962299
5.4485341796875,-1.500533449538052,-0.4485661532660946,-3.9043104550302026,0.073965311050415,0.1851275265216827,-0.082913190126419
5.45856005859375,-2.053997060877085,-0.365755841175653,-1.9952163706064223,0.1309689432382583,0.302377700805664,-0.1243605017662048
5.46858642578125,-1.965780432763696,-0.1733890662252903,-0.3684007661938667,0.1297207623720169,0.425130695104599,-0.0842987522482872
5.4786123046875,-1.4579887315362692,0.0248743290156126,1.2956558968544003,0.0424774736166,0.6190711259841919,0.03266142308712
5.48863720703125,-1.0473136617798358,0.2916956391107291,3.1648879264891145,-0.140808954834938,0.7776753306388855,0.223862886428833
5.498663330078125,-0.8655331262409687,0.5991088161068037,5.090763049843907,-0.3773780763149261,0.9623221158981324,0.363510251045227
5.508689208984375,-1.15240112599954,0.490111558032222,5.98310644159913,-0.2166162580251693,1.219642996788025,0.2703174948692322
5.51871533203125,-1.6055824083782733,0.170844459776394,6.116683721917867,-0.057246845215559,0.5314152836799622,0.0137160643935203
5.5287412109375,-1.029097183218226,0.0599454962663352,6.480030711853503,0.0894359126687049,-0.525509774684906,0.0127936052158474
5.538767333984375,0.2214159419652074,0.4040414038956165,5.581766113355756,0.2652623355388641,-0.5446765422821045,0.1717718094587326
5.548793212890625,0.4518699075192213,0.9478421377457678,4.810728549367189,0.3492849767208099,-0.2662200629711151,0.3870066702365875
5.558819091796875,-0.2502266605816781,1.497847863715887,5.622231979256868,0.3027758002281189,-0.111537791788578,0.5283209085464478
5.56884423828125,-0.6371948376666754,1.2504875523507597,6.61573506732881,0.1881166398525238,-0.0245704650878906,0.630618691444397
5.5788701171875,-0.5423664632633328,0.6127466251086443,7.364132929486036,0.0345302820205688,0.0016241206321865,0.7257676124572754
5.588896240234375,-0.5688069456171244,0.0369569444647058,8.000830996611715,-0.1215607970952987,-0.0764412954449653,0.8011864423751831
5.598922119140625,-0.7754566956050694,-0.4005878659082576,8.317885606449842,-0.2250554859638214,-0.2116148173809051,0.8443453311920166
5.608947998046875,-1.0818865241196003,-0.795074930723384,8.109948373934627,-0.2306085079908371,-0.2954772710800171,0.8209322690963745
5.618974365234375,-1.2897602629445493,-1.3391669756703075,7.576341263449192,-0.1063312888145446,-0.3868740499019623,0.7130183577537537
5.629000244140625,-1.4938582095578312,-1.6462060951896011,7.122744093745946,0.0924266502261161,-0.5908482074737549,0.5463106036186218
