seconds_elapsed,ax,ay,az,gx,gy,gz
0.068868408203125,-0.1802986081517301,0.1363586546655744,0.1013484968870878,0.0076302755624055,0.4561052322387695,-0.1620639115571975
0.078894287109375,0.036049978837755,-0.0519889112386852,-0.1658019720971584,0.0609923005104064,0.352033406496048,-0.1106888800859451
0.088919189453125,0.1093750510115642,-0.23039233502727,-0.2669277661442756,0.1023130640387535,0.25355064868927,-0.0465784147381782
0.0989453125,0.2078188485662452,-0.2057206524442881,-0.1952121909767389,0.0925773456692695,0.1883354187011718,0.0087905693799257
0.10897119140625,0.2596358921030536,-0.112176509165205,0.0953904652655124,0.0511041395366191,0.1545778512954712,0.0315248183906078
0.118997314453125,0.1403405365091282,-0.1403375317012891,0.3272662072509527,-0.0019518886692821,0.1188456863164901,0.0279252938926219
0.129022216796875,-0.0182137477484066,-0.1449396917345002,0.4420867646515369,-0.0460568815469741,0.0798350721597671,0.0160102862864732
0.139048095703125,-0.0558010077395942,-0.1063806093027815,0.4325672411561012,-0.0553811378777027,0.0362937189638614,0.0138845518231391
0.14907421875,-0.0470975681337062,-0.088760416133888,0.2614712543040514,-0.0422093532979488,-0.0171598698943853,0.0261317752301692
0.15910009765625,-0.0148733238798566,-0.0039895080275833,0.1708370436549186,-0.0187575574964284,-0.082824632525444,0.0272929146885871
0.169126220703125,0.033754088736209,0.0636637496044859,0.1411713887095451,0.010372182354331,-0.1408357173204422,0.0101119512692093
0.179151123046875,-0.0155086398084415,0.0598496346764266,0.1071785182148218,0.0453778393566608,-0.1951135993003845,-0.0041303671896457
0.189177001953125,0.0033640787387732,0.0287030935235321,0.1662438706457615,0.073594830930233,-0.2470489591360092,0.0040348847396671
0.199203125,0.1607140378409996,0.0106646018773317,0.2950789248734712,0.0699606761336326,-0.295013278722763,0.0360788404941558
0.20922900390625,0.2971723169561475,-0.001573094535619,0.5429068537503481,0.026689026504755,-0.3286210596561432,0.0697651132941246
0.219254150390625,0.3154884930325672,-0.0155286642497405,0.8690601313233375,-0.0588114932179451,-0.3333369791507721,0.0810457319021225
0.2292802734375,0.2022695256097242,-0.0084848101528361,1.1270207471579312,-0.1451193690299987,-0.3251585662364959,0.0723284259438514
0.239306396484375,0.1121446892548352,4.39487395808e-05,1.219109832790494,-0.2002851516008377,-0.3301400244235992,0.0652081966400146
0.249332275390625,0.1845171391622163,-0.0245116697156801,1.1074001008868215,-0.2117645293474197,-0.3332187235355377,0.0701632648706436
0.259358154296875,0.2613641772003844,0.0126440121915191,1.007035938861966,-0.1913556605577469,-0.3212225139141083,0.0930510014295578
0.269383544921875,0.3528608864303678,0.0756233962610364,0.9959662633150816,-0.1725095808506012,-0.2879329323768616,0.121911235153675
0.279409423828125,0.4256252399984747,0.1021776411876082,1.1350339577436446,-0.1602300107479095,-0.2500284314155578,0.1389019340276718
0.289435302734375,0.5241270056849345,0.0387303108127787,1.3049170616745949,-0.1525069326162338,-0.1949606835842132,0.1555305570363998
0.29946142578125,0.5872007900396362,-0.0643428179098293,1.4082915114313364,-0.1353449821472168,-0.112563282251358,0.1771956384181976
0.309486328125,0.5680459711819886,-0.105508831436932,1.4652520005375147,-0.101937435567379,-0.0165418554097414,0.2203737050294876
0.31951220703125,0.6754103673577309,-0.0869747017608955,1.5384925933152436,-0.066699281334877,0.0634270086884498,0.3022203743457794
0.329538330078125,0.9149968298509716,-0.0292770940192043,1.6658377012461425,-0.0542132444679737,0.1046079918742179,0.4098424911499023
0.339564208984375,1.2202411749079822,0.0133075906667858,1.9397154326587915,-0.081408642232418,0.0855520069599151,0.4908236265182495
0.34959033203125,1.2746487646609543,0.0202362939514219,2.436299511173367,-0.1493107080459594,0.0370765626430511,0.5182639360427856
0.359615234375,1.086160621242225,-0.1260157407569699,2.869047369593382,-0.2370293736457824,-0.0414882898330688,0.5222120881080627
0.36964111328125,1.0061303683243692,-0.2603666357967071,3.3028234020173546,-0.3400973379611969,-0.1356582641601562,0.5241082310676575
0.379667236328125,1.0887890700496732,-0.364553223920241,3.696379067733884,-0.4204784631729126,-0.207552969455719,0.5371044278144836
0.389693115234375,1.0853666943855582,-0.4085662609089165,3.789364225423336,-0.4614512920379638,-0.2473014444112777,0.5310707092285156
0.39971826171875,0.8795159127555787,-0.3532547811187803,3.832349380668997,-0.4250160455703735,-0.247543528676033,0.4930024445056915
0.409744140625,0.3717582599282265,-0.2622545136362314,3.5441742438346147,-0.309878408908844,-0.2299640029668808,0.4407531321048736
0.41977001953125,-0.0674053472856059,-0.2293773858310654,3.07684899303019,-0.1808093935251236,-0.1985323131084442,0.4084726870059967
0.42979638671875,-0.4431598007105291,-0.1610314149607904,2.705372472652793,-0.1002123057842254,-0.1832044869661331,0.4046931266784668
0.439821044921875,-0.6378148692611605,-0.2134627179384231,2.483320790067315,-0.0872704088687896,-0.1947703212499618,0.4280831217765808
0.449846923828125,-0.7369315885081886,-0.4509690496893599,1.905428547653556,-0.1326840221881866,-0.2351660430431366,0.4799570143222809
0.459873291015625,-0.8590854114063083,-0.7363671595584601,1.040809613648057,-0.2457391917705536,-0.30951589345932,0.5674682259559631
0.469899169921875,-0.9345224182497708,-0.8114515535719692,0.0366840092748403,-0.4194235205650329,-0.3683071434497833,0.6521444916725159
0.47992529296875,-1.1708877998046576,-0.5336514610838144,-1.1577139915853738,-0.5550756454467773,-0.3841526806354522,0.7096700668334961
0.489950439453125,-1.4181908280245958,-0.0799191663593519,-2.7543945699751378,-0.5716761350631714,-0.3780905604362488,0.7264542579650879
0.4999765625,-1.6266832102045417,0.3884217368941753,-4.708509699386358,-0.4784583747386932,-0.3774716258049011,0.7382427453994751
0.510002197265625,-1.411448660288006,0.8285373476032167,-6.384744876006245,-0.351406842470169,-0.3170793056488037,0.7276964783668518
0.520028076171875,-1.0549618384454398,1.1772223365884271,-7.626579750823974,-0.2370946407318115,-0.1715753376483917,0.6716105937957764
0.530053466796875,-0.9780851541876792,1.111315447699651,-8.602387607729435,-0.1451724022626876,0.0190445072948932,0.6136460304260254
0.540079345703125,-0.5958827301997691,0.9135010383352636,-9.399328259259462,-0.1072937324643135,0.2262717187404632,0.5340989828109741
0.550105224609375,-0.1539163039922714,0.7253017217952757,-9.884557415544986,-0.152659609913826,0.4071248769760132,0.4146516919136047
0.56013134765625,0.1021252168806269,0.3210154032278806,-10.162820230174065,-0.2542741298675537,0.5075699687004089,0.2332755327224731
0.5701572265625,0.2596000536046922,-0.0150222856301814,-10.40481346154809,-0.3276525437831878,0.4729101955890655,-0.0118268961086869
0.580182373046875,0.1798891323016956,-0.400370679493621,-10.767103635907173,-0.2928271889686584,0.2644281089305877,-0.2544704377651214
0.590208251953125,0.3242007917983457,-0.6710272569026797,-11.104160000288486,-0.1668471246957779,-0.0228120125830173,-0.4602106213569641
0.600234130859375,0.4754663620861247,-0.7050179354403168,-10.969715289485451,-0.0048494231887161,-0.271737664937973,-0.6321528553962708
0.61026025390625,0.1431691018654033,-0.7004841644681989,-10.350103381717204,0.1620866060256958,-0.4260123074054718,-0.7695907950401306
0.62028515625,-0.2495111327234655,-0.5611807981202378,-9.331047919237614,0.2828066349029541,-0.5077857375144958,-0.880073606967926
0.630311279296875,-0.5825769661638885,-0.3884294818092137,-7.999741447809338,0.3207078874111175,-0.5279577970504761,-0.9960163831710817
0.640337158203125,-1.1079820654932409,-0.368192566803284,-6.616437078118324,0.3187568783760071,-0.4724500477313995,-1.1477899551391602
0.65036328125,-1.911732762364298,-0.3532705632098019,-5.491168727585673,0.337990790605545,-0.365251213312149,-1.3023453950881958
0.660389404296875,-2.698824073922634,-0.2911601257282309,-4.732686109265685,0.4425390362739563,-0.2030466198921203,-1.4214653968811035
0.670414306640625,-3.3555005147159096,-0.2396823788820765,-4.26159303036034,0.6351385116577148,-0.0247557498514652,-1.4641501903533936
0.6804404296875,-3.5383959526941178,-0.4502900909818708,-3.650757134243846,0.8276576399803162,0.0981019958853721,-1.3744879961013794
0.69046630859375,-2.968800121721625,-0.8955432837750762,-2.415046295264363,0.903329372406006,0.2107290774583816,-1.1583704948425293
0.7004921875,-2.0045536694027484,-1.228732086008042,-0.6363280647695064,0.8071602582931519,0.3063648045063019,-0.8624573349952698
0.710517333984375,-1.0309167998608202,-1.6169539894811809,1.238729310017824,0.5550609230995178,0.3481943607330322,-0.5360936522483826
0.720543212890625,-0.2419925007216632,-1.917602677311003,3.0080677177488804,0.217957466840744,0.3486369848251343,-0.2497790455818176
0.7305693359375,0.2567033823151141,-1.927884709611535,4.476397810557485,-0.0426178947091102,0.3582202494144439,-0.0543881654739379
0.74059521484375,0.189401605001837,-1.8891846843391653,5.1263300377875565,-0.1084009036421775,0.2920286953449249,0.0611064694821834
0.750620361328125,0.1009608127437532,-1.4721210095241666,5.473239687663316,-0.0283821634948253,0.1617574691772461,0.1246121525764465
0.760646240234375,0.4333579896749928,-0.7876744452085346,6.113188865539431,0.1530848294496536,0.0145003665238618,0.1155174598097801
0.770672119140625,0.2994878273569047,-0.2383125700999051,6.74669602766931,0.3616896867752075,-0.1346882581710815,0.0466892197728157
0.780697998046875,0.0845694672500714,0.273153380927164,7.557943436971306,0.5439798831939697,-0.2297908067703247,-0.0324838943779468
0.79072412109375,0.17577201583907,0.657096565901488,8.318926055413485,0.692292332649231,-0.2564179599285126,-0.0823392122983932
0.800749267578125,0.4550174848299473,0.8170587259292602,8.848361433172226,0.7815172672271729,-0.2396639883518219,-0.0802014917135238
0.810775390625,0.8494123047843575,0.926141981786862,9.344431132423876,0.7973147630691528,-0.1751930862665176,-0.0220860633999109
0.82080126953125,0.9358312358260156,1.160198355747014,9.738150464269518,0.7455011010169983,-0.0874430015683174,0.0933174937963485
0.8308271484375,1.1624303525827824,1.3813397916197776,9.97069606834054,0.6293160915374756,-0.0307639464735984,0.2398806363344192
0.840852294921875,1.4777750897631048,1.5443568091735242,10.231661711210013,0.4450290501117706,0.0437710098922252,0.369852751493454
0.850878173828125,1.4710411053329706,1.748136191356927,10.4995352337718,0.2209036201238632,0.176966592669487,0.4636245667934418
0.860904541015625,1.2353867215916514,2.0097592752218247,10.490203926324844,0.0014476992655545,0.3462962508201599,0.5329998731613159
0.870930419921875,1.1244402291454374,2.3330472264915705,10.276277098006007,-0.1845361441373825,0.5154561996459961,0.5658087134361267
0.880956298828125,0.9612227205835282,2.6190213461503387,9.926561158537863,-0.3134366273880005,0.667069137096405,0.5591606497764587
0.8909814453125,0.715930155403167,2.801101083831489,9.378895712083578,-0.3833284080028534,0.7634595036506653,0.5314324498176575
0.90100732421875,0.6437390716783702,2.8449393487751484,8.741630074203014,-0.3904462158679962,0.7911766171455383,0.4781867861747741
0.911033447265625,0.5184349680557847,2.821298653207719,8.035707079681753,-0.3410539329051971,0.7523887157440186,0.388219267129898
0.921059326171875,0.3395351755850017,2.7610917295262216,7.368288295599818,-0.2701872289180755,0.6210155487060547,0.2745350301265716
0.931084228515625,0.3600399842794984,2.549171564854681,6.93161186555922,-0.1957127600908279,0.4107124507427215,0.1605503261089325
0.9411103515625,0.4359215200200677,2.0904672812707723,6.586088117083907,-0.1210944354534149,0.165437176823616,0.0729701593518257
0.95113623046875,0.471479849733226,1.5949650066435337,6.304121771761775,-0.0764834582805633,-0.0983116552233696,0.0322925597429275
0.961162353515625,0.6271280555520207,1.279647157470137,6.266162920245528,-0.0831253826618194,-0.3073668777942657,0.0387928038835525
0.971187255859375,0.8416442280661314,0.9421846965059636,6.211434135714173,-0.1250480115413665,-0.3874633014202118,0.0542687401175498
0.981213134765625,0.8099524741206318,0.6654299483522772,6.009502281093597,-0.1951432079076767,-0.3628964424133301,0.0376570038497448
0.9912392578125,0.5435312692590057,0.5166342387767509,5.73146100026071,-0.2602497637271881,-0.274054616689682,-0.039129976183176
1.00126513671875,0.2434602717192843,0.004717895367369,4.927451725518703,-0.2737653255462646,-0.2234566956758499,-0.1670312136411667
1.011291015625,0.0659619435442611,-0.8187652375862002,3.642591363444924,-0.2008167207241058,-0.2663499712944031,-0.2777078449726105
1.021316162109375,0.1675155710820108,-1.838767333266139,1.819188772571087,0.0173073466867208,-0.3294088542461395,-0.2841572165489197
1.031342041015625,0.614032646331191,-2.720515973509848,-0.5510469055861235,0.3677605986595154,-0.351390540599823,-0.1381193697452545
1.041367919921875,1.11238256547451,-2.913739913278818,-2.9586282717973,0.6434302926063538,-0.2517193257808685,0.1229415163397789
1.051393798828125,1.199917787194997,-2.477635730168223,-4.757907644283772,0.626297652721405,0.0178094487637281,0.4316681623458862
1.0614189453125,0.9705420453317464,-1.8849476312913,-5.921704755175114,0.263288289308548,0.4417093396186828,0.6854003071784973
1.071445068359375,0.6170723062880337,-1.4302657350912689,-6.978911961394548,-0.3160988390445709,0.9054889678955078,0.8529925346374512
1.08147119140625,0.3232699406890198,-1.1832003150194883,-8.640715292558074,-0.8509817123413086,1.1746639013290403,0.9906084537506104
1.091497314453125,0.8794492041949182,-1.276253277248144,-11.13272207790613,-1.1454943418502808,1.0523535013198853,1.0659713745117188
1.101523193359375,1.428145381936431,-1.2526133123330772,-13.533016794240474,-1.186934232711792,0.6304133534431458,1.0113654136657717
1.111548095703125,0.7192699673503636,-0.5570219248751178,-15.04115808843374,-0.9999208450317384,0.1231078878045082,0.794560432434082
1.12157421875,-0.8916698764078319,1.049066058405116,-15.825819104105234,-0.6601331233978271,-0.1743405759334564,0.4219434261322021
1.13160009765625,-2.7013930476278065,2.425756051457673,-16.401705267393588,-0.2727460265159607,-0.415876030921936,-0.0177216660231351
1.141626220703125,-3.559099425765872,2.2753709903314707,-16.338651722109315,0.0592537596821785,-0.7259872555732727,-0.4266321957111358
1.151651123046875,-3.991845238359272,1.450759510935098,-15.791761351680757,0.2949199378490448,-0.9806991219520568,-0.7091695666313171
1.161677001953125,-4.314428256230056,1.059574300676957,-14.891324085319042,0.4369316697120666,-0.9905017018318176,-0.814902126789093
1.171703125,-4.30125313283652,1.0704870320964603,-13.790007688260078,0.4747136533260345,-0.749489426612854,-0.7731703519821167
1.18172900390625,-4.169946135537326,1.019453594951704,-12.47755964655876,0.3832590878009796,-0.4273721277713775,-0.6132358312606812
1.19175390625,-3.575912321139872,0.6854021845400333,-10.704407818019387,0.1616260707378387,-0.1504767537117004,-0.3644574880599975
1.201780029296875,-2.571820619036257,0.0701479239920154,-8.689858970433473,-0.1228586360812187,0.0313516333699226,-0.0878418609499931
1.211805908203125,-1.7116478507846593,-0.4819233927384018,-6.622732378870248,-0.3733274340629577,0.125480055809021,0.1448276489973068
1.22183203125,-1.3276828741036355,-0.6288328136432916,-4.827576223793626,-0.5110927224159241,0.1470979899168014,0.2789023816585541
1.23185791015625,-1.1337443563245235,-0.4179409325735643,-3.377273370584845,-0.5098389983177185,0.1001482009887695,0.3016004264354706
1.2418828125,-0.9179398245003074,-0.1440610000706743,-1.9355495451509952,-0.4064643979072571,0.0100960657000541,0.2273040562868118
1.251908935546875,-0.6873436739966273,-0.0125874414323829,-0.3568804242700338,-0.250138372182846,-0.0934116393327713,0.0911852568387985
1.261934814453125,-0.3178516054347157,0.1613666017319075,1.298818160277605,-0.0749966576695442,-0.1477063000202179,-0.0807947590947151
1.2719609375,0.0536156721903011,0.2637223211664706,2.779564667066932,0.0873430520296096,-0.160512775182724,-0.2569646537303924
1.281986083984375,0.3391071594312786,0.3051176682037301,4.190423983159661,0.2230614721775055,-0.147339716553688,-0.4137057960033417
1.29201171875,0.5620158241722732,0.3540108601830899,5.310553217238187,0.3136928379535675,-0.122758463025093,-0.5611754059791565
1.3020380859375,0.687561554531008,0.4617920569987967,6.202194013682007,0.3489110171794891,-0.1037845090031623,-0.6918495297431946
1.31206396484375,0.836594178134948,0.4646376922208815,7.025591294983029,0.3400818407535553,-0.181359201669693,-0.764450192451477
1.322090087890625,1.1803478481978178,0.2816494613926857,7.791884879314899,0.3225265443325043,-0.2803832292556762,-0.7402998805046082
1.332115234375,1.6048846353724595,-0.0661172437038272,8.271677397504448,0.2970639765262604,-0.3522566258907318,-0.6113179326057434
1.34214111328125,1.8816297389149663,-0.2455011481634341,8.855083434903621,0.2581323087215423,-0.3523013591766357,-0.394128143787384
1.352167236328125,1.984710174161196,-0.3736440736748277,9.373058676493168,0.2017929702997207,-0.2954156100749969,-0.1233810409903526
1.362193115234375,2.100852920076251,-0.4078844161245972,9.916448929846286,0.1093732789158821,-0.1554502546787262,0.1388204842805862
1.372218017578125,1.994275582624972,-0.2118955599532462,10.375654002559184,-0.0355270989239215,0.0536989942193031,0.3573772013187408
1.382244140625,1.71572649840042,0.0812527804501354,10.566998412191868,-0.2088725119829177,0.2643861770629883,0.535617470741272
1.39227001953125,1.7720516122125087,0.4943752433586865,10.62578027150631,-0.3749621212482452,0.4333831369876861,0.6593811511993408
1.402296142578125,1.759911969346553,0.8652329011853784,10.560545290529728,-0.5022228956222534,0.5468642115592957,0.710098922252655
1.412322021484375,1.5955575657092034,1.1544180187799036,10.342460173487662,-0.5713983178138733,0.6306554675102234,0.7024620175361633
1.422346923828125,1.5511390166595578,1.398000565171987,9.984447530317306,-0.588905930519104,0.6632477641105652,0.6423875093460083
1.432373046875,1.4542059981271624,1.6610232867017387,9.592131051006913,-0.5778947472572327,0.6269066333770752,0.5383911728858948
1.44239892578125,1.33198743942976,1.8135592422515152,9.218848942512274,-0.5481507182121277,0.524107813835144,0.386991024017334
1.452425048828125,1.186054243145883,1.7324724660180508,8.7939143881917,-0.4939528703689575,0.3575004041194916,0.2107404172420501
1.462449951171875,1.0681408342964946,1.4517713183261454,8.33236070652604,-0.3987709581851959,0.195292592048645,0.0646884143352508
1.472475830078125,1.1374526362579316,1.126553568037599,7.925834500077366,-0.2876199185848236,0.0709764286875724,-0.0326419547200202
1.482501953125,1.2099038322236388,0.9309637028548866,7.666552864772081,-0.1780966073274612,0.0062935696914792,-0.0802504867315292
1.492528076171875,1.2912586848087608,0.6923271614976226,7.375124863621592,-0.1050257682800293,-0.0381184853613376,-0.0837766602635383
1.50255419921875,1.3927365071639417,0.4149866858778521,7.186499065297841,-0.0930252969264984,-0.0534652173519134,-0.0639161393046379
1.5125791015625,1.402841867723316,0.1424210599770769,6.9878966473609205,-0.1591107696294784,-0.0507398657500743,-0.0439921431243419
1.52260498046875,1.2877823870003222,-0.2572045367702841,6.707936965686082,-0.2775396704673767,-0.0310042444616556,0.0031439459417015
1.532631103515625,1.2533514173492788,-0.682192136452347,6.161915779307484,-0.3928332328796386,0.0265484265983104,0.0944643393158912
1.542656982421875,1.180485941494256,-1.0000366545591504,5.13326246739924,-0.4479407072067261,0.1116934120655059,0.1686413586139679
1.552681884765625,0.7532380687300115,-1.1571226015634837,3.7039176465451713,-0.4217706620693207,0.21383598446846,0.185834065079689
1.5627080078125,0.1745667134362273,-1.4030238001614808,1.719108688184619,-0.3119610846042633,0.2425083816051483,0.2302667647600174
1.57273388671875,0.020934998538997,-1.986552587157488,-0.6824515180408954,-0.1398049592971801,0.1866275817155838,0.3670106530189514
1.582760009765625,0.158521770227421,-2.468895082090795,-3.035963440412283,0.0115278270095586,0.1749261915683746,0.5603345632553101
1.59278515625,-0.5536757562523708,-2.2577760046690702,-5.3955970605343575,0.0290790814906358,0.4304182529449463,0.7831116318702698
1.60281103515625,-1.7133191449977456,-1.0807504327617583,-7.924289024201035,-0.1903336942195892,1.1800483465194702,0.9357661604881288
1.612837158203125,-2.99268193256855,0.9925294207341968,-10.70634609260559,-0.5868192315101624,2.239593744277954,0.8916612863540649
1.622863037109375,-3.929059988622367,2.3489403766721484,-14.11598853187561,-0.96126526594162,2.7490439414978027,0.6995448470115662
1.632888916015625,-2.8601854332238434,1.3360422677785158,-18.21063684984445,-1.15804123878479,2.0397841930389404,0.4488312900066376
1.6429140625,-0.6863795782048255,-0.7764857463918626,-21.60911492102146,-1.037159442901611,0.4575153291225433,0.1944301873445511
1.65293994140625,0.1789897357765585,-1.421187671753019,-23.930485153722763,-0.4860125780105591,-1.0100685358047483,-0.0383988693356514
1.662966064453125,-0.1751977961476892,-0.236532554815337,-25.455904914975164,0.2577606439590454,-1.8940696716308596,-0.197694256901741
1.672991943359375,-1.038459908716753,1.406008222799748,-24.62611530228853,0.8233631253242493,-2.2897098064422607,-0.2584292590618133
1.683016845703125,-1.2224346663642671,2.058002204865217,-21.201932296490668,1.0223329067230225,-2.2033801078796387,-0.3146206140518188
1.69304296875,-1.2502137038454413,1.726249499849975,-17.15340860083699,0.8956705331802368,-1.8127650022506716,-0.3024313151836395
1.70306884765625,-0.9216706085264682,1.21009760123007,-13.497629839038847,0.6491020321846008,-1.314121127128601,-0.1823991686105728
1.71309521484375,-0.2825712889453396,1.1048902369577438,-11.0151723878026,0.4843372702598572,-0.783106803894043,-0.0188253130763769
1.72312109375,0.0622288579631596,1.1329746140610426,-9.641328504896164,0.4401405155658722,-0.3133233785629272,0.1367032825946808
1.73314599609375,0.3261293487081304,1.066609094684571,-8.320802955201268,0.379825085401535,0.0427452027797699,0.232705146074295
1.743172119140625,0.5804768155468627,0.8551261523865162,-6.495254584470391,0.2560448050498962,0.1760201752185821,0.194487988948822
1.753197998046875,0.5721753991369157,0.386832933332771,-4.559209364756941,0.1512957066297531,0.0711720064282417,0.0540007688105106
1.76322412109375,0.4701922576081007,-0.1657995244117453,-2.9746424180090427,0.1256316155195236,-0.2270820587873459,-0.0789966955780983
1.7732490234375,0.9954276263937354,-0.3990545919263735,-1.6218693801820276,0.1980050355195999,-0.5873653292655945,-0.1913953870534896
1.78327490234375,1.6315440942391752,-0.3873578339897096,-0.029446459236741,0.3475590944290161,-0.8753488659858704,-0.3058375418186188
1.793301025390625,1.79269999409616,-0.3754752346247434,1.82753866776526,0.4858883917331695,-0.9889598488807678,-0.4165158867835998
1.803326904296875,1.8487097583487628,-0.0958841670665889,4.022318410295248,0.5739245414733887,-0.8455110788345337,-0.5131465792655945
1.81335302734375,1.7155108098231255,0.3180151254333555,6.134923727485537,0.6052563190460205,-0.5742332935333252,-0.5842618346214294
1.8233779296875,1.586759342225641,0.7119225271970033,8.150583751183747,0.5942337512969971,-0.213259145617485,-0.6697183847427368
1.83340380859375,1.2754574506953358,0.8751715999409556,9.524990528669951,0.5693206191062927,0.1947838068008422,-0.7551877498626709
1.843429931640625,1.0236726008862256,0.6129630443383007,10.162422755289075,0.4736204445362091,0.375177800655365,-0.7304474711418152
1.853455810546875,1.2950871570557354,-0.0730149536285782,10.454002147608994,0.318126767873764,0.4142608344554901,-0.5669556856155396
1.863481201171875,1.912899029664695,-0.7384777950368822,10.299414812487363,0.1809175014495849,0.2810468375682831,-0.3071906566619873
1.873507080078125,2.1449144723817706,-1.1240362514544278,10.27081181833744,0.114700935781002,0.076788030564785,-0.011519756168127
1.88353271484375,2.021245422615111,-1.158397882196307,10.215929889070988,0.08737263828516,-0.0652215704321861,0.2489182353019714
1.893558837890625,1.81220782764256,-0.6600200521327555,10.339504830813407,0.0556081347167491,-0.0628268644213676,0.4262360632419586
1.9035849609375,1.4891434559956191,-0.00610660977941,10.708896946132182,-0.0143067697063088,0.065953217446804,0.5035324692726135
1.91360986328125,1.1106633404664694,0.6224032920524477,11.15865029988885,-0.1126060038805008,0.2784498929977417,0.519145131111145
1.92363623046875,0.936740167364478,1.2656187782481312,11.312841329169272,-0.2162703424692154,0.503629744052887,0.4832438230514526
1.933662109375,0.9255406548928468,1.7594314923532306,11.127550228226184,-0.2890837490558624,0.6559169888496399,0.3882981240749359
1.943688232421875,0.7581941567674279,1.9773829000130292,10.658085627305509,-0.2968721687793731,0.6856828331947327,0.2443025857210159
1.953713134765625,0.5938634627992287,1.93981611655429,9.87554058087468,-0.2412968873977661,0.55912846326828,0.0912101119756698
1.9637392578125,0.6433081329151987,1.8548557137578725,9.16866890732646,-0.1530956476926803,0.3385814428329468,-0.059088047593832
1.97376513671875,0.6105628513287753,1.620344216441363,8.576123285660147,-0.0586041435599327,0.0906371921300888,-0.1801319718360901
1.983791015625,0.6742947342660278,1.316948714121431,8.159692940312624,0.0287075918167829,-0.1504207104444503,-0.2626798450946808
1.993817138671875,0.8816127389043569,1.0429491829600184,7.944102562695741,0.1042161360383033,-0.3717379868030548,-0.3046666979789734
2.003842041015625,1.0450881677500905,0.7219676820017397,7.8960870120674365,0.1585880368947982,-0.4837071299552917,-0.3309598267078399
2.013867919921875,0.9517001283481716,0.6032491673145443,8.085760273617506,0.1929293870925903,-0.4388568103313446,-0.3160783946514129
2.02389404296875,0.8295483512766659,0.5225455086471512,8.197654714438318,0.1919464170932769,-0.2917712330818176,-0.2392121255397796
2.033919921875,1.0708131222456694,0.5050720304725691,8.338001342761515,0.1100864708423614,-0.0882730931043624,-0.1313830316066742
2.043945068359375,1.2318544558122753,0.4267179671386256,8.51632611182332,-0.0495407320559024,0.1215738803148269,-0.0061582806520164
2.053970947265625,1.2950615842230615,0.0615180336795281,8.413616847977043,-0.2534732818603515,0.2284510880708694,0.1420225501060485
2.063996826171875,1.5736518772408363,-0.3034419170112349,8.029202520093321,-0.4427633285522461,0.2637073397636413,0.293845385313034
2.07402294921875,1.650094188669324,-0.5981038768479601,7.096369881561398,-0.573308527469635,0.2168402969837188,0.415018230676651
2.084048828125,1.4790261127375066,-0.7958357590280473,5.920511745998263,-0.6296572685241699,0.1309126019477844,0.4489442408084869
2.094073974609375,0.9451374088317156,-0.85590721976161,4.59671871894002,-0.5839142799377441,-0.0042074955999851,0.4003922343254089
2.104099853515625,0.3176255781264975,-1.17849301411137,2.87513107342124,-0.3845745921134949,-0.1324504166841507,0.3274173438549042
2.114125732421875,0.1107187481049448,-1.4713266442760824,0.7716951511144637,-0.0687158182263374,-0.14419025182724,0.3088734447956085
2.12415185546875,-0.2256940211432054,-1.2279819982931015,-1.313861415630579,0.2049404978752136,0.0856224447488784,0.4331482648849487
2.1341767578125,-0.6811762374080718,-0.1186120951706543,-3.137923347195983,0.2306562811136245,0.6170313358306885,0.629919171333313
2.14420263671875,-1.6618351876065134,1.3961594673499464,-5.050346283781528,-0.096399076282978,1.436184287071228,0.7308077216148376
2.154228759765625,-3.587053016096353,2.611956230069697,-7.669498855096101,-0.6341016292572021,2.162261962890625,0.8052182793617249
2.164254638671875,-4.499708251257241,2.7022005646184084,-11.71540739981532,-1.1044576168060305,2.2644662857055664,0.9622297286987304
2.17428076171875,-3.222800601753592,1.858580433369428,-16.518424936413766,-1.3062493801116943,1.627088189125061,1.107093095779419
2.184305908203125,-1.575303443840146,0.4256071563525125,-20.871920589923857,-1.1946983337402344,0.4345038533210754,1.1451091766357422
2.194331787109375,-1.284143299845606,0.0986718980889767,-23.174188647270203,-0.8939080834388733,-0.4373431503772735,0.957099676132202
2.20435791015625,-2.9316499562397595,2.1515099251240493,-23.27624850729704,-0.5465178489685059,-0.8139045238494873,0.4511747062206268
2.214384033203125,-4.565715970171988,3.109922995114326,-22.055815901470183,-0.1841212958097458,-1.0656861066818235,-0.3012041747570038
2.224408935546875,-5.37052633216381,1.992027219176292,-20.377340252447127,0.1583641469478607,-1.1597164869308472,-1.0071879625320437
2.23443505859375,-5.703424992343783,1.237185295446217,-19.069440960091352,0.5378090739250183,-1.1161062717437744,-1.3771378993988037
2.2444609375,-4.685266478703916,0.8096753376796841,-18.04277268452048,0.8419921398162842,-1.0102864503860474,-1.3783153295516968
2.254487060546875,-2.680328047767281,-0.2373470130033791,-16.422670898532868,0.8358762264251709,-0.8206524848937988,-1.1291841268539429
2.264511962890625,-0.9863264744408428,-1.5903933148138223,-13.651681752109528,0.5102584362030029,-0.5826984643936157,-0.6984071731567383
2.2745380859375,0.6841913474455475,-2.647946996383369,-10.70384667700529,0.0403581634163856,-0.3350884020328522,-0.1410963386297226
2.28456396484375,2.0989646221116183,-2.990675853443145,-8.243034071344137,-0.3307655751705169,-0.1547737419605255,0.3585425019264221
2.29458984375,2.679485459463298,-2.370401243982464,-6.559945960089564,-0.5655880570411682,-0.0598578676581382,0.6628413796424866
2.304615966796875,2.5928677909791467,-1.2926754197388886,-4.724075517308712,-0.6532758474349976,-0.0670883506536483,0.6770802140235901
2.314640869140625,2.0903117984481154,-0.1407451991867274,-2.722427652350068,-0.6033815145492554,-0.0893442705273628,0.3840325474739074
2.3246669921875,1.350577573609352,0.5758653396960347,-1.0077437948703765,-0.3944277763366699,-0.0977710410952568,-0.0505862943828105
2.33469287109375,1.1244846528090535,0.7405621270302682,0.3833008136838674,-0.0719722136855125,-0.2409092038869857,-0.4225044846534729
2.34471875,1.6057153871081769,0.5684397197399288,1.8906442354977129,0.3063630759716034,-0.4210587441921234,-0.6502545475959778
2.354744873046875,2.248879435377568,-0.1828289486132562,2.9777240174114703,0.6439499855041504,-0.6296178102493286,-0.7087280750274658
2.364769775390625,2.833239266370237,-0.901668853983283,4.606462114319205,0.8610103726387024,-0.8173547387123108,-0.6598615050315857
2.374795654296875,2.982856996385753,-1.274480860748142,6.520616404742002,0.9407885670661926,-0.93018239736557,-0.5620186924934387
2.38482177734375,2.9295523994386192,-1.358296039032191,8.149343980255722,0.8845372796058655,-0.9188392162322998,-0.4307730495929718
2.39484765625,2.7135432118877767,-1.2319766208872198,9.662939448201657,0.7274667620658875,-0.7753360271453857,-0.2397602498531341
2.404872802734375,2.5085309269085525,-0.9934994348101316,10.90993039060831,0.4983419477939605,-0.5140112042427063,-0.0170161165297031
2.414898681640625,2.294541847008466,-0.712480745601654,11.890484565258026,0.2589274048805237,-0.144895851612091,0.1755333691835403
2.424924560546875,1.9111773204386235,-0.4958220446335151,12.448235352396964,0.0673598423600196,0.258388489484787,0.309440553188324
2.434950927734375,1.4714616688326,-0.1318652705027721,12.561239800286293,-0.0380489900708198,0.6284657120704651,0.3872739672660827
2.444976806640625,1.1419598114840686,0.3077726944908499,12.185478734457492,-0.059028573334217,0.8952984809875488,0.4304661750793457
2.455002197265625,1.0377762373015285,0.6778771958626806,11.5322661703825,-0.0292807705700397,1.0318944454193115,0.4348241984844208
2.465028076171875,0.8906349073369055,0.9735216456644236,10.857089611780642,0.0153391603380441,1.0239042043685913,0.3845751285552978
2.4750537109375,0.6711079939886927,1.1560150056477636,10.104335307979584,0.0630329698324203,0.8707015514373779,0.2871811091899872
2.485079833984375,0.5720531244641169,1.2119433021619914,9.424198496621846,0.1025825068354606,0.6430838704109192,0.1560960412025451
2.49510498046875,0.3898259411362931,1.241907647792995,8.85560775103867,0.1370343565940857,0.3753949999809265,0.0315831750631332
2.505131103515625,0.3945325113920495,1.1299809852030127,8.357102349072694,0.182713970541954,0.1134832203388214,-0.0695109441876411
2.515156982421875,0.4084137737609445,0.8303834869265556,7.981435975790023,0.235506385564804,-0.0683775022625923,-0.1352147758007049
2.525182861328125,0.3766707280196249,0.6697451812028884,7.863677026849984,0.2566068768501282,-0.1369648277759552,-0.1689868569374084
2.535208984375,0.3420714160643517,0.6933731634192168,8.063305865225196,0.2234503179788589,-0.0972498133778572,-0.1879158169031143
2.54523388671875,0.2464961688164621,0.6010230522302911,8.207242042472958,0.1456511318683624,-0.0241505652666091,-0.1434546113014221
2.555260009765625,0.5861687435781583,0.3409829632405191,8.305899400579928,0.0342092141509056,0.0565418973565101,-0.0185212586075067
2.565285888671875,0.9864064078092576,0.0364289111357647,8.290387358671426,-0.106706365942955,0.1154539436101913,0.1371077448129654
2.575311767578125,1.1443654113210735,-0.1449459114127326,8.180730467644333,-0.2391262501478195,0.1369319707155227,0.2681033313274383
2.5853369140625,1.060083930699527,-0.1399738677543588,7.845181585216522,-0.3197252154350281,0.115518569946289,0.3370837271213531
2.59536279296875,0.876398949778825,0.0226567077650688,7.377437816739082,-0.3318430483341217,0.0582863800227642,0.3386456072330475
2.605388916015625,0.7410253606278449,0.3588808773722499,6.803227477708458,-0.2796908915042877,-0.0314498990774154,0.2914197742938995
2.615414794921875,0.8406459377437829,0.4934886332498863,6.193900817111135,-0.1806347370147705,-0.1147151067852974,0.2072174400091171
2.62544091796875,0.8523209587726741,0.3887752995721996,5.618136818897724,-0.0866805389523506,-0.1856883615255355,0.1197493821382522
2.6354658203125,0.7478760302402079,0.2386328515628352,5.063496857255697,-0.0060314242728054,-0.195586010813713,0.0655295997858047
2.645491943359375,0.5711782413257286,0.1917487343835644,4.173983135968446,0.0553499087691307,-0.1099179685115814,0.0685008913278579
2.65551806640625,0.1211682459268718,0.3109150111045688,2.9999037005156275,0.0809945911169052,0.1728549748659134,0.150303840637207
2.6655439453125,-0.6155160898219794,0.7700557133443653,1.4112439314961434,0.0185788832604885,0.6843577027320862,0.2958368062973022
2.67556884765625,-1.3796312341362238,1.396100430639088,-0.7457289352089166,-0.1088016182184219,1.266720175743103,0.4205299913883209
2.685594970703125,-2.381454845177382,1.7230847522087394,-3.457476788112521,-0.2372820973396301,1.7711561918258667,0.4990386366844177
2.695620849609375,-3.2424124801963567,1.5905783159919082,-7.1779872575402255,-0.3481661677360534,2.0700039863586426,0.6110051870346069
2.705646728515625,-2.95990399082154,1.3340198220402002,-11.446554218566416,-0.4351072013378143,1.9586952924728396,0.7132585644721985
2.7156728515625,-1.7271223371617497,0.3501098341565579,-15.335412252920865,-0.4747502505779266,1.1388510465621948,0.6748979091644287
2.72569775390625,-0.939842663424462,-1.247374096505344,-18.01870324214697,-0.3680128753185272,-0.1575950384140014,0.4472535252571106
2.735723876953125,-1.5399620813459156,-1.275053107678145,-19.43608231539726,-0.035245656967163,-1.15968656539917,0.0784474238753318
2.745749755859375,-2.9495564920693638,-0.1515805179884657,-20.2783573156476,0.478245347738266,-1.7954694032669067,-0.3263250887393951
2.755775634765625,-3.697846217676997,0.0770932130852714,-19.97477067466974,0.9922885298728944,-2.0965116024017334,-0.6861357092857361
2.765801025390625,-4.20451534461528,-0.3996908805359154,-18.92938016297221,1.3060262203216553,-1.9810469150543213,-0.8062125444412231
2.775826904296875,-3.820142225524783,-0.7894803986519575,-17.231134814596174,1.34020733833313,-1.4821888208389282,-0.6288366913795471
2.78585302734375,-2.575709150907397,-1.0781970219518988,-15.246735606080293,1.0926766395568848,-0.8395715355873108,-0.2701006829738617
2.79587890625,-1.0589459396455436,-1.603025709632784,-13.122343404984472,0.6577906608581543,-0.2971201241016388,0.1424750834703445
2.80590478515625,0.2084302767291665,-1.7917464927636086,-11.154031407916545,0.1909409314393997,0.1669490188360214,0.5005586743354797
2.815929931640625,0.9582570026457308,-1.3055709955386816,-9.8021895134598,-0.1669262647628784,0.5203778147697449,0.7961889505386353
2.825955810546875,1.752112693772465,-0.6915139454185962,-8.72153479615748,-0.3908054232597351,0.6574861407279968,0.9628170728683472
2.83598193359375,2.218383613218367,0.1805052183734252,-7.609938412624597,-0.5382000207901001,0.5279279351234436,0.817512571811676
2.846008056640625,1.570999024644494,1.1892851148258894,-6.305785905581712,-0.5004187822341919,0.2043479979038238,0.3398767709732055
2.85603271484375,0.4537332902383059,1.7445777682229875,-5.4896086386621,-0.2214616239070892,-0.1919779181480407,-0.2766901552677154
2.86605908203125,0.0333848215989768,2.0264906297922134,-4.983797882118821,0.1966871470212936,-0.6197236776351929,-0.8034285306930542
2.8760849609375,0.432617071647197,2.0114137644305825,-4.066025450074672,0.5978263020515442,-1.041956663131714,-1.1190998554229736
2.886111083984375,1.2588538141578436,1.6684443766131996,-2.438722354406118,0.8428469896316528,-1.3158239126205444,-1.2532094717025757
2.896136962890625,1.9741404109604657,0.9641855889771132,-0.3727729899287224,0.8954495191574097,-1.3831926584243774,-1.2617286443710327
2.906161865234375,2.248850063152611,0.2313889083165675,1.95413441863358,0.7804616689682007,-1.4045592546463013,-1.1442086696624756
2.91618798828125,2.4095608495906,-0.3079888945247978,4.292393826815486,0.5915272235870361,-1.308612585067749,-0.9392229914665222
2.9262138671875,2.45853501611799,-0.5960858880890533,5.925655538627505,0.3761323094367981,-1.0913909673690796,-0.6720275282859802
2.936239990234375,2.451175008744001,-0.4543150721816346,7.429100199437141,0.1354227066040039,-0.7577791213989258,-0.3879384696483612
2.946265869140625,2.1444985850572587,-0.10112747454755,8.77990690562725,-0.1293538212776184,-0.3492182791233063,-0.1390964239835739
2.956290771484375,1.7143100557312367,0.2550653327845036,9.743693485349416,-0.3701422810554504,0.0236813239753246,0.0402049645781517
2.96631689453125,1.329836691136658,0.602910473412089,10.328214205992222,-0.5260703563690186,0.322564959526062,0.1487620621919632
2.9763427734375,1.0135790768951176,0.9492923365540802,10.418267986404896,-0.5894679427146912,0.5141867399215698,0.1960796862840652
2.98636865234375,0.7846320087727159,1.3016568908348678,10.317409903383254,-0.5726838707923889,0.6199446320533752,0.1826696097850799
2.996393798828125,0.5448969315890222,1.5813598212696611,10.073501778298615,-0.4866406321525574,0.6233332753181458,0.1232614070177078
3.006419677734375,0.4417638893727212,1.704557600262761,9.804442845344544,-0.3661757409572601,0.5483461022377014,0.0517581962049007
3.01644580078125,0.5161361895941198,1.7212746340468523,9.72363620122671,-0.2367686927318573,0.4608365893363952,-0.011455412954092
3.0264716796875,0.6715512807767838,1.7051358385421336,9.601303953021764,-0.1325994133949279,0.4026233553886413,-0.0605204291641712
3.03649853515625,0.8269214368391782,1.6818902797721325,9.56281786276102,-0.08026634901762,0.3628589212894439,-0.0937786325812339
3.0465234375,0.8518923580970614,1.63761070080176,9.600780221408606,-0.0952740609645843,0.3372816443443298,-0.1310426294803619
3.05654931640625,0.722118561714515,1.4874585716485975,9.654207860213518,-0.1607012897729873,0.3184235990047455,-0.1699782311916351
3.066575439453125,0.6100385351937264,1.2735869806483386,9.541077155596016,-0.2506085634231567,0.2804796695709228,-0.2016682475805282
3.076601318359375,0.6437968662802129,1.0234594695921986,9.29406814188659,-0.3230974972248077,0.2427739351987838,-0.2284377813339233
3.08662646484375,0.6525714166272432,0.7884865653090178,8.88647284490168,-0.3441636264324188,0.1854232996702194,-0.2281890362501144
3.096652587890625,0.6829768570892513,0.5953848636802286,8.408451428037882,-0.3111461997032165,0.0951433852314949,-0.1862706542015075
3.106678466796875,0.8724643868088722,0.3623845746442675,7.892837654882669,-0.2538344264030456,-0.0015754359774291,-0.1182894706726074
3.11670458984375,1.0642673538640142,0.2061268586250021,7.57156922674179,-0.2300065010786056,-0.0667299032211303,-0.046887569129467
3.126730224609375,1.1956076689109203,0.0961680072429589,7.51368051687479,-0.2579728960990906,-0.1016324907541275,0.0223271902650594
3.13675537109375,1.2460785037368536,-0.1083131939337123,7.547463544011116,-0.3298168182373047,-0.0841331630945205,0.0734895542263984
3.146781494140625,1.2729292473919689,-0.3208709167232736,7.49094436893165,-0.4166286885738373,-0.0188582856208086,0.1027933806180954
3.156807373046875,1.2259756269067523,-0.4057839367140084,7.286963765087723,-0.4850943982601166,0.0511711537837982,0.1016992926597595
3.16683349609375,1.0754469195261598,-0.5466952862478792,6.723684569916129,-0.4765088856220245,0.0482251644134521,0.0303822383284568
3.1768583984375,0.877027968397364,-1.0934553082950411,5.747195745009184,-0.3380661308765411,-0.0348305590450763,-0.1337718665599823
3.18688427734375,0.2586540779914706,-1.878652184408903,4.218684447482228,-0.0648018419742584,-0.0821421444416046,-0.3377574980258941
3.196910400390625,-0.486315197956562,-2.563689335028827,2.144550022983551,0.322159469127655,0.0503207705914974,-0.4919255971908569
3.206936279296875,-0.8712704277839511,-2.7317186277866363,-0.4773515547782182,0.7426877617835999,0.5073964595794678,-0.463118702173233
3.216962646484375,-0.9127864603251218,-2.0968384237378834,-3.715011872011423,0.9335225224494934,1.1301721334457395,-0.1652036011219024
3.2269873046875,-0.7837355713896453,-1.081177937458828,-6.812401548767089,0.6566070318222046,1.6095011234283447,0.2348599135875702
3.237013427734375,-0.9302809082224964,-0.7112601908307522,-9.002274814555049,0.0875651836395263,1.5099012851715088,0.4816217720508575
3.24703955078125,-1.00364848838076,-1.6053100211776792,-11.393159312987327,-0.3391634821891784,0.9668553471565248,0.5567767024040222
3.2570654296875,-0.1523418212171643,-2.7648180565729734,-14.720669412493704,-0.3711026310920715,0.2206487655639648,0.5417904257774353
3.267091552734375,0.7133595742627978,-2.645279823000729,-17.398607350254057,-0.0563955530524253,-0.5912518501281738,0.4835436046123504
3.277116455078125,0.5690330094579606,-1.236264088948071,-18.118733642172813,0.3931408524513244,-1.1034952402114868,0.3185314536094665
3.287142333984375,-0.6223379717312753,0.7490288535371422,-17.268235587978364,0.7784361243247986,-0.988563597202301,0.0217408053576946
3.29716845703125,-2.011688051327318,2.149695715308934,-15.959519134020804,0.9016126990318298,-0.645566999912262,-0.2816201746463775
3.3071943359375,-2.3225905682764947,2.577962482792139,-14.14314308078289,0.7503858804702759,-0.3194197714328766,-0.5728698372840881
3.317220458984375,-2.209331268843264,2.214548418969661,-12.645703213346003,0.5117364525794983,0.031329832971096,-0.7970057725906372
3.327245361328125,-2.6971017801746724,1.7605394535951315,-12.435325601941347,0.368800401687622,0.2727035582065582,-0.831543505191803
3.337271240234375,-2.336251575490832,1.5482744210086763,-13.149330780631304,0.3182688355445862,0.3837720155715942,-0.7631881237030029
3.34729736328125,-2.206373295820504,1.2362313557222484,-13.796891018033026,0.2378941178321838,0.44486865401268,-0.6789392828941345
3.3573232421875,-2.823825833597779,0.9814590145349502,-13.796124125313758,0.0564078018069267,0.3479345738887787,-0.5401023626327515
3.367348388671875,-2.8832202718526125,0.593573503409326,-12.98010467930436,-0.1401888728141784,0.0576822496950626,-0.3690552413463592
3.377374267578125,-2.4758079302191733,-0.0602009688647463,-11.741784534609318,-0.2560946047306061,-0.3526249825954437,-0.2139592766761779
3.387400146484375,-2.0867153813913464,-0.4115255491059273,-10.147183100581168,-0.2681938707828522,-0.7023118734359741,-0.1252792179584503
3.39742626953125,-1.7175331094309687,-0.3867463510278612,-8.224491867959498,-0.1935419142246246,-0.9312651753425598,-0.096326507627964
3.407452392578125,-1.101577532213181,-0.5619414437618107,-6.059098378911614,-0.1079870611429214,-1.0434155464172363,-0.0978386476635932
3.417477294921875,-0.1882509005967527,-0.8096046835962682,-3.456524601954221,-0.0642864033579826,-1.007218360900879,-0.1128379255533218
3.42750341796875,0.5178277228776366,-0.8554214090060442,-0.7462234407275915,-0.077456533908844,-0.8125662207603455,-0.1238916367292404
3.437529541015625,0.9878742153394968,-0.6613102380737662,1.9012445399671791,-0.1237955689430236,-0.4971118867397308,-0.1206987872719764
3.4475556640625,1.226119273161143,-0.3355307987818494,4.159606235569715,-0.1979270577430725,-0.134813591837883,-0.0796453580260276
3.45758056640625,1.4191926985435186,-0.0879062835225835,5.988646540069579,-0.2875863909721374,0.2906146943569183,0.0032047729473561
3.4676064453125,1.671780681429058,-0.0458609024782199,7.40696318643093,-0.3897761404514313,0.7463100552558899,0.089517556130886
3.477632568359375,1.6989818459570407,-0.2021811532065272,8.579706404843925,-0.4955115616321563,1.136289358139038,0.1607698947191238
3.487658447265625,1.324860948550701,-0.3966039108386263,9.418751337131855,-0.5560561418533325,1.444717526435852,0.1945385038852691
3.4976845703125,0.8335758532270788,-0.3983043215483426,9.602535540643334,-0.5063318610191345,1.4758124351501465,0.1990859806537628
3.50770947265625,0.68952525581941,-0.3767791202975437,9.30503669514656,-0.3177712559700012,1.2346572875976562,0.1623745709657669
3.5177353515625,0.5830279248017818,-0.3943262482302263,8.529283793073892,-0.0356447733938694,0.7947044968605042,0.1343675404787063
3.527761474609375,0.793534788609296,-0.3768918599570169,8.051057209026814,0.2692115306854248,0.2695360481739044,0.1572424918413162
3.537787353515625,1.3674191105559468,-0.24491542069735,8.104610520038008,0.4888508021831512,-0.1707375049591064,0.1806741058826446
3.5478134765625,1.3957250214554369,0.1599574838526546,8.546942783883214,0.5426056385040283,-0.4595242738723755,0.1527564525604248
3.55783837890625,1.2642838763825597,0.5978278363855555,9.351429613009095,0.4608858823776245,-0.5676793456077576,0.0866034105420112
3.5678642578125,1.2529007509723304,0.88235062472485,10.14136126255989,0.3286953568458557,-0.5180127620697021,0.0442753918468952
3.577890380859375,1.340239573337883,1.071526238951087,10.655034423041345,0.1997022479772567,-0.3667904138565063,0.0243117790669202
3.587916259765625,1.3453393806949256,1.3033920440644025,10.770014554917813,0.084343172609806,-0.222317099571228,0.0152011038735508
3.597941162109375,1.314476624919474,1.346336575038731,10.597568907022476,0.0086103621870279,-0.1629804223775863,0.0144103839993476
3.60796728515625,1.3083888294383883,1.1104309930153191,10.228487757349011,-0.0161612965166568,-0.1689096987247467,0.0270074009895324
3.6179931640625,1.2410378792211412,0.9873436155941336,9.743570735752582,-0.0163036920130252,-0.2376104295253753,0.0635338723659515
3.62801953125,1.2740782712966203,0.9190867295131088,9.30181013431549,-0.0185748357325792,-0.3742212653160095,0.1221710890531539
3.63804541015625,1.4353553133152424,0.747407535945624,8.997996114322543,-0.0372900180518627,-0.5060378909111023,0.1905750185251236
3.6480703125,1.5449363626271486,0.5547196392821148,8.7480352650702,-0.0512819997966289,-0.6326355338096619,0.258994311094284
3.658096435546875,1.584171809950471,0.4251277022724971,8.628081436434387,-0.0452785529196262,-0.6889735460281372,0.3148142993450165
3.668122314453125,1.4153057741075754,0.3878086464971303,8.540763218465447,-0.0388571396470069,-0.6700240969657898,0.3618654310703277
3.6781484375,1.3157608195111157,0.4760357594719156,8.523178461936116,-0.0711923912167549,-0.5614432692527771,0.382542222738266
3.68817431640625,1.269389821219444,0.5867218108836562,8.680796543055772,-0.135894700884819,-0.3056801855564117,0.3669449090957641
3.698199462890625,1.104340932511911,0.6955621978960931,8.6138267011106,-0.2127363681793213,0.0321266241371631,0.3703736364841461
3.7082255859375,1.1504385937549173,0.8500310942698269,8.262719599545001,-0.3223142623901367,0.336605042219162,0.4342061281204223
3.718251220703125,1.274211542287469,0.8197964803300798,7.5967708880156275,-0.4648104310035705,0.5036736726760864,0.5419681072235107
3.72827734375,1.4516954766109584,0.588087254017964,6.708456605646014,-0.6174045205116272,0.4884572029113769,0.6122226119041443
3.738302490234375,1.2677332861840724,0.2798611532038078,5.675346314328909,-0.7424188256263733,0.2994725704193115,0.5446360111236572
3.748328369140625,0.4777359509859233,0.0570312527874484,4.124784513035416,-0.7400875091552734,0.0434903316199779,0.3839616179466247
3.7583544921875,-0.3237761001128703,-0.1553823031579144,1.8820833279013636,-0.5271181464195251,-0.2456265538930893,0.2628190815448761
3.76838037109375,-0.6928923210997134,0.1517260456726886,-0.6676707130163908,-0.1673916578292846,-0.3238369524478912,0.2859435677528381
3.778406494140625,-0.9702475924298166,0.962195803399384,-3.2674837930887937,0.1108250841498375,-0.0348997898399829,0.4615655243396759
3.788431396484375,-1.2977256888657809,2.0735938878811893,-5.275892238223553,0.100242480635643,0.6650338172912598,0.6608341336250305
3.798457275390625,-2.2768723348051307,2.9557813579335805,-7.048787461653351,-0.2524080276489258,1.637584209442139,0.835852861404419
3.8084833984375,-2.763179933977127,3.124174223306775,-9.53476841084063,-0.7916924953460693,2.3605213165283203,0.9737609624862672
3.818509521484375,-1.7914511630788443,2.1313483038440344,-12.875095321822164,-1.2587409019470217,2.2869136333465576,0.9143645167350768
3.82853564453125,-0.6450896825697273,0.1562331295672804,-16.51788951436281,-1.3733599185943604,1.453769326210022,0.6302563548088074
3.838560546875,-1.1674074103429912,-0.5675573839474469,-19.8144994486928,-1.0128098726272583,0.5002474188804626,0.2037783712148666
3.84858642578125,-3.0191616509541865,0.6361044851467013,-22.314604784822464,-0.300640732049942,-0.2676816880702972,-0.2532568275928497
3.858612548828125,-3.8522885913699865,1.2916077905073762,-23.395858052539825,0.4240632355213165,-0.8918306231498718,-0.6979013085365295
3.868638427734375,-3.763029468466341,0.6073189740367233,-22.63364384647608,0.8645316958427429,-1.2008708715438845,-1.054931402206421
3.878663330078125,-3.739973002527654,-0.0211496094040572,-20.48843448280096,0.9685472846031188,-1.1698110103607178,-1.13858962059021
3.888689453125,-2.51748755582422,-0.529505264657177,-17.96401537414789,0.8251091241836548,-0.9793750643730164,-0.9087175726890564
3.89871533203125,-0.315774360769242,-1.1767110991306602,-15.331384897100923,0.5513776540756226,-0.7116801738739014,-0.5572010278701782
3.908741455078125,1.1475932873263954,-1.4673362594656645,-12.586529724365471,0.27600759267807,-0.3357544839382171,-0.2061700522899627
3.918767333984375,1.781394902358204,-1.1908224804610013,-9.977793333125112,0.0293878465890884,0.0823186337947845,0.1415725648403167
3.928792236328125,2.672350785277784,-0.644142391782254,-7.500614114552736,-0.177807942032814,0.5073434710502625,0.3692525923252105
3.938818359375,3.148075323376059,-0.3683935692680999,-5.319155041366815,-0.359367698431015,0.8121334314346313,0.4012080729007721
3.94884423828125,2.813971671320498,0.0223722830668091,-3.309055574405193,-0.4837263822555542,0.9616273641586304,0.226112425327301
3.958870361328125,2.3793831534698606,0.5418136516861617,-1.7408809595316648,-0.4802751243114471,0.9226908683776855,-0.1016476973891258
3.968896240234375,1.8808194454453884,0.8647982360951602,-0.8706897783517837,-0.3039895892143249,0.6266893148422241,-0.518730640411377
3.978921142578125,1.180232551255077,0.9836540403611956,-0.2330979772567749,0.0284865424036979,0.1334429383277893,-0.9534085988998412
3.988947265625,0.7312742933988571,0.919704423020035,0.3145528561502695,0.4517110288143158,-0.4602403938770294,-1.3242409229278564
3.99897314453125,0.6764135530509054,0.7346823482766747,1.1448819825410843,0.8730683326721191,-1.0100075006484983,-1.5822700262069702
4.008999267578125,0.6146767894536257,0.5703017872847617,2.3929735796660183,1.194974422454834,-1.3819507360458374,-1.7039450407028198
4.019025390625,0.5720296339906752,0.5236417429186403,3.951051163417101,1.3287510871887207,-1.578429937362671,-1.6953341960906982
4.02905029296875,0.5586557000894099,0.5779506580701097,5.787098716330528,1.2718275785446167,-1.562290906906128,-1.5612258911132812
4.03907666015625,0.8116688495844602,0.4993471500197425,7.533738385519385,1.0777664184570312,-1.3666447401046753,-1.3419413566589355
4.0491025390625,0.9091809101138264,0.3148725165586918,9.079941991603372,0.8127973079681396,-1.0231389999389648,-1.0841233730316162
4.05912841796875,0.8365686783675104,0.1617978510223329,10.280713619148733,0.5378128290176392,-0.5901874303817749,-0.7838082909584045
4.069154296875,0.812204563896358,-0.0900137771958485,10.77993739851713,0.2772004604339599,-0.1893310695886612,-0.4576626420021057
4.079179443359375,0.6952892992388456,-0.2849937303192913,10.861056177324055,0.0563888177275657,0.1036562100052833,-0.148074597120285
4.08920556640625,0.5060364550579339,-0.3464410094507038,10.649952589732408,-0.1093945577740669,0.2940397262573242,0.164889708161354
4.0992314453125,0.6364691537406295,-0.3107863797562196,10.1303769272089,-0.221525102853775,0.373255580663681,0.4525381922721863
4.109257568359375,0.65586205567047,-0.0965917125477455,9.699993459832667,-0.2733371555805206,0.4053961932659149,0.6841070055961609
4.119282470703125,0.4279994217839091,0.2778032342933118,9.297902020961043,-0.2750725746154785,0.4178552627563476,0.8288267850875854
4.129308349609375,0.2498959673225879,0.7464807034242897,8.980373948392272,-0.2443120181560516,0.4040723443031311,0.8893532752990723
4.13933447265625,0.1526827436093241,1.1333278114128855,8.779997506520152,-0.2037632763385772,0.3711403012275696,0.867377519607544
4.1493603515625,0.0939801600761711,1.3957749980770051,8.669932034692168,-0.1551720350980758,0.3220260143280029,0.7660914063453674
4.159386474609375,-0.0415742655344307,1.545747825140506,8.589204301029444,-0.1064096540212631,0.2524081170558929,0.6116840243339539
4.169411376953125,-0.1661453787073493,1.624491253118217,8.571853353255987,-0.0592741072177886,0.1992567628622055,0.428626000881195
4.179437255859375,-0.2918075750526041,1.615181280720234,8.499322370052337,-0.0191079638898372,0.138309508562088,0.2606860697269439
4.18946337890625,-0.2034333086920902,1.5067777507551017,8.363459609144925,-0.010880927555263,0.054192766547203,0.1090600565075874
4.1994892578125,-0.1014971846427768,1.349371851081401,8.129565513074397,-0.036171868443489,-0.0649950504302978,-0.0085025541484355
4.209515625,0.0088943773344159,1.0656590274181217,7.718190113028884,-0.0842653661966323,-0.1882807612419128,-0.058540154248476
4.219540283203125,0.2804210886415094,0.671831047566235,7.281571550655364,-0.1326768547296524,-0.2765213251113891,-0.0190354231745004
4.22956640625,0.6417739090852439,0.3667721420787274,6.926169382244348,-0.1851318031549453,-0.315908670425415,0.0943550467491149
4.239592529296875,0.948933220918104,0.192753655376099,6.747131496477127,-0.2560390830039978,-0.2979872822761535,0.2224062383174896
4.249618408203125,0.99639128379412,0.0727528320936719,6.700551531609892,-0.3483932614326477,-0.223690927028656,0.3116327822208404
4.25964453125,0.968027212966606,-0.055698351082718,6.564899783104658,-0.4672264456748962,-0.1162661984562873,0.3459526300430298
4.26966943359375,0.8424410775322466,-0.0298024878664873,6.237928174886108,-0.555473268032074,0.0836194828152656,0.3593789637088775
4.2796953125,0.8671852773621678,0.0240696433029137,5.286935025763511,-0.6012166142463684,0.2322153747081756,0.3951004147529602
4.289721435546875,1.369924225244671,-0.1888428751405328,4.067753296780586,-0.6645787954330444,0.2335379123687744,0.4062236249446869
4.299747314453125,1.2170010970082132,-0.5785502679310739,2.870858218407631,-0.7341550588607788,0.2239373326301574,0.3915159404277801
4.309772216796875,0.8053606893509626,-0.6547567978423089,1.205118716838956,-0.7508200407028198,0.1747412979602813,0.3682220578193664
4.31979833984375,0.2289060785248875,-0.1056610263239592,-0.72140288772583,-0.6664373874664307,0.1617317795753479,0.263222873210907
4.32982421875,-1.4915990324541926,0.8003110047459602,-3.029280601647496,-0.4821482896804809,0.2233299016952514,0.099479466676712
4.339850341796875,-3.264213977637887,1.6587855907775462,-5.701041896599531,-0.2314680218696594,0.3505866825580597,-0.0267193149775266
4.349876220703125,-3.9011636814370743,1.9754745821736752,-8.530684892043471,-0.0244831517338752,0.5909832715988159,-0.0992409139871597
4.3599013671875,-3.747446407148242,0.9553845159493386,-11.463561467468738,0.0567733570933342,0.8107020854949951,-0.0873416438698768
4.369927490234375,-2.599144679291546,-1.1803300202801823,-14.407781859207152,-0.0926110744476318,0.6434949636459351,0.1016170904040336
4.379953369140625,-0.9935727923072872,-2.1644950789034367,-16.002340038615465,-0.3788105547428131,0.5151758790016174,0.3118499517440796
4.3899794921875,-1.0503038565717635,-1.6327593152478337,-17.079530879199503,-0.5660914778709412,0.7070441246032715,0.3177421987056732
4.40000537109375,-2.1683364106319845,-1.0013578201603144,-18.81445497615337,-0.5958679914474487,0.9426373243331908,0.1028951182961463
4.4100302734375,-3.118708359116316,-0.4039809789452701,-20.40910551002025,-0.5039308667182922,0.8283839821815491,-0.1946310997009277
4.420056640625,-3.1806291009783743,0.1399832749035209,-21.16286986764669,-0.269535630941391,0.3715847730636596,-0.5080559253692627
4.43008251953125,-2.5299527773827317,0.1307126116026193,-21.18562179768085,0.0856754556298255,-0.2474475651979446,-0.7613561153411865
4.440108642578125,-1.5113241620130835,0.0486693383619189,-20.21186444356441,0.4190782904624939,-0.8559899926185608,-0.892526388168335
4.450134521484375,-0.2959068453312851,0.2076246594347059,-17.832930495166778,0.6372612118721008,-1.3539830446243286,-0.9538962244987488
4.460159423828125,0.6636448185011744,0.4283304803691804,-14.431410572075842,0.719671368598938,-1.6854397058486938,-0.9811397194862366
4.470185546875,1.268696285997331,0.6186904090091586,-10.658419973826408,0.6849461793899536,-1.8316923379898071,-1.0058741569519043
4.48021142578125,1.4813941570430993,0.9448957090303302,-7.054728542140126,0.6018781661987305,-1.7777127027511597,-1.0380597114562988
4.490237548828125,1.5343854502573608,1.2001998190067709,-4.092227812823653,0.5275954008102417,-1.5506335496902466,-1.0748823881149292
4.500262451171875,1.5019672817334533,1.196473930351436,-1.7689719125062229,0.4801105558872223,-1.2011473178863523,-1.0807623863220217
4.510288330078125,1.6561577264919876,0.9887753288976848,0.0456406381905078,0.4495249390602112,-0.7591946721076965,-1.048903465270996
4.520314453125,1.873507661127299,0.6270486336402594,1.5341887586414813,0.4036483764648437,-0.3033860325813293,-0.9458681344985962
4.53034033203125,2.084028918786347,0.2013723941069096,2.728175840613246,0.284492164850235,0.1004921868443489,-0.7585312724113464
4.540366455078125,2.40941004294306,-0.1941166690913029,3.855612182834744,0.0979980677366256,0.430693656206131,-0.5357435941696167
4.550391357421875,2.604620188093185,-0.7549318670358508,4.768693826714157,-0.1273943036794662,0.6045984029769897,-0.2972825467586517
4.560417236328125,2.6119880865126848,-1.1376290888033809,5.577794287115335,-0.3405160903930664,0.6447581648826599,-0.0841571390628814
4.570443359375,2.402705576868355,-1.168056814162433,6.126126088523864,-0.4763953685760498,0.6186975240707397,0.1121425926685333
4.58046923828125,2.0915306727185845,-0.9643125032924116,6.440450396615266,-0.5154978632926941,0.519467830657959,0.2764021158218384
4.5904951171875,1.8361741019025444,-0.6179097800254821,6.906189255011081,-0.4902889132499695,0.401757150888443,0.380555123090744
4.600520263671875,1.4852422107733785,-0.3440471000514924,7.506485636934638,-0.4116983115673065,0.3208496868610382,0.4093633890151977
4.610546142578125,0.9716763831239194,-0.2074864930730313,8.188668859428168,-0.3120739758014679,0.2896843254566192,0.363547146320343
4.620572509765625,0.4406009100079536,0.0028530878761783,8.973876403066516,-0.2047583013772964,0.3045446574687958,0.2815489470958709
4.630598388671875,0.0965522755865007,0.101518410093896,9.60433177641034,-0.0892167836427688,0.3611831665039062,0.198555514216423
4.640624267578125,-0.0307842837117612,0.1657906835181638,10.07403603130579,0.0163087546825408,0.4474993944168091,0.144847109913826
4.6506494140625,-0.0882344560310244,0.1678128735281527,10.390629453372954,0.0838837996125221,0.5119486451148987,0.1245016306638717
4.66067529296875,-0.0533986319061368,0.1205429536353796,10.564004491072891,0.1040335893630981,0.5332903861999512,0.1414447277784347
4.670701416015625,0.0810609111398458,-0.0083055811284109,10.607726728421447,0.0735598355531692,0.4922715425491333,0.197215586900711
4.680727294921875,0.2440067631535231,-0.1385993462644517,10.570638814520835,-0.0020374404266476,0.4108207821846008,0.2805278599262237
4.690753173828125,0.3391625428803265,-0.2008791672298684,10.514358708894251,-0.0738554373383522,0.3098851144313812,0.3547743856906891
4.700778564453125,0.2724143808618188,-0.3510205557933077,10.309053578448294,-0.109505757689476,0.2286078631877899,0.4040161371231079
4.710804443359375,0.0884116757614538,-0.3501343110106885,10.010860905468464,-0.0967851728200912,0.1974725872278213,0.4305563867092132
4.72083056640625,-0.1986512255147099,-0.1457080092258751,9.649406597411632,-0.0569046959280967,0.2053367048501968,0.440343827009201
4.7308564453125,-0.3224471165314316,0.0851981570750474,9.31218013716042,-0.0179794020950794,0.2492679357528686,0.4151202142238617
4.74088232421875,-0.4896441962487995,0.197056686332263,9.098326374077796,0.0052249445579946,0.3343813717365265,0.3571165204048157
4.750907470703125,-0.6988301867160945,0.2706091580707579,8.862254933968186,0.0043018925935029,0.4630644917488098,0.3090408444404602
4.760933349609375,-0.6286806187562645,0.3736092946223914,8.437916591975092,-0.0255616959184408,0.5611589550971985,0.3251649141311645
4.77095947265625,-0.2284518684839829,0.4385389725094661,7.942569361779094,-0.1035481095314025,0.6063452959060669,0.3959727883338928
4.7809853515625,0.1252702196192927,0.3496863845800981,7.463097161585092,-0.2204071581363678,0.5834102630615234,0.4922303855419159
4.791011474609375,0.3913873452341184,0.074875025579147,6.956644600006937,-0.3627482950687408,0.5158357620239258,0.6073271632194519
4.801036376953125,0.6697855132132768,-0.0582567394617944,6.361857336893677,-0.5139170289039612,0.442188560962677,0.694191575050354
4.8110625,0.7131138558734208,0.0186479287814348,5.61928189727962,-0.6374272108078003,0.3609038293361664,0.7046505808830261
4.821088623046875,0.4437159002233296,0.1445149269837886,4.59196246432364,-0.6821180582046509,0.2595023214817047,0.6102954745292664
4.831114501953125,0.0087852772370213,0.1700521038223058,2.9661452232986685,-0.6067976951599121,0.1029654443264007,0.4788258969783783
4.841139404296875,-0.2229046096203848,0.3694404845051467,1.130167813012004,-0.4035166203975677,0.0160778108984231,0.3777284324169159
4.85116552734375,0.0673400132647017,0.8786608302962035,-0.9861351896524428,-0.1159713789820671,0.2182096093893051,0.3430055975914001
4.86119140625,0.4126144403211772,1.5617939739257096,-3.400841293177008,0.0905520468950271,0.6935023069381714,0.3976717293262481
4.871217529296875,0.5209632444243878,2.330727112980932,-5.397675620374083,0.0489388182759285,1.3593440055847168,0.5396666526794434
4.881243408203125,0.7520910175867378,2.4477596473425627,-7.30302818018198,-0.3034237921237945,1.98325788974762,0.694366991519928
4.891268310546875,1.0032542283661663,1.769878067565709,-9.372837727218863,-0.8053510785102844,2.2678914070129395,0.7409864068031311
4.90129443359375,1.2756240394338965,0.1056041815701872,-12.048268066072463,-1.1168739795684814,1.965864658355713,0.6525567173957825
4.9113203125,1.444480722926557,-1.7480413526803251,-15.115993256926537,-1.077593445777893,1.3251760005950928,0.5674074292182922
4.92134619140625,1.214135843770206,-1.4101329015143216,-17.732537691569327,-0.71660315990448,0.7963860630989075,0.3853387236595154
4.931372314453125,0.1615007677718997,0.6909402371838689,-19.70824973576069,-0.0971258431673049,0.2939641773700714,-0.0764411762356758
4.941397216796875,-1.5807023802742362,1.4200775185540315,-20.731679760062693,0.6381962895393372,-0.4046626091003418,-0.7183066010475159
4.95142333984375,-2.738846872231364,1.0031253412894905,-20.63081232469082,1.2617573738098145,-1.0096791982650757,-1.2333389520645142
4.96144921875,-2.9880691780760884,1.1465099490690975,-19.66641199698448,1.6581578254699707,-1.382127046585083,-1.437948226928711
4.97147509765625,-2.231502037988603,1.192851867396757,-18.098850545573235,1.7939260005950928,-1.5425713062286377,-1.2963500022888184
4.98150146484375,-0.472159831354022,0.3569694907929748,-16.243744071924684,1.6471365690231323,-1.5290650129318235,-0.8908851146697998
4.9915263671875,1.3906281367078424,-0.2743787397373468,-13.848185151940584,1.2264958620071411,-1.357037901878357,-0.3775908946990967
5.001552490234375,2.4655484020113945,-0.3043518166640773,-11.038238790613413,0.6730319857597351,-1.104356050491333,0.0865103229880333
5.011578369140625,2.7527611235544085,-0.0062089011101052,-8.419589492645859,0.1647924333810806,-0.8803581595420837,0.3952681422233581
5.021604248046875,2.5437550927639005,0.740499656253308,-6.271236570248007,-0.1934779733419418,-0.6877866387367249,0.4897424280643463
5.03163037109375,1.9837762543119488,1.6826485507935285,-4.5595641695439815,-0.3968300223350525,-0.6103754639625549,0.3954010307788849
5.0416552734375,1.3030625198490915,2.4737080353304743,-2.694987856760621,-0.482791393995285,-0.6631355881690979,0.1228390410542488
5.051681396484375,0.3905431860275566,3.287148278501629,-0.7979343387424945,-0.4319724142551422,-0.8281764388084412,-0.3161489963531494
5.061707275390625,-0.5295674066405743,3.5810759875133638,0.5803220999091864,-0.1889314502477646,-1.0756635665893557,-0.7851660251617432
5.071733154296875,-0.6933017056182026,3.346292249126732,1.5377537576466798,0.1703441590070724,-1.296653389930725,-1.166900634765625
5.08175927734375,-0.2502007224228233,3.095693101970851,2.6676982832968235,0.539071261882782,-1.3352036476135254,-1.464069962501526
5.0917841796875,-0.0328575828544795,2.619710205197334,3.85384868029356,0.8206118941307068,-1.2674264907836914,-1.632524847984314
5.10181005859375,0.496225766596198,1.9564527785785493,5.400231734597683,0.9379775524139404,-1.079280138015747,-1.6529046297073364
5.111836181640625,0.961197659207508,1.4460890349060296,7.026959076204896,0.8751692771911621,-0.7375128865242004,-1.5497429370880127
5.121862060546875,1.0325215316437184,1.081892588534206,8.253943003371358,0.658854603767395,-0.3512182533740997,-1.340853214263916
5.13188818359375,1.1601657686516642,0.7073807190489023,9.230773773583769,0.3913891017436981,0.0285980626940727,-1.073676347732544
5.1419130859375,1.3471528598576783,0.3786926257686689,9.568328735136983,0.1440849304199218,0.3442467451095581,-0.7790367007255554
5.15193896484375,1.401607795883715,0.2012459547156468,9.548357375732063,-0.0752357095479965,0.5143923759460449,-0.4812619686126709
5.161965087890625,1.5741984052076934,0.1368696455281693,9.57844680904746,-0.2731737792491913,0.523339033126831,-0.2350414097309112
5.171990966796875,1.5824034851036963,-0.0675177398852072,9.4251816624403,-0.4375534057617187,0.3921378850936889,-0.0916786715388298
5.182017333984375,1.1401304771650582,-0.1609142548545263,9.15132029764056,-0.5262645483016968,0.1481582224369049,-0.0179111752659082
5.1920419921875,0.9224531372062862,-0.0547915293029509,8.796730614656209,-0.4993620216846466,-0.2161531597375869,0.0097444206476211
5.202068115234375,0.8772658688064664,0.0390451671819202,8.449607029768824,-0.3631294369697571,-0.5825377106666565,-0.0054844105616211
5.21209423828125,0.7018238155741244,0.1389029323209077,8.325152967104316,-0.1788983196020126,-0.8145959973335266,-0.0490039251744747
5.2221201171875,0.4790546323690563,0.3724447078224271,8.539374394455551,-0.0135481851175427,-0.897948145866394,-0.1017020791769027
5.232146240234375,0.393309289740026,0.6705366238415241,9.14930720425248,0.0840393528342247,-0.8283014297485352,-0.151853933930397
5.242171142578125,0.4267844199709594,0.8079071589633822,9.812069686961172,0.116346001625061,-0.6463148593902588,-0.1818775534629821
5.252197021484375,0.5428592152163386,0.7239710577134043,10.254161127787828,0.0969936102628707,-0.4157170951366424,-0.1435296237468719
5.26222314453125,0.8839024572767317,0.5365907294061034,10.507558381229638,0.0336263701319694,-0.1674940884113311,-0.0343729741871356
5.2722490234375,1.2448068763658404,0.2763175805791281,10.419610048663616,-0.0715684965252876,0.0698865056037902,0.1279725283384323
5.282275146484375,1.5417247071042657,0.0254060978047549,10.164606529068946,-0.2113016694784164,0.2716526389122009,0.3180814385414123
5.292300048828125,1.7215376688972115,-0.1247843175321817,9.77246365275979,-0.3671014010906219,0.4141663908958435,0.4696092009544372
5.302325927734375,1.6130676495671272,-0.182728374315612,9.188506995740532,-0.4984806776046753,0.4499461650848388,0.5572904944419861
5.31235205078125,1.433105926953256,-0.3072727090794593,8.475597795593739,-0.5629270076751709,0.3879203200340271,0.5941646099090576
5.3223779296875,1.280162998037785,-0.4495956789769232,7.700158781775832,-0.5457099080085754,0.3017782568931579,0.5837591290473938
5.332404052734375,1.2536147444605827,-0.5355517417471856,6.747792590734362,-0.4675394892692566,0.2531777024269104,0.5340884923934937
5.34242919921875,1.1965275602348149,-0.4443555133011191,5.813954574552178,-0.3778364360332489,0.2564948201179504,0.4454298317432403
5.352455078125,0.9926987859517336,-0.2805110319472849,4.757138997998833,-0.311331182718277,0.3030077219009399,0.3627879619598388
5.362481201171875,1.086984724041447,-0.4596894221637397,3.3929742130637166,-0.2687091529369354,0.3264921009540558,0.3430320620536804
5.372507080078125,1.4777733361974357,-0.8452528470173477,1.9987486363857985,-0.2501660883426666,0.3523649871349334,0.341340959072113
5.382533203125,0.9673675069488584,-1.2094615683488548,0.2415226912528276,-0.2265635579824447,0.3787018954753876,0.3856902420520782
5.39255810546875,-0.0893959740910679,-0.9655078505568204,-2.0049539207667118,-0.1798272132873535,0.474644124507904,0.4797560274600982
5.402584228515625,-1.4807593662708998,0.1959831753492355,-4.465335149273276,-0.1676863878965377,0.8920506834983826,0.5962456464767456
5.4126103515625,-3.035740737572312,1.5646630996212365,-7.692258968436717,-0.2990857064723968,1.5753397941589355,0.6917718648910522
5.42263623046875,-3.722361065730453,1.9167054362103344,-11.134225468206404,-0.5331206321716309,2.03607177734375,0.6491991877555847
5.432662353515625,-3.5268078062310813,0.4561483885560184,-14.651913271653653,-0.6879432797431946,1.8406193256378172,0.6071428656578064
5.442687255859375,-1.6101698822990058,-1.7401403702974318,-18.19898966667056,-0.7199931740760803,1.1530002355575562,0.7182187438011169
5.452713134765625,-0.3687028909455984,-1.136400569921732,-20.43556330883503,-0.6000441312789917,0.5358046889305115,0.7399847507476807
5.4627392578125,-1.259393912383914,1.0749897503431889,-22.15632794753313,-0.3377791047096252,-0.1509428769350052,0.4511148035526275
5.47276513671875,-1.7270093783065676,1.5596505321562288,-23.10703409640789,-0.0503204129636287,-0.9492347240447998,-0.1160112023353576
5.482791259765625,-2.3553053816594183,1.426841605861485,-22.30384958205223,0.2397067695856094,-1.435519814491272,-0.7475400567054749
5.492816162109375,-3.0473332679495213,2.146938087163865,-21.1709573125124,0.8492974042892456,-1.566557765007019,-1.1839405298233032
5.502842041015625,-2.826288716579973,2.7221546806275843,-20.71708307943344,1.4259518384933472,-1.5986709594726562,-1.3159265518188477
5.5128681640625,-0.9934351374022662,2.263354389323294,-19.421602539145944,1.552029371261597,-1.7484782934188845,-1.261130928993225
5.52289404296875,0.1140501575499773,1.2208834183342754,-15.195385358071327,1.2214016914367676,-1.6266762018203735,-1.0280873775482178
5.532920166015625,0.7900980190936475,0.9651564798358828,-11.145493881195785,0.6351733207702637,-1.4156123399734497,-0.7011464238166809
5.542945068359375,1.5138558724477886,0.4551731137830764,-7.417241419339179,0.1103293150663375,-1.1716967821121216,-0.2915697693824768
5.552970947265625,1.942958506233245,0.0356515609545633,-4.76889373320043,-0.3153964281082153,-0.870093822479248,0.1027218699455261
5.5629970703125,2.123202991311252,-0.0918980200398713,-2.533478028899431,-0.60916668176651,-0.5676760673522949,0.3917562067508697
5.573023193359375,1.8921739292830229,-0.147429060864821,-0.2907861961156129,-0.8455062508583069,-0.2411349266767501,0.5156584978103638
5.58304931640625,1.4079445976898073,0.1918113695573061,1.652130662932992,-0.9165923595428468,0.0474833324551582,0.4149287641048431
5.59307421875,0.7970810829140246,0.2702423705849796,2.6831781765013933,-0.7848942279815674,0.171329379081726,0.1822843253612518
5.60310009765625,0.745836487236619,0.3809575384933501,3.2102678679168224,-0.6121578812599182,0.261471539735794,-0.0802586153149604
5.613126220703125,0.8580253809593618,0.4080334692064672,4.271679540088773,-0.4872795939445495,0.3638274669647217,-0.2883652150630951
5.623152099609375,1.2761144532993436,0.2559595782104879,5.656267519849538,-0.4144255518913269,0.4769258201122284,-0.4080840051174164
5.63317822265625,1.85943018206656,-0.0694387893419712,7.133799156245589,-0.1784942597150802,0.7249915599822998,-0.4057188630104065
5.643203125,2.1333362627908588,-0.3176356976617127,7.661996516641974,0.1311657726764679,1.1271501779556274,-0.263700008392334
5.65322900390625,2.3713933237597344,-0.3995470150858163,8.082348419347404,0.3000440001487732,1.44527268409729,-0.0631365329027175
5.663255126953125,2.450823857218772,-0.5277781120710074,9.46030090661645,0.2375112026929855,1.6500840187072754,0.1165223345160484
5.673281005859375,1.9526403806835413,-0.6818629775632172,10.865509065079689,0.0149662680923938,1.7133461236953735,0.3001259565353393
5.68330712890625,2.0150389691904187,-0.904186316696927,11.59932953583002,-0.2392240762710571,1.6841745376586914,0.4490828216075897
5.693332275390625,1.992666832254082,-1.283297350540757,11.557842510187625,-0.4516985416412353,1.416409611701965,0.5368707776069641
5.703358154296875,1.4517622582368552,-1.84083537171185,10.99236668175459,-0.5814703702926636,0.8562350273132324,0.6230025291442871
5.71338427734375,1.2846101867049933,-1.986399150161445,10.424110867214202,-0.6381874680519104,0.2522194683551788,0.7262247800827026
5.72341015625,1.2104879157219082,-1.70033530639261,9.739951960733531,-0.6543383598327637,-0.2072460949420929,0.8039664030075073
5.733435791015625,0.8910577358588576,-1.3555430870622396,9.415656293725966,-0.6360799670219421,-0.4820736646652221,0.7831391096115112
5.743461181640625,0.2559468465930782,-0.9806051741845904,9.505102755895257,-0.5895031690597534,-0.5725405812263489,0.6811491250991821
5.753487060546875,-0.3103036377405747,-0.671948536466062,9.74616659746468,-0.5399816632270813,-0.5181599259376526,0.5340302586555481
5.763513427734375,-0.5776753482600674,-0.3425453171864152,9.984255807137489,-0.4776890575885772,-0.3416313230991363,0.3698106110095978
5.773539306640625,-0.8692921865135431,-0.0460272994205355,9.89450831619501,-0.3917357921600342,-0.171110987663269,0.2371236979961395
5.7835654296875,-0.8906848108932376,-0.0520697944551706,9.589162848851084,-0.2876153290271759,-0.0386675037443637,0.1641979366540908
5.79359033203125,-0.5932981205340474,-0.3165904994577169,9.2025928042382,-0.2030032575130462,0.0765933096408844,0.1599019914865493
5.8036162109375,-0.2845223499478772,-0.5707201588273048,8.804304264780878,-0.1864307224750518,0.1694198846817016,0.2055036872625351
5.813642333984375,-0.1279878810801543,-0.8040259336158633,8.414615795886515,-0.2316748946905136,0.1929198801517486,0.3011268675327301
5.823668212890625,0.2123934630054049,-1.1171864586248994,7.816250674286485,-0.3205611705780029,0.1258492916822433,0.4257005751132965
5.833694091796875,0.4712487443910911,-1.417066646300256,7.16941758211553,-0.4576867818832397,0.0651803538203239,0.5434855222702026
5.84371923828125,0.5827818410862237,-1.497774506218731,6.503596880879998,-0.6252415180206299,0.1279853284358978,0.6300180554389954
5.8537451171875,0.6509164159618318,-1.3981703687809406,5.624301186746359,-0.7648841142654419,0.2314547300338745,0.7109581232070923
5.863771240234375,0.6793778096839785,-1.007461470797658,4.643217435264587,-0.8181037902832031,0.3839696049690246,0.7314242720603943
5.873797119140625,0.3659978697706014,-0.4544328898750245,3.3701258369177576,-0.7554507851600647,0.592100203037262,0.6248618960380554
5.883822998046875,-0.5920791366657242,-0.0621820231467485,1.7156757911264895,-0.5777101516723633,0.6705204844474792,0.4798436462879181
5.89384814453125,-1.0837994450688362,0.2309310084812343,-0.052374914881587,-0.3539782762527466,0.6294031143188477,0.3880021274089813
5.9038740234375,-1.258614160183072,0.8607616740554571,-1.785965132883191,-0.1539175510406494,0.5797960758209229,0.3520589470863342
5.913900146484375,-1.6225070935636758,1.6147311988651751,-3.5882092003941533,-0.0421095341444015,0.6388719081878662,0.3611059784889221
5.923926025390625,-1.83196729786247,1.9223327745728196,-5.015118318533897,-0.0654235631227493,0.751176118850708,0.3916930854320526
5.9339521484375,-1.587647961628437,1.4714910410575568,-5.924791615274549,-0.2679191529750824,0.7829835414886475,0.4305227696895599
5.94397705078125,-1.0379916336178778,0.544840013770014,-6.599269085696339,-0.5688146352767944,0.5243583917617798,0.4533022046089172
5.9540029296875,-0.1543205739442259,-0.7987468241691589,-7.056255897837877,-0.7350691556930542,0.0994752570986747,0.4867477715015411
5.964029296875,0.5601422853853553,-1.471399271120876,-7.781123831325769,-0.6852379441261292,-0.2326642125844955,0.5688945055007935
5.97405517578125,0.7157881165839731,-0.4099494588956237,-8.573208274996281,-0.4520081281661987,-0.3833376169204712,0.5860905647277832
5.9840810546875,0.3193233219550922,0.8633855928182601,-8.903490615198015,-0.1159263625741005,-0.215631902217865,0.3694954812526703
5.994106201171875,-0.83038918601498,1.6261521720677614,-9.115827543976902,0.4603817164897918,0.0439013987779617,0.0343116112053394
6.004132080078125,-2.141873789511621,2.1915553736560045,-9.166144941806794,1.029775857925415,0.4308112561702728,-0.2302309721708297
6.014157958984375,-2.2605033838063475,2.6861668369233604,-10.1460082115829,1.1064871549606323,0.4924429357051849,-0.514909029006958
6.02418408203125,-1.4797452207922934,1.5987717054501176,-9.10383724645376,0.8313255310058594,0.2262892425060272,-0.699491560459137
6.0342099609375,-1.2625998688183724,0.000640489860624,-7.71584734929502,0.5603361129760742,-0.0661173313856124,-0.6128584146499634
6.044236083984375,0.1689255840104073,-0.7565719623930752,-8.319186752176284,0.4974780976772308,-0.3982665240764618,-0.3836297392845154
6.054261962890625,1.1348029985319823,-1.1500360043033957,-8.504555010008811,0.4935086667537689,-0.6261315941810608,-0.2238568365573883
6.0642880859375,0.8322631631933152,-1.1391826018556952,-7.431971370959282,0.3894779682159424,-0.6192497611045837,-0.1809601783752441
6.07431396484375,0.1864137482974678,-0.4876981767475605,-5.636638690271973,0.2076080292463302,-0.4731029570102691,-0.226990520954132
6.084340087890625,-0.2031157671755179,0.121809101113677,-4.184875116860867,0.0683979839086532,-0.3202906250953674,-0.2913039326667785
6.094364990234375,-0.1327164987709373,0.4802161504290997,-3.4424002150118347,0.0348954163491725,-0.2100714445114135,-0.3391878306865692
6.104390869140625,-0.0340854441490024,0.7244660746887326,-2.99803439951241,0.1770374625921249,-0.1860449016094207,-0.3577666878700256
6.1144169921875,0.0069521937580779,0.9005718525268137,-2.549155490502715,0.4810330271720886,-0.1536518037319183,-0.3537160158157348
6.12444287109375,0.0581778290066868,1.4217347842417656,-2.3261194730550048,0.7784366607666016,-0.1402842104434967,-0.3821714520454407
