seconds_elapsed,ax,ay,az,gx,gy,gz
0.083262451171875,0.0285693841412663,-0.2980544335529208,0.3520949435591697,0.8270578384399414,0.3729076683521271,0.321781188249588
0.093242431640625,-0.0255577081698924,-0.2119588527141138,0.1848807665765285,0.8557989597320557,0.4305896461009979,0.3914737999439239
0.10322119140625,-0.0857752993758767,0.0035660264850826,0.1060252565264701,0.8586826324462891,0.5541994571685791,0.4205315411090851
0.113201416015625,-0.1518321181293576,0.2711051796930842,0.1075508586585521,0.8339998126029968,0.7517544031143188,0.4181979298591614
0.123181396484375,-0.1815172814927995,0.3158551343878731,0.195167182791233,0.7824276685714722,0.9461899399757384,0.3899937272071838
0.133161376953125,-0.1099690257161855,0.1262760904598981,0.0864934575825929,0.6800421476364136,1.049890398979187,0.3616097569465637
0.143141357421875,-0.0294226399697363,-0.1635858304176479,-0.1791179652661085,0.5565942525863647,1.040842056274414,0.340817391872406
0.15312060546875,-0.0167122114785015,-0.2433934900933876,-0.2005494603514671,0.4374563694000244,0.9855052828788756,0.3431124985218048
0.163100341796875,0.1068856727480888,-0.187643801549077,0.1277016662836074,0.3417492806911468,0.9480553269386292,0.3392413258552551
0.173080322265625,0.3361661740759387,-0.1974944566950202,0.5145534504473209,0.2520977258682251,0.9114790558815002,0.3474630415439605
0.183060546875,0.4128260007126256,-0.1254060661597177,0.5998889701664447,0.1581749618053436,0.8441282510757446,0.3563782572746277
0.193039306640625,0.5809246323795989,-0.0356019861917942,0.3486509405851364,0.0383594408631324,0.7993324398994446,0.3579885065555572
0.203019287109375,0.6006315321620553,0.016178652591072,0.069219666698575,-0.0837294459342956,0.8705975413322449,0.3515329957008362
0.21299951171875,0.4865046561140567,0.0334915699090808,0.1707265690177679,-0.192953810095787,0.9989491105079652,0.3463274538516998
0.2229794921875,0.4196482114154845,-0.1280048139486461,0.4402788384467363,-0.2959664762020111,1.025912165641785,0.3466973900794983
0.23295947265625,0.5827090681109577,-0.4091939643532037,0.3895148658931255,-0.3884619176387787,0.9645976424217224,0.3796609044075012
0.2429384765625,0.8811588576570153,-0.6444294650953263,0.4173293400138616,-0.4487556219100952,0.8198623061180115,0.4394435286521911
0.25291845703125,0.6869901843838393,-0.8628545546814799,0.3931991073638201,-0.4811356663703918,0.5124731659889221,0.4928153753280639
0.2628984375,0.4506298443302512,-0.8294826656293124,-0.1455038649559021,-0.4823649823665619,0.3166805207729339,0.5376079082489014
0.27287841796875,0.2359786107270046,-0.6909470322508364,-0.0051239188849925,-0.4823562800884247,0.2524663507938385,0.5506293177604675
0.282857421875,0.151897730711475,-0.4999608614712953,0.2616653155714273,-0.4874905943870544,0.2070376127958297,0.5162111520767212
0.29283740234375,0.2471935399634763,-0.3497326348746195,0.272611656999588,-0.5006057024002075,0.1278082132339477,0.4494541585445404
0.3028173828125,0.2637491909070871,-0.275299672240857,0.1657043569415807,-0.4985385835170746,0.0834830850362777,0.3598723411560058
0.31279736328125,0.1879128642814233,-0.1610566772662103,0.1610293508678674,-0.4835068583488464,0.1470598727464676,0.265285849571228
0.32277734375,0.0572473066909238,-0.0704670546774752,0.2470686349421739,-0.4559000134468078,0.3221778869628906,0.1709697246551513
0.332756591796875,-0.169621749581024,0.0534423751497408,0.3118319067537784,-0.4292229115962982,0.5861510634422302,0.0922953188419342
0.342736328125,-0.5139853682357818,0.2739267581861466,0.3732090432584286,-0.3879308402538299,0.8952071666717529,0.0359718576073646
0.35271630859375,-0.7850273647658527,0.4861222692003473,0.3590343874335289,-0.3411769568920135,1.1779413223266602,0.0167414508759975
0.362696533203125,-0.9010551790643484,0.4567136212233453,0.282872938773036,-0.2930879890918731,1.3894755840301514,0.0321278646588325
0.37267626953125,-0.9779638658955692,0.3069582363028079,0.15501929679811,-0.2271552234888076,1.5626165866851809,0.0601150579750537
0.3826552734375,-0.9450875052753837,0.049282465291582,0.2819622536689042,-0.1423910558223724,1.6323586702346802,0.0770735293626785
0.392635498046875,-0.8361682078078388,-0.3288637055754661,0.388709979251027,-0.059847168624401,1.570874810218811,0.0711205080151557
0.402615478515625,-0.8136444605063646,-0.4741272955020889,0.3975269074350595,0.0292526148259639,1.4797178506851196,0.0392978638410568
0.412595458984375,-1.1378304565943778,-0.1648724909610115,0.3826093242883682,0.0991703048348426,1.5165544748306274,-0.0028058269526809
0.42257470703125,-1.6065987458139657,0.3527193956004456,0.3222732212692499,0.1269369572401046,1.7082961797714231,-0.0461639538407325
0.432554443359375,-1.7336271890111266,0.4280086280036717,0.3266016058623791,0.0967819169163703,1.924847960472107,-0.0680261552333831
0.442534423828125,-1.4235868418492377,-0.0974197426034137,0.3073819416075944,0.0191848631948232,2.0669913291931152,-0.0882366150617599
0.452514404296875,-1.0281339642092584,-0.6408546022832393,0.5698381152957678,-0.0692357048392295,2.0323755741119385,-0.1560366302728653
0.462494140625,-0.6887748758435249,-0.7485000804226845,0.8426677989602088,-0.1500674337148666,1.8112809658050537,-0.277535617351532
0.472473388671875,-0.6328853769697249,-0.5510750357020646,1.1242167956531046,-0.2047285735607147,1.4237847328186035,-0.4058413803577423
0.482453369140625,-0.8309779456883668,-0.2364445660046301,1.2503800003230572,-0.2284032851457595,0.9973577260971068,-0.4853415489196777
0.492433349609375,-1.2471297663554548,0.1862348298002965,1.1203683035314085,-0.2683106660842895,0.6280614137649536,-0.476892739534378
0.50241357421875,-1.742234712228179,0.3434029934616759,0.8814227692902088,-0.3194731771945953,0.318134993314743,-0.3947587311267853
0.512392333984375,-2.037161661410332,0.2848146474253386,0.7027098776936531,-0.3592291474342346,0.1161101013422012,-0.2570748925209045
0.522372314453125,-1.990143012864888,0.2542084967594593,0.7688976293504237,-0.3633080422878265,0.0347750335931777,-0.0737463235855102
0.5323525390625,-1.859333151432872,0.202607379261963,1.012558501675725,-0.3097608387470245,0.0513970404863357,0.1118532419204711
0.54233251953125,-1.398708275049925,0.2114938655508682,1.1712217079341412,-0.2361031174659729,0.2310637384653091,0.2627364993095398
0.552312255859375,-0.9610679684132336,0.2994465454984456,1.5763567522853612,-0.1669553518295288,0.4805162250995636,0.3737632930278778
0.56229150390625,-0.6065162793517113,0.1920983332725241,1.8378157316297288,-0.1353018134832382,0.7204388380050659,0.433636724948883
0.572271240234375,-0.5750532195955514,-0.0512301287606358,1.845263709548116,-0.1728253811597824,0.9087417721748352,0.451207548379898
0.58225146484375,-0.9756748781755566,-0.1562101505504921,1.748310817271471,-0.2597349882125854,1.0038152933120728,0.3944587707519531
0.5922314453125,-1.3673451685369014,-0.1047424501743167,1.753015633961558,-0.3293267488479614,0.5925012230873108,0.2857120633125305
0.60221142578125,-1.8139795134902,-0.0134915689315646,1.8425614648520945,-0.0507723540067672,-1.5828943252563477,0.2590937614440918
0.6121904296875,-2.069133547471464,-0.2648552341865375,5.073510301747918,0.1328823864459991,-2.6498844623565674,0.2951080501079559
0.62217041015625,-1.1639099236160515,-0.6942872095242142,6.336983592399954,-0.0924191698431968,-2.517092704772949,0.3631283938884735
0.632150390625,-0.3613528935089707,0.0928530922750011,2.359109888508916,-0.4919421970844269,-1.7273703813552856,0.5435259938240051
0.64213037109375,0.2807474710516631,-0.2124175562670454,1.6228174746870994,-0.7519852519035339,-1.1133495569229126,0.7592971920967102
0.652110595703125,-0.2871890484064817,-0.3981316683951765,2.5303999366283416,-0.7683921456336975,-0.7794370651245117,0.8557386994361877
0.662089111328125,-0.8352525542676449,-0.1664175467122346,3.590001929029822,-0.6042551398277283,-0.5438905954360962,0.7977110743522644
0.672069580078125,-0.8313498477406799,-0.253220289439708,4.014979153448343,-0.3868900537490845,-0.3409220576286316,0.6417595744132996
0.682049560546875,-0.471328056704998,-0.7576295086219906,3.760726159960032,-0.2084912806749344,-0.2542039155960083,0.4843854606151581
0.692029541015625,-0.5188511476412415,-0.9820976046994327,3.42398368383348,-0.1111784949898719,-0.3441415131092071,0.3361324071884155
0.70200830078125,-1.0041215127199887,-0.4590761856362223,3.2160634024530648,-0.0976629555225372,-0.4206107258796692,0.172721117734909
0.711988525390625,-1.3463853826165195,-0.0552770660638809,3.502867250934243,-0.1604377925395965,-0.3825486898422241,0.0226511619985103
0.721968505859375,-1.3699867690868677,-0.0548874822244048,3.620418110081553,-0.2445673197507858,-0.3336743712425232,-0.0969548672437667
0.7319482421875,-0.9755563663624226,-0.0471560842547565,3.506981700515747,-0.2924780547618866,-0.2595627009868622,-0.2124280482530594
0.741928466796875,-0.4443032716572284,0.2758135217808187,3.106255120256543,-0.1915761828422546,-0.498521476984024,-0.3431093692779541
0.7519072265625,0.1413373929262161,0.9550644902147352,2.7832442323625086,-0.0277580693364143,-0.2802177965641022,-0.4598642587661743
0.761887451171875,-0.1410040693186223,1.1799307187642902,2.889475825116038,0.1376561969518661,-0.0416238754987716,-0.5052602291107178
0.771867431640625,-0.2919695606812834,1.2126945589207112,2.528050743153691,0.1715478003025055,0.0413032546639442,-0.5663382411003113
0.78184765625,0.1382989020131528,1.9948533825129269,1.8958862278044224,0.0180999264121055,0.0257277563214302,-0.6175244450569153
0.791827392578125,-0.0345106107585132,2.058293589027226,0.8351818271189928,-0.3475222587585449,0.0663346722722053,-0.6118679642677307
0.801806396484375,0.046207332162559,1.99815856153816,-0.5280664274930954,-0.8315876722335815,-0.0566591620445251,-0.5451355576515198
0.811786376953125,0.2548784319102763,1.7600886410877108,-2.465504562869668,-1.2747668027877808,-0.2358769327402115,-0.4188683629035949
0.821766357421875,0.4494286518469452,1.0541587784342468,-4.354318660330772,-1.501355767250061,-0.435918927192688,-0.2564810514450073
0.831746337890625,0.9144560009725392,0.3047431175366044,-5.835397175553441,-1.4466679096221924,-0.6017193794250488,-0.0803359225392341
0.84172509765625,1.4807871310606595,-0.1981613961711525,-6.995093280866742,-1.1769672632217407,-0.7779055833816528,0.0497626923024654
0.85170556640625,1.9846346247069535,0.0731781950660049,-8.073473623496293,-0.8486185669898987,-0.8010761737823486,0.123082049190998
0.861685546875,2.648773218074441,1.269524261254072,-9.757651283553242,-0.574084460735321,-0.5991297364234924,0.1672902554273605
0.87166552734375,3.7260841779068112,2.3240087645113467,-11.587351513266563,-0.3568506836891174,-0.3878176212310791,0.1477556526660919
0.881645263671875,4.555718600031733,2.393013619415462,-12.468901708328724,-0.1613626778125763,-0.1998628824949264,0.0508898235857486
0.89162451171875,5.089014744871855,2.051568664686381,-12.368885336828232,-0.028705371543765,0.0266686752438545,-0.073127657175064
0.901604248046875,5.360309474053978,1.8952660500794647,-12.11949790354967,0.0228947065770626,0.3200920224189758,-0.1806056499481201
0.911584228515625,5.240070398736,2.056775439549237,-11.792427511131764,0.0244477707892656,0.4749411046504974,-0.2289464175701141
0.921564453125,4.64821100576818,2.1570659518159925,-11.432005468732118,0.0006007616175338,0.4869506359100342,-0.2010410279035568
0.931544677734375,3.805162098535895,2.1957754755690693,-10.88758762589693,-0.0566149353981018,0.4395077228546142,-0.1035347953438758
0.9415234375,3.30094825579524,2.230280241108685,-10.372627348214388,-0.1166953146457672,0.3750866651535034,0.0501231998205184
0.95150341796875,2.928032642525434,1.943592712483555,-9.723130005270242,-0.2008969485759735,0.3499393463134765,0.2440854161977768
0.9614833984375,2.452397244015336,1.820199849309772,-9.173362033578751,-0.3679825961589813,0.3651497364044189,0.4911615252494812
0.97146337890625,2.0201612806402145,2.1910728508360684,-9.068400606891512,-0.6153187155723572,0.4235033392906189,0.7498201131820679
0.9814423828125,1.7983277708500622,2.441397564964741,-8.637315128725767,-0.8863095045089722,0.3711338639259338,0.967998504638672
0.99142236328125,1.5570292437419295,2.13754949657172,-7.945739808508753,-1.1326723098754885,0.2147952765226364,1.16605544090271
1.00140234375,0.9743711021006108,1.7597440654337406,-7.294030634734034,-1.3153023719787598,0.0081555591896176,1.3342455625534058
1.01138232421875,0.3651461483120918,1.7700285819523036,-6.739025346910953,-1.3959202766418457,-0.235059455037117,1.3855684995651243
1.02136279296875,0.3070676149614155,1.8711741036131977,-6.166739838463068,-1.3566913604736328,-0.4995917677879333,1.275473952293396
1.031341552734375,0.498610177514702,1.6071815141379833,-5.574737237632275,-1.240553379058838,-0.6411418318748474,1.024319767951965
1.04132177734375,0.7329920571021735,1.197285831256211,-4.911074591213464,-1.0967479944229126,-0.6055161952972412,0.6622123122215271
1.051301513671875,1.068250139889866,0.8339084461823105,-4.095122949743271,-0.9701991081237792,-0.4639087319374084,0.2402219474315643
1.061281494140625,1.2788849409259857,0.1496419876739382,-3.128577426701784,-0.859192967414856,-0.2822625041007995,-0.1938123255968094
1.07126171875,1.369954766513407,-0.7450166952863335,-2.2094600097894666,-0.75668865442276,-0.0943170487880706,-0.6077032685279846
1.081240478515625,1.3575801458477974,-1.6012383878245948,-1.2700830641806125,-0.6331464648246765,0.0964632928371429,-0.9656856656074524
1.091220458984375,1.1759998821213842,-2.5160168987497684,-0.2424018121749162,-0.4474994838237762,0.2743257880210876,-1.2412335872650146
1.10120068359375,0.8765117625035345,-3.3481346621230244,0.8308709781825542,-0.2123298496007919,0.4378430843353271,-1.44740891456604
1.111180908203125,0.6599421645909548,-4.042348221889138,1.919149029970169,0.055390790104866,0.5480237007141113,-1.5800856351852417
1.12116064453125,0.2000556854851543,-4.661922720256448,2.961119504091144,0.3341622352600097,0.5737853050231934,-1.635560154914856
1.1311396484375,-0.307372443126887,-5.044539643329381,4.113385751664638,0.6175312995910645,0.5199584364891052,-1.6277501583099363
1.14111962890625,-0.8006408212222158,-5.133358328989148,5.26401709151268,0.8817341923713684,0.3951901197433471,-1.5711236000061035
1.151099609375,-1.2104919343098997,-4.952382753157616,6.40717181186974,1.1089266538619995,0.2700704336166382,-1.468130111694336
1.16107958984375,-1.4839786205783485,-4.670597609621286,7.606893638101219,1.2940282821655271,0.1594869047403335,-1.3343470096588137
1.1710595703125,-1.6318572518415748,-4.360945677255094,8.720987099146843,1.422065019607544,0.0527664385735988,-1.1836910247802734
1.18103857421875,-1.6861375619530676,-4.0353497413039205,9.735158296716213,1.4673172235488892,0.0019250940531492,-0.9985914826393129
1.1910185546875,-1.773919013519585,-3.744228321884573,10.45912139031887,1.425331950187683,0.0090106995776295,-0.7814314961433411
1.20099853515625,-1.7118895505860448,-3.4256700294852256,10.949984168577194,1.293140888214111,0.0162960439920425,-0.5454719066619873
1.210978759765625,-1.66381847037822,-3.184101453264057,11.232925496411324,1.099434494972229,0.0073858369141817,-0.2744158804416656
1.220957763671875,-1.7873463581085205,-3.0061969554409385,11.4323748865664,0.8528647422790527,-0.0229765959084033,0.0032447399571537
1.2309375,-1.8609439476303755,-2.664435189847648,11.3784363756299,0.5444478392601013,-0.0522014833986759,0.296988695859909
1.240917724609375,-1.8642717768788335,-2.4265175373494623,11.099910526150463,0.2146816551685333,-0.0718833059072494,0.5907548069953918
1.250897705078125,-1.8528753535956144,-2.3704285703808066,10.724848548501727,-0.1018465906381607,-0.0869795158505439,0.8315721154212952
1.260877685546875,-1.626168684811145,-2.401811989029497,10.402899736881256,-0.3401233255863189,-0.1052264273166656,0.9947133660316468
1.2708564453125,-1.329262982901931,-2.566423436167836,10.171685089153051,-0.4938878118991852,-0.0725004076957702,1.0965619087219238
1.280836669921875,-1.1654629982769489,-2.8025170881092545,9.940058938014507,-0.5533063411712646,-0.0024613989517092,1.137292504310608
1.290816650390625,-1.0754153553441166,-3.071689418309927,9.680658644765614,-0.546216607093811,0.0825546085834503,1.1268315315246582
1.300796630859375,-1.0464635477565227,-3.309803762423992,9.305263489639758,-0.483563095331192,0.1407875716686248,1.0912021398544312
1.310776611328125,-1.2517828528583048,-3.450374847152829,8.987682225579023,-0.3806867301464081,0.1533122956752777,1.0387853384017944
1.320755615234375,-1.5170419551379977,-3.536100827494264,8.7056416459769,-0.2541010975837707,0.1515617966651916,0.9851815104484558
1.330735595703125,-1.8042358258500693,-3.560465453422069,8.564867147630453,-0.1289888769388198,0.1232412159442901,0.9204071760177612
1.340715576171875,-2.009833509501815,-3.5086931806087494,8.412958091807365,-0.0051252543926239,0.0466146171092987,0.8420212864875793
1.35069580078125,-2.2237832803048194,-3.5284675561368464,8.34715320198834,0.1267640590667724,-0.0550059415400028,0.772216796875
1.360675537109375,-2.39971282479316,-3.6278795320034014,8.478067985099553,0.2945357263088226,-0.1062555462121963,0.6903184652328491
1.370654541015625,-2.45184896248281,-3.6729488000467416,8.526873224800825,0.4859995245933532,-0.0074028163217008,0.5876938700675964
1.380634521484375,-2.2106552109234032,-3.458560199435055,8.464681264781952,0.674842119216919,0.1844595670700073,0.4756951332092285
1.39061474609375,-1.891123543447256,-3.0660765468642115,8.207273606655,0.8710480332374573,0.3624904751777649,0.3463703989982605
1.4005947265625,-1.6411008810050784,-2.783432448410988,8.140895300862192,1.0425419807434082,0.4340765178203583,0.2343037873506546
1.410573486328125,-1.5190003957293927,-2.664889071094989,7.468131064099073,1.1222412586212158,0.4324495196342468,0.2001823037862777
1.4205537109375,-1.657417371164262,-2.466499419125914,5.780111341661215,1.0515437126159668,0.4663339555263519,0.2717832624912262
1.43053369140625,-1.753120994032174,-2.001314687481522,3.2225527644723653,0.7841378450393677,0.5190507173538208,0.4771331548690796
1.440513427734375,-1.5480135781154036,-1.5906372065722942,-0.1726625055164098,0.4228915274143219,0.4089638590812683,0.7257370948791504
1.450493408203125,-0.8588574478693306,-1.1810266242422165,-3.928046135404706,0.0298274476081132,0.2794958651065826,0.9595516920089722
1.46047265625,0.1839437779873609,0.1190313069634139,-8.397588088718056,-0.3818002939224243,0.2576954960823059,1.0732142925262451
1.47045263671875,1.954935652013868,3.1545185081660745,-14.54383751233816,-0.6400454640388489,0.2345863133668899,0.9236123561859132
1.4804326171875,3.8979531949579713,6.826147165524959,-20.02427500255108,-0.4184925258159637,0.1170852482318878,0.5402154326438904
1.49041259765625,5.159516268074512,8.840597228911518,-20.93714388046265,0.2318407446146011,-0.0292338877916336,0.1142164543271064
1.500392822265625,5.670660202339291,8.775819344052671,-19.094317042672632,0.6950477957725525,-0.0109749883413314,-0.2956041097640991
1.51037158203125,5.931132508733868,7.899448012933134,-17.74329289433956,0.6331701278686523,0.131957396864891,-0.6662507057189941
1.5203515625,5.738173065119981,6.293803206843138,-16.926259887373448,0.3269715905189514,0.2691272497177124,-0.8772279024124146
1.53033154296875,4.953234401550889,4.50509871212393,-15.448651678609847,0.0812147855758667,0.3827421963214874,-0.8634860515594482
1.5403115234375,4.377534116223454,3.38942382710576,-14.404418520253897,-0.0088019240647554,0.4068824052810669,-0.6991205215454102
1.550291748046875,4.191960106685757,2.7357407229095694,-14.407244099068642,0.0475475154817104,0.3007220327854156,-0.4236434400081634
1.560270751953125,3.815536193034053,2.101494286719709,-14.695356107538938,0.1834062784910202,0.1206771656870842,-0.0682248696684837
1.570250732421875,3.1383360196501013,1.845432636374235,-14.751251597762106,0.3345470130443573,-0.1599291265010833,0.2335013747215271
1.580230712890625,2.8160657209903,2.1787980372831224,-14.303770865112542,0.468346893787384,-0.492264986038208,0.4346933662891388
1.59021044921875,2.64830004760474,2.624731832751632,-13.420735984450578,0.5191430449485779,-0.6312242746353149,0.5777413249015808
1.600189697265625,2.5893752726882693,3.294236775457859,-12.684424281406402,0.4397874772548675,-0.5041424632072449,0.6398776173591614
1.610169677734375,2.8090780540600417,4.283511432179808,-12.250306888198851,0.2733870446681976,-0.2661068439483642,0.6005773544311523
1.6201494140625,3.001993366271257,5.012048994091153,-11.47418573733568,0.0805134624242782,-0.02189870364964,0.4869059026241302
1.63012939453125,2.7092487295642496,5.272523054051399,-10.066471149009466,-0.1274606436491012,0.1397225707769394,0.3444403707981109
1.64010986328125,2.021073280918598,5.0881794630914925,-8.368348550230264,-0.3621807396411896,0.1826455295085907,0.1826884895563125
1.65008837890625,1.2024341539300978,4.548029214572907,-6.556171702247858,-0.614986002445221,0.1232603788375854,0.0141100063920021
1.660068603515625,0.5353861028566956,3.663325523915887,-4.78905623126328,-0.8486744165420532,0.0302782487124204,-0.1424793452024459
1.670048828125,0.0264995921298861,2.5206147479340437,-3.223335439282656,-0.9950236082077026,-0.0386491566896438,-0.3019086718559265
1.680028564453125,-0.216841400591284,1.4066848068870603,-1.701343898913264,-1.015703558921814,-0.0853191912174224,-0.4610652923583984
1.690008544921875,-0.329302096992731,0.4643630399979651,-0.1192272679269313,-0.9056415557861328,-0.1303047686815261,-0.6007955074310303
1.69998779296875,-0.5345078587174416,-0.3833351543448865,1.486139305743575,-0.7216660976409912,-0.1639282554388046,-0.7067611217498779
1.709967529296875,-0.7133785712242126,-1.151637302020192,2.986642652404308,-0.509412944316864,-0.1787257939577102,-0.7732871770858765
1.719947509765625,-0.9369332057185472,-1.9177198739498853,4.347071757942438,-0.3011620044708252,-0.1904096156358719,-0.7910621762275696
1.729927734375,-1.194357668849826,-2.5707135345771905,5.564044578704237,-0.0924575924873352,-0.2153234183788299,-0.7880520224571228
1.739907470703125,-1.251203299404681,-3.010416326701641,6.716117349532246,0.0953642427921295,-0.2087422013282776,-0.7812228798866272
1.74988671875,-1.1970393091492355,-3.2884374415293336,7.774134703090787,0.2472799867391586,-0.1899362504482269,-0.7569823861122131
1.75986669921875,-1.2514656036026774,-3.502479128399491,8.619955413123964,0.3556381464004516,-0.1966655254364013,-0.6926313638687134
1.769846435546875,-1.436561620365083,-3.59989087035954,9.419460946705938,0.4376648068428039,-0.2338786423206329,-0.5627583861351013
1.77982666015625,-1.6465021555267274,-3.631028351423144,10.205284576416014,0.4806487560272217,-0.2939616739749908,-0.3779885470867157
1.7898056640625,-1.8473573208265008,-3.625847149392962,10.835483344650267,0.4799819886684418,-0.3508334159851074,-0.1629971265792846
1.799785400390625,-1.985296011225134,-3.566756662520766,11.357353840112683,0.4320565462112427,-0.3915944099426269,0.0344672091305255
1.809765625,-2.0213183417208493,-3.5583898161917924,11.799373969268798,0.3370588421821594,-0.407625287771225,0.1998604387044906
1.819745849609375,-2.042844967743754,-3.696260702051222,11.975569909608364,0.2107413858175277,-0.3510192632675171,0.3126442432403564
1.8297255859375,-1.991017896003276,-3.72477104948163,11.989476854407789,0.0783062502741813,-0.1997097581624984,0.3599782288074493
1.839704833984375,-1.879129446531832,-3.515850066626072,11.800351289868354,-0.0155978705734014,-0.0151316598057746,0.3552228808403015
1.849684814453125,-1.8299683791302144,-3.168969058322906,11.50235034006834,-0.0275689829140901,0.163184568285942,0.3322430551052093
1.85966455078125,-1.917127461014688,-2.678792508763075,11.301095946317911,0.045484721660614,0.2494912296533584,0.3081552982330322
1.86964453125,-2.030277747115493,-2.283391653571278,11.09887358431816,0.1515384167432785,0.2475567162036895,0.3026581704616546
1.87962451171875,-2.3201617336943743,-2.094868731100112,10.76100590355396,0.2407423257827758,0.2006241083145141,0.3039865493774414
1.889603515625,-2.485703885811567,-1.894375677111,10.403792886328697,0.2774970233440399,0.1278369426727295,0.3166505396366119
1.89958349609375,-2.6103216146051884,-1.7021113761544229,9.98773955760002,0.2492461949586868,0.1053979471325874,0.3236493170261383
1.909563720703125,-2.5895821934372183,-1.5331515245482326,9.696042091858386,0.1869706809520721,0.105300448834896,0.2815872430801391
1.919543701171875,-2.452076341497898,-1.398674080519378,9.37667043724954,0.1203817874193191,0.054984550923109,0.1968441307544708
1.929523681640625,-2.411596447071433,-1.301877693978697,9.100858522903918,0.068354845046997,-0.0039652506820857,0.0901826545596122
1.939502685546875,-2.395176496537774,-1.220228315426409,8.93899213669002,0.0549258589744567,-0.0286245234310627,-0.0256635230034589
1.949482666015625,-2.264744528507441,-1.199079436674714,8.78156519422829,0.071653239428997,0.0008983258157968,-0.1605018377304077
1.959462646484375,-2.0243239532776176,-1.1718851402789354,8.633179051834345,0.1119205057621002,0.0764439478516578,-0.2995726466178894
1.969442626953125,-1.7158346349500118,-1.138017722794786,8.466609602496028,0.1463761776685714,0.2286264151334762,-0.4220451116561889
1.97942236328125,-1.4947607113555073,-1.173383489077911,8.17474905514717,0.1608941406011581,0.3579827845096588,-0.5235733389854431
1.989401611328125,-1.3282038292378189,-1.3087111932605504,7.670652701306342,0.1827175319194793,0.4479081034660339,-0.6112087965011597
1.9993818359375,-1.2162518130108713,-1.5326850760802626,7.126379235377907,0.2353948652744293,0.5307880640029907,-0.6763616800308228
2.009361572265625,-1.1188448933564126,-1.7192182860389351,6.278086582273245,0.3161436915397644,0.6696727871894836,-0.6806567907333374
2.019341552734375,-0.8618941852167248,-1.6154054448649289,5.076051802924275,0.3595500290393829,0.8115883469581604,-0.5996583700180054
2.029320556640625,-0.2852586648657917,-1.0782815584301948,2.9414678781598806,0.3068523705005646,0.8735864758491516,-0.4396379292011261
2.03929931640625,0.7483934782430529,-0.2162831821866333,-0.2954483427077531,0.0645199045538902,0.8605856895446777,-0.219926580786705
2.049279541015625,2.0130254374109207,1.3405052385367453,-5.323340218096972,-0.4308938384056091,0.8533630967140198,-0.0404026806354522
2.05925927734375,3.7031063301622864,4.403221807448566,-12.60141749689579,-0.9682942032814026,0.7611426115036011,0.0268394742161035
2.0692392578125,4.889226039759815,7.472179462707042,-18.910595967525243,-1.005534529685974,0.4858287274837494,0.0828633829951286
2.07921923828125,4.736435232666135,8.3265254245013,-20.24283007519245,-0.4445417821407318,0.0193872451782226,0.2045280337333679
2.0891982421875,4.468048499885201,7.132430790501832,-18.182028010475637,0.0860706642270088,-0.4160186946392059,0.4234437644481659
2.09917822265625,5.093081848180294,6.6856047223687165,-18.26212621406317,0.058300282806158,-0.6070089340209961,0.7183193564414978
2.109158447265625,5.417274054813385,6.446801226946711,-19.82463505825996,-0.3385352790355682,-0.6778951287269592,1.0432696342468262
2.119138671875,5.299461914381385,4.8034518363624805,-19.768240386343003,-0.6861579418182373,-0.6702302694320679,1.3180590867996216
2.129117431640625,5.090166837516427,3.5714687857344742,-18.95154055685401,-0.7366820573806763,-0.6270673871040344,1.4222979545593262
2.139097412109375,5.282003414580226,4.095048715463281,-18.720302528250212,-0.437720388174057,-0.5231404900550842,1.2826186418533323
2.1490771484375,5.245672456526756,4.6774388538181775,-17.50382479752898,-0.0052575035952031,-0.3638046681880951,0.8781113624572754
2.159057373046875,5.062569805538654,4.587185751441121,-15.834337926125526,0.2766911089420318,-0.1226732954382896,0.2654170393943786
2.169037353515625,4.92316893363297,4.651001221008599,-14.835893874520062,0.365344226360321,0.1686875224113464,-0.3954110145568847
2.17901611328125,4.539121100974083,4.715639697396755,-13.832425272750854,0.3721696436405182,0.4064119458198547,-0.9638971090316772
2.188996337890625,3.834906663936376,4.530257411038876,-12.51765901723504,0.337227463722229,0.5215840935707092,-1.3644839525222778
2.1989765625,2.9612089359402654,4.382076435828209,-11.220898374009131,0.2655580639839172,0.6058468222618103,-1.579651951789856
2.208956298828125,2.0724404800623653,4.250885173863172,-9.888398893404007,0.1645716875791549,0.6134252548217773,-1.6319057941436768
2.218936279296875,1.2792255710572005,3.74316858369857,-8.10701290500462,0.0543586313724517,0.476776659488678,-1.5733152627944946
2.22891552734375,0.3740631758697331,2.684761646300554,-5.8976920114248985,-0.0844786986708641,0.2313670217990875,-1.435195803642273
2.238895263671875,-0.4289956662796437,1.4770980672843754,-3.74840151591599,-0.2449557185173034,-0.0552988275885582,-1.2759432792663574
2.248875244140625,-0.9297712051346898,0.0888043648734688,-1.6252175215661524,-0.375067800283432,-0.2805935442447662,-1.1348071098327637
2.25885546875,-1.1344285391964015,-1.392197285720706,0.5681400792062282,-0.4187665581703186,-0.4214241504669189,-1.0446326732635498
2.26883544921875,-1.0131836478367446,-2.732930633924901,2.730579394623637,-0.341185450553894,-0.4633083045482635,-1.0141041278839111
2.278814208984375,-0.7938366941653192,-3.752292093613744,4.816300796541571,-0.1501201689243316,-0.4400533139705658,-1.0464024543762207
2.28879443359375,-0.6278242941878736,-4.367448775538802,6.489885750913619,0.0874296128749847,-0.3815802931785583,-1.101694107055664
2.2987744140625,-0.6381409594103694,-4.7112136976480485,7.696119150996208,0.3223936557769775,-0.3404118120670318,-1.160029053688049
2.30875439453125,-0.7717107870750128,-4.783837035310268,8.531448862153292,0.5220374464988708,-0.2789776623249054,-1.193835973739624
2.318734375,-1.0443494782119989,-4.61031352905035,9.2480639310807,0.6543880701065063,-0.0990827530622482,-1.1594964265823364
2.32871337890625,-1.3245923607423902,-4.237101563182473,9.81131214659214,0.7173819541931152,0.0088192867115139,-1.0924835205078125
2.338693359375,-1.2657824443772434,-4.021532228353619,10.22068205203414,0.7150847315788269,-0.0074502313509583,-0.9655258655548096
2.34867333984375,-1.4183902961194514,-4.051983480718731,10.708402440613508,0.6516298055648804,-0.0389084741473197,-0.7681376934051514
2.358653076171875,-1.5967720560654997,-4.0055835485935205,11.134314315533638,0.5348163843154907,-0.0666160061955452,-0.5152590870857239
2.36863330078125,-1.598133845937997,-3.917506621211767,11.308901651632786,0.396103948354721,-0.0883126184344291,-0.2470055073499679
2.378612548828125,-1.6368135590746995,-3.859679286143184,11.421889732909202,0.2642021179199219,-0.094087153673172,0.0290929321199655
2.38859228515625,-1.6808768649458885,-3.746929689797759,11.482967594206333,0.1363860964775085,-0.1278828531503677,0.265878677368164
2.398572265625,-1.6568990463785829,-3.4638314178362486,11.305857461631298,0.0340133756399154,-0.1718902736902237,0.4546203911304474
2.408552490234375,-1.6411729233279824,-3.164157858648896,11.024915198659896,-0.0603187084197998,-0.1513523161411285,0.5932271480560303
2.418532470703125,-1.5652059743262827,-2.9546140677198767,10.686180087411405,-0.1455332040786743,-0.0922338590025901,0.6636094450950623
2.42851123046875,-1.439467278678715,-2.906644986581802,10.283350981914996,-0.2071491777896881,0.0004331097006797,0.6947259902954102
2.438491455078125,-1.5160114430464804,-2.926836710739136,10.01959716963172,-0.2137583494186401,0.0872431024909019,0.6852443814277649
2.44847119140625,-1.5146414698675277,-2.8252085201278327,9.843410581642388,-0.1694606989622116,0.1598344445228576,0.6232276558876038
2.458451416015625,-1.4667369783982631,-2.79011441039294,9.604904607862233,-0.0728723630309104,0.2090326249599456,0.536080002784729
2.468431396484375,-1.5800721195466816,-2.864205774781108,9.456761042052507,0.0608115941286087,0.21592378616333,0.4658454060554504
2.478410400390625,-1.8457751662015915,-2.859543043667078,9.45365956890583,0.2068380266427993,0.1658757925033569,0.405462771654129
2.488390380859375,-2.0386834641501306,-2.7730636146098373,9.448403548073768,0.3278887569904327,0.0877378061413765,0.3474358320236206
2.498370361328125,-2.123606457545608,-2.7365292429387567,9.444514723941683,0.4009845554828644,0.0150454957038164,0.2929813861846924
2.50835009765625,-2.0941787030093373,-2.6812457471340894,9.46292833251059,0.4374096989631653,-0.0105983400717377,0.2442080378532409
2.518330322265625,-1.976750593458861,-2.7048879040062426,9.482761160227655,0.4666176736354828,-0.001475416123867,0.2037825882434845
2.528309326171875,-1.763934648991376,-2.79872967852503,9.423574811765551,0.4902485609054565,0.045649517327547,0.1730238497257232
2.5382890625,-1.6251315968483686,-2.8619971588209268,9.26917510817051,0.5219502449035645,0.0897972732782363,0.1359640955924987
2.54826953125,-1.5032906392917036,-2.8034195899069307,8.875713550478219,0.5600372552871704,0.1378512680530548,0.1075290292501449
2.55824951171875,-1.4453899467259643,-2.593369018499553,8.254660796251892,0.5797414183616638,0.2034039050340652,0.0945367962121963
2.5682294921875,-1.202407850445062,-2.350212880825996,7.374433958747982,0.5281589031219482,0.2795300781726837,0.0996001735329628
2.57820849609375,-0.7445821032613515,-2.139646761111915,6.0557666041404,0.3809273540973663,0.3218956589698791,0.1436019986867904
2.5881884765625,-0.3349057622186839,-1.7172677364930509,3.681171561729908,0.0705068483948707,0.3578669130802154,0.2949884831905365
2.598168212890625,-0.1403049811385572,-0.9670757574606688,-0.2315185991108417,-0.446868360042572,0.3434847593307495,0.6020762324333191
2.608148193359375,0.0005959200665354,-0.2571950382895767,-5.482211514148116,-1.0944416522979736,0.1967142075300216,1.0684279203414917
2.618128173828125,0.2842648315228521,0.1393477534789592,-11.382890432429312,-1.6942169666290283,-0.200657919049263,1.655001878738403
2.628107177734375,0.8429596215136349,0.8931633298359811,-17.52284513981938,-2.0007917881011963,-0.8390905261039734,2.1717641353607178
2.63808740234375,1.843618280428648,2.605594001561403,-22.575694346332547,-1.8181053400039675,-1.508580446243286,2.386012554168701
2.6480673828125,3.23317411172986,3.8151165063172576,-25.022348662781717,-1.2216883897781372,-1.8984829187393188,2.23773193359375
2.658047607421875,4.813782676240802,2.910628795520961,-25.478233651161197,-0.4141803979873657,-1.8020915985107424,1.7398107051849363
2.66802734375,6.652361208936572,1.4369246084585785,-25.708072334361077,0.4361166357994079,-1.1261953115463257,1.0249046087265017
2.67800634765625,8.034271493920683,1.0104182747766377,-25.60349435403347,1.2468228340148926,-0.2935968339443207,0.2540181279182434
2.687986328125,8.297055584388971,0.6134222593478859,-24.27971126384735,1.874652624130249,0.4198468029499054,-0.3435932993888855
2.69796630859375,7.458261411991715,0.8284260692484676,-22.9017593611002,2.175455093383789,0.8276843428611755,-0.6023876070976257
2.7079462890625,5.781766707652807,2.3968472062289714,-22.281474084115025,2.171718120574951,0.8715549111366272,-0.6158138513565063
2.717926513671875,4.026302511495351,3.9875817356958985,-20.98026990548372,2.018496036529541,0.6861879825592041,-0.524375319480896
2.727905517578125,2.559877960047125,4.909017658683657,-18.27138971697092,1.830657958984375,0.4722155034542084,-0.4306066930294037
2.737885498046875,1.5474229187458752,5.466635759353637,-14.944498041623827,1.5931353569030762,0.3133699297904968,-0.325113832950592
2.747865234375,0.6430285853214561,5.588358351227641,-11.657012493991852,1.2805038690567017,0.1425050646066665,-0.2253716588020324
2.75784521484375,-0.0600311287231743,5.647345377725363,-8.692816066673398,0.846443235874176,-0.0284714773297309,-0.1285729557275772
2.767825439453125,-0.7393465406954288,5.827012209045886,-6.368541344702243,0.283642053604126,-0.2177101522684097,-0.0504766926169395
2.77780419921875,-1.2537544451922178,5.901664422187209,-4.602956736546755,-0.3563477694988251,-0.3739815056324005,0.0121299643069505
2.7877841796875,-1.5454956039451062,5.563972682511806,-3.272923353794217,-0.9364098906517028,-0.4510547220706939,0.066190518438816
2.797764404296875,-1.6002550758756695,4.526668154375255,-1.996317609846592,-1.2663992643356323,-0.5221320986747742,0.0889435037970542
2.80774462890625,-1.323925129005313,3.009470570284128,-0.2901373768180608,-1.2897977828979492,-0.5519574284553528,0.0718535706400871
2.817724365234375,-1.0667441192410885,1.5104986709743735,1.6110358514785763,-1.100628137588501,-0.5635853409767151,0.0124946422874927
2.82770361328125,-0.8307051200963557,0.2776407006753608,3.1244448569417,-0.8133766055107117,-0.548115611076355,-0.0801370367407798
2.837683349609375,-0.709452776082605,-0.7866974899351596,4.384308140403032,-0.4952372610569,-0.502697765827179,-0.177639365196228
2.847663330078125,-0.7915612965792417,-1.6566855497583746,5.543018741810322,-0.1487911492586136,-0.4478522837162018,-0.2577844560146332
2.857643310546875,-1.0182796558015048,-2.203153310860693,6.922142610946297,0.2078404724597931,-0.4215573072433471,-0.3162171542644501
2.867623046875,-1.153672753370553,-2.27928904055804,8.437518532568216,0.5299347639083862,-0.4436794817447662,-0.3742044270038605
2.877603515625,-1.1654346489652991,-2.0482588094860312,9.662569445845484,0.7564871907234192,-0.4849441051483154,-0.4092654883861542
2.887582275390625,-1.2146892398692666,-1.725968637081981,10.558145243650674,0.8673008680343628,-0.5285300612449646,-0.4050127863883972
2.897562255859375,-1.216442659407854,-1.4386903029568492,11.241181283581255,0.8537997007369995,-0.5075808167457581,-0.3776698410511017
2.90754248046875,-1.128343520194292,-1.121169829172641,11.71235035033226,0.7403877377510071,-0.40633624792099,-0.2924790680408478
2.9175224609375,-1.0965915604941547,-0.8768208284527063,12.027342182421684,0.5708551406860352,-0.2646909952163696,-0.1513011753559112
2.92750244140625,-1.123868932063505,-0.6702475777670741,12.25618600936532,0.3706876933574676,-0.1606862843036651,0.0042585865594446
2.9374814453125,-1.0620151179578154,-0.5299650276560336,12.322760714513064,0.1476509124040603,-0.091440625488758,0.1747727990150451
2.94746142578125,-1.150765633752197,-0.6024023412268609,12.276208222174644,-0.0734046846628189,-0.0243895351886749,0.3693597316741943
2.957441162109375,-1.2630682169824838,-0.7629597637340426,12.034658058393,-0.2769625782966614,0.0085148848593235,0.5579597353935242
2.96742138671875,-1.324529232378304,-0.9112620272368191,11.57848080906868,-0.411985844373703,0.002125846222043,0.7362795472145081
2.9774013671875,-1.4680261414259672,-1.0531471171736717,11.198677189850809,-0.4554305076599121,-0.0406727492809295,0.8872948884963989
2.98738037109375,-1.6357380387976763,-1.085515309076011,10.862495270216463,-0.4264973998069763,-0.0859103426337242,0.9813267588615416
2.9973603515625,-1.683311398616433,-1.0669330659419298,10.558812767648696,-0.3526101112365722,-0.1220696792006492,1.0225131511688232
3.00734033203125,-1.7098633054554462,-1.1073373378489166,10.257877517962456,-0.2535866796970367,-0.1424161940813064,1.002445101737976
3.017320556640625,-1.7161024921059609,-1.0817292146660389,10.024066424000262,-0.1539780795574188,-0.1221242398023605,0.9438132047653198
3.02730029296875,-1.6925965288341045,-0.9469779221318662,9.853667771762607,-0.0758986547589302,-0.0982499495148658,0.8454658389091492
3.037279296875,-1.6129695960201322,-0.8488086398027836,9.694833885112404,-0.0302169173955917,-0.1008483991026878,0.6999118328094482
3.04725927734375,-1.505130421939492,-0.8690953487671911,9.677689858087897,-0.0185330174863338,-0.1014875918626785,0.5327156186103821
3.057239501953125,-1.4145235376887022,-0.9505771156676112,9.60830652526021,-0.0314669236540794,-0.0756786316633224,0.3643643856048584
3.067219482421875,-1.358835991127789,-1.0359085437335074,9.414243504318597,-0.0391089133918285,-0.0835405215620994,0.2268810123205185
3.077199462890625,-1.3610051518604158,-1.0763361965160816,9.13123904812038,-0.0113052483648061,-0.0818099975585937,0.134362518787384
3.087178466796875,-1.2987820660509168,-1.1599683463834225,8.987062047854065,0.0440528281033039,-0.0817903205752372,0.0617644526064395
3.097158447265625,-1.1019497995916754,-1.2850396641634405,8.692421514397859,0.091962032020092,-0.0743017718195915,-0.0118093648925423
3.10713818359375,-0.8252280038595199,-1.2953006536759435,8.174325276777148,0.1382060497999191,-0.0725481659173965,-0.0895567163825035
3.1171181640625,-0.5767668916456401,-1.278922204196453,7.563639602786302,0.1939547955989837,-0.0096498951315879,-0.1614303737878799
3.127098388671875,-0.4263803692147135,-1.2627550593800845,6.987507940304279,0.2783116996288299,0.0650778785347938,-0.2422175109386444
3.13707861328125,-0.2540964146871119,-1.4191773548439144,6.6097390417844055,0.3695332109928131,0.1630550324916839,-0.3001750707626343
3.147057373046875,-0.2485120386835187,-1.756942598146945,6.056985916802287,0.3956165015697479,0.2567799389362335,-0.3163966536521911
3.15703759765625,-0.4148927605167031,-2.0323488543011248,4.731966562819481,0.3062589168548584,0.2898776829242706,-0.2893964648246765
3.167017578125,-0.4236104661099612,-1.96675103136152,2.1795085236400364,0.0572807192802429,0.257996529340744,-0.2514117956161499
3.176997314453125,0.0029472324330359,-1.4203380691863596,-1.5962117918342351,-0.2670957446098327,0.2849897742271423,-0.2378608286380767
3.186977294921875,0.6464983072586358,-0.5008360368706286,-6.145798757243156,-0.5245665311813354,0.321773886680603,-0.2050802856683731
3.196956298828125,1.3362101716913282,0.8673430252071469,-11.02073002192974,-0.4850161969661712,0.2868848741054535,-0.1698389500379562
3.206936279296875,2.2484879518419505,2.4955124553814527,-14.538685536402465,-0.204730287194252,0.1766912937164306,-0.1378106921911239
3.216916259765625,2.902908722662925,3.7382752586990593,-17.03546961915493,0.096504122018814,0.0506878197193145,-0.0992928594350814
3.226896484375,3.1005764900982378,3.788292504538596,-18.505366815149785,0.2063196897506714,-0.0169242434203624,-0.0784941762685775
3.23687646484375,3.282015299527347,3.469962760198116,-19.270627549302574,0.0701072514057159,0.0225129108875989,-0.0612986758351326
3.24685546875,3.592309913711249,3.9274852866515513,-19.974787041282653,-0.1246378347277641,0.143273651599884,-0.0393880121409893
3.25683544921875,3.772559805616736,4.1654163831532,-19.710232434010504,-0.2748728990554809,0.2338517606258392,-0.0325066708028316
3.2668154296875,3.808718621973693,3.6944209194034334,-18.83112554044724,-0.4017034471035003,0.3436262905597687,0.0351695083081722
3.27679541015625,3.607342939931154,3.2727637793183324,-18.170779471230507,-0.5419772267341614,0.3790029287338257,0.1477695554494857
3.286775390625,3.3523213001579046,2.982428249579668,-18.028930037128923,-0.6558693051338196,0.292399138212204,0.2660059332847595
3.29675439453125,2.979182984048128,2.4903826912775635,-17.86054330923557,-0.6722850799560547,0.1709994673728943,0.3826292157173157
3.306734375,2.56014011811465,1.9211178458251057,-17.20855824112892,-0.5795731544494629,0.0465774238109588,0.4411700069904327
3.316714599609375,2.277645657265186,1.6327347653284667,-16.25697998559475,-0.4313357174396515,-0.0506750904023647,0.4349259734153747
3.3266943359375,2.0594638018503786,1.5121641199685631,-14.94828340538144,-0.2998736500740051,-0.1172284409403801,0.3926814198493957
3.33667431640625,1.8885484322622417,1.540440074121207,-13.473140709948538,-0.2637116611003876,-0.1011232435703277,0.3268347680568695
3.346654541015625,1.724754731247574,1.7515094671823084,-11.949106265574692,-0.3213576078414917,-0.0854977816343307,0.2275465279817581
3.35663330078125,1.5865876389205456,1.7538862793162464,-10.226657034790517,-0.3980603814125061,-0.0835733860731124,0.1072470173239708
3.36661328125,1.2117490947641432,1.402023390947282,-7.948056853279471,-0.4611096680164337,-0.0590659491717815,-0.0292963925749063
3.376593505859375,0.8769795261457561,1.0170383505035192,-5.534919606506824,-0.4977646172046661,0.0023851580917835,-0.1966520994901657
3.3865732421875,0.6324164442837238,0.4469617502767592,-3.134409201595187,-0.5057452917098999,0.0514484941959381,-0.367311418056488
3.396553466796875,0.2866086181700229,-0.3653460547983646,-0.7252630702853202,-0.4844290614128113,0.0681806057691574,-0.5219414234161377
3.40653271484375,-0.0589747515380382,-1.1929535011403265,1.263137190565467,-0.4154313802719116,0.083515278995037,-0.6397002935409546
3.416512451171875,-0.3527795648224651,-2.020058843179047,3.044946957334876,-0.2816472053527832,0.0867579504847526,-0.7103084325790405
3.426492431640625,-0.5831716441214084,-2.6840780479505657,4.795884615978598,-0.0848792344331741,0.0304232947528362,-0.7431849241256714
3.436472412109375,-0.6916241277948022,-3.0381092202693223,6.426943849310279,0.1424868106842041,-0.0340555645525455,-0.7681296467781067
3.4464521484375,-0.7177130932971835,-3.3086016931578515,7.803783991423248,0.3706481754779815,-0.074741393327713,-0.7773746848106384
3.456432373046875,-0.7672827414996921,-3.547615908721089,9.093556090936064,0.5761459469795227,-0.0976397842168808,-0.7737714052200317
3.466411376953125,-0.8835985058940946,-3.610868191447854,10.17800844695568,0.7666093707084656,-0.114769123494625,-0.7409523725509644
3.47639111328125,-1.1351466243378818,-3.434928856217861,11.064421864140034,0.9224562048912048,-0.0904613882303237,-0.6627585291862488
3.48637158203125,-1.4104812765605748,-2.917132478326559,11.748338194036483,1.0136772394180298,-0.0541882961988449,-0.5535725355148315
3.4963515625,-1.4493962597578762,-2.2011533692151306,12.190547708284852,1.0346463918685913,-0.0383078679442405,-0.4287920296192169
3.506331298828125,-1.4288598138161002,-1.5419544242069123,12.516114710402489,0.956923246383667,-0.0078370822593569,-0.2641604840755462
3.516310546875,-1.5874509777516126,-1.101123797096312,12.702670716714858,0.7664345502853394,0.0392502695322036,-0.0568307265639305
3.52629052734375,-1.8479164160139856,-0.894422755312547,12.674015115594862,0.4935224056243896,0.0824020057916641,0.1931932866573333
3.536270263671875,-2.314498593366146,-0.8887480706769972,12.519865002846718,0.1949463635683059,0.0807764157652854,0.4661909937858581
3.546250244140625,-2.819952207034826,-0.8054574277237058,12.280331439584494,-0.0509271770715713,0.007095874287188,0.7192662954330444
3.556230224609375,-3.2063603390842674,-0.4956602416679262,11.967139934915304,-0.2004269212484359,-0.0723978877067565,0.9291359186172484
3.566209228515625,-3.4707477730959653,-0.0998197529498487,11.66190143507719,-0.2534780204296112,-0.1447827965021133,1.0468534231185913
3.576189453125,-3.3206817147910592,0.1082737295730039,11.410353608894347,-0.245703175663948,-0.2054887562990188,1.050403356552124
3.58616943359375,-2.9411241792887446,-0.0428525053093209,11.199077002823351,-0.2150523513555526,-0.2087312191724777,0.965053379535675
3.5961494140625,-2.637793266637624,-0.3556204508041963,10.850116265636682,-0.2052532434463501,-0.1556530892848968,0.8279770016670227
3.60612939453125,-2.378086537788063,-0.5967199116762727,10.347599289941789,-0.205352783203125,-0.0747985020279884,0.6547452807426453
3.616109375,-2.1698697576791046,-0.8047470144320279,9.893381357991696,-0.1978597044944763,-0.0171373300254344,0.4644840061664581
3.62608837890625,-2.081375920059532,-0.9762129305750132,9.561334930726884,-0.1975206732749939,-0.0015820022672414,0.2603603899478912
3.636068359375,-2.064310803490132,-1.0862632048338652,9.167949945402144,-0.184526577591896,-0.0133310696110129,0.0571668073534965
3.64604833984375,-2.0043353504769503,-1.1925807223051783,8.796677423164248,-0.1509169936180114,0.0263232886791229,-0.1097739040851593
3.6560283203125,-1.9679374646671115,-1.2972992801472545,8.466238431096077,-0.0866253525018692,0.0763265341520309,-0.2358809858560562
3.66600830078125,-1.9127531914532183,-1.3258902915984392,8.0005767295897,0.0164635442197322,0.0705352574586868,-0.3079662621021271
3.675987548828125,-1.9380911924578248,-1.3208859074398875,7.600992305102943,0.1703199446201324,0.0229973047971725,-0.3345171809196472
3.68596728515625,-1.8252203078202904,-1.3039913251318036,7.416034381636977,0.3291764855384826,-0.050257358700037,-0.3340663909912109
3.695947265625,-1.5865966990098357,-1.1337508591305463,7.093521506392955,0.432447224855423,-0.0995396822690963,-0.3497481346130371
3.705927490234375,-1.2207188754223286,-0.8326290738962591,6.545559122818708,0.4477691352367401,-0.1263672262430191,-0.3914718925952911
3.7159072265625,-0.8309890516042708,-0.7640913981124758,5.566718181827664,0.3537470400333404,-0.0635451227426529,-0.4477908313274383
3.72588720703125,-0.3486351584941148,-0.8189075686663388,4.060291290336847,0.1865485459566116,0.1029237136244773,-0.5355998277664185
3.735866455078125,0.3332546340107917,-0.837466138663888,1.8622464085310697,-0.0299997348338365,0.283814400434494,-0.6386678814888
3.745846435546875,1.0597183122575282,-0.5543388598036021,-1.174433071196079,-0.3004418015480041,0.334157645702362,-0.741074800491333
3.755826416015625,2.1593620999291536,0.4757105461055412,-5.915346326059103,-0.6192573308944702,0.2669671773910522,-0.7683796286582947
3.765806396484375,2.9584213510483504,1.908907183549553,-11.93969663219452,-0.7785930037498474,0.1200834140181541,-0.5821433663368225
3.7757861328125,3.389025767698884,2.9365888739466666,-16.3831431902647,-0.737083911895752,-0.2319252341985702,-0.1974628269672393
3.785765380859375,3.771511173346639,3.0130934369564053,-19.32565443999767,-0.5865064263343811,-0.658739447593689,0.2409272193908691
3.795745361328125,4.373176505535841,2.6068676747590303,-21.415273433876035,-0.4532991647720337,-0.8849145174026489,0.5835679173469543
3.80572509765625,5.594806212192774,3.053753948646784,-23.27361582070589,-0.2828204035758972,-0.7649132609367371,0.7635412812232971
3.815705322265625,6.859518689250946,4.228786739301682,-24.1632511225462,0.0159748010337352,-0.5964954495429993,0.7407739162445068
3.825685546875,7.816096360507607,5.010673029562831,-23.4987035099864,0.2687432467937469,-0.3864082992076874,0.5874642133712769
3.83566552734375,7.974327605089544,4.705986318388581,-22.04949838888645,0.2457601875066757,-0.0775894522666931,0.3786992728710174
3.84564453125,7.658209983840584,3.406086208093166,-21.0498350246191,0.0184461493045091,0.2909840047359466,0.175261989235878
3.85562451171875,6.880639803212881,2.008464266975224,-20.01183403865099,-0.1752471625804901,0.6326329112052917,-0.0235224869102239
3.865604248046875,6.045981707707047,1.2541639027759433,-18.64819707698226,-0.1672854870557785,0.8550596237182617,-0.2427162826061248
3.875584228515625,5.133624286448955,0.7583382414132356,-17.003078923159837,0.0691661983728408,0.9656018614768982,-0.4559201896190643
3.885564208984375,3.8551802211582658,0.0666248278997838,-15.09322963645458,0.4171702563762665,0.9901946783065796,-0.6099684238433838
3.895543212890625,2.6113565106108783,-0.3139759330451488,-13.201345045506953,0.7391752004623413,0.950183093547821,-0.6859654188156128
3.905523193359375,1.436496446174383,-0.0875181609878316,-11.38572887072563,0.9652020931243896,0.8423110842704773,-0.6637911200523376
3.91550341796875,0.2954945199370384,0.4848391340546309,-9.46324397433102,1.0659582614898682,0.623267650604248,-0.55721116065979
3.9254833984375,-0.7011427745074034,1.2677036216981707,-7.4308601948469875,1.0648354291915894,0.3712907135486603,-0.4097993969917297
3.93546337890625,-1.4077397227674722,1.949629654560238,-5.180229970279336,1.0049136877059937,0.1474818587303161,-0.2960584759712219
3.945443359375,-1.6563102867051958,2.3473932933606205,-2.5923072344869373,0.9361041188240052,-0.0549760535359382,-0.2875234484672546
3.95542236328125,-1.625544561563432,2.345112342816591,0.1453705939650535,0.8894122838973999,-0.2205359935760498,-0.3678835332393646
3.96540234375,-1.5568303601689637,1.9692277967385947,2.8639269578397277,0.8457422256469727,-0.3176012933254242,-0.4980692863464355
3.97538232421875,-1.543794937507063,1.4736809523172676,5.296272178429365,0.8052268028259277,-0.3352561891078949,-0.6415989995002747
3.985362548828125,-1.572453168975562,1.0499177067983896,7.323176649719477,0.7499414086341858,-0.3148955106735229,-0.7480383515357971
3.99534228515625,-1.6845925244681537,0.7411039057567715,8.81730052447617,0.6852362155914307,-0.2977010905742645,-0.7727341651916504
4.005321533203125,-1.9131838379554449,0.5736970557462424,9.96972459295988,0.6297260522842407,-0.2895328998565674,-0.7415088415145874
4.01530029296875,-2.0923791062414643,0.4849208940539509,11.03550089008212,0.5831565856933594,-0.291402667760849,-0.6692678928375244
4.025280517578125,-2.170514193062484,0.3454724932121112,11.803271561229227,0.5372387170791626,-0.2597918212413788,-0.566440224647522
4.035260498046875,-2.197552275983244,0.2483212653517723,12.417564319801327,0.4686533212661743,-0.1991753429174423,-0.4461804330348968
4.045240478515625,-2.141604909442365,0.1834584056232124,12.807283768355846,0.3812839686870575,-0.1530052721500396,-0.3130090832710266
4.055220458984375,-2.130927301952988,0.1452327929295599,12.99256317886114,0.2585109174251556,-0.1099688559770584,-0.1474411636590957
4.06519970703125,-2.240806749689579,0.1913038949592038,12.977678913462162,0.0837101861834526,-0.1073503568768501,0.0631463453173637
4.075179443359375,-2.499846977454424,0.3259131121415645,12.708255238848924,-0.1352831423282623,-0.154531717300415,0.290834903717041
4.085159423828125,-2.5838044868186114,0.4427964472908526,12.396262004053591,-0.374374508857727,-0.2120665460824966,0.4944017827510834
4.0951396484375,-2.5957410083279013,0.3497787755712866,12.12225918495655,-0.5880934596061707,-0.2862736582756042,0.6917750239372253
4.105119384765625,-2.682469735971093,0.1104716780086979,11.847978133440018,-0.7563857436180115,-0.3283304572105407,0.8682249188423157
4.115099365234375,-2.670422447563708,-0.0617558153576217,11.493666682875157,-0.873441755771637,-0.3346672058105469,0.9964689016342164
4.125078369140625,-2.5758564504235983,-0.1746309743114747,10.9973818795681,-0.9331772923469543,-0.3376150131225586,1.0764483213424685
4.13505859375,-2.4836492913693187,-0.394379183993861,10.53293715263605,-0.9552801847457886,-0.3051729202270508,1.0788488388061523
4.14503857421875,-2.294351292872429,-0.6128617393882945,10.078216531860829,-0.9277833104133606,-0.2575989067554474,0.9824680089950562
4.1550185546875,-1.983618287271261,-0.9134725428931416,9.647871058407423,-0.8510549664497375,-0.2125001400709152,0.8256664276123047
4.164998291015625,-1.831865737184137,-1.3137221532903611,9.297336788293718,-0.7390075325965881,-0.192394271492958,0.637681245803833
4.1749775390625,-1.729312540682405,-1.5813549989640712,8.957990851670504,-0.5984922051429749,-0.1962340176105499,0.4395793676376343
4.18495751953125,-1.7238669886276126,-1.7791542838245629,8.52449480523169,-0.4190303683280945,-0.1947317123413086,0.2527032196521759
4.194937255859375,-1.7351783639758824,-1.960666450750828,8.296176463466882,-0.2060094475746154,-0.1582821011543274,0.0819376185536384
4.20491748046875,-1.732169245287776,-1.9987590116493403,8.291034424403309,0.0227178186178207,-0.1280551105737686,-0.0844552963972091
4.214897705078125,-1.5744038646519185,-1.848723348482698,8.358982755991816,0.2128720432519912,-0.1001939103007316,-0.2479656487703323
4.224877685546875,-1.478259658409655,-1.6904117321409284,8.281728835919498,0.3430091738700866,-0.0565307438373565,-0.4118010699748993
4.2348564453125,-1.2827701117962598,-1.5925471318468452,8.159377883014082,0.4214717745780945,-0.0036763143725693,-0.5813160538673401
4.244836669921875,-1.061779263375327,-1.4859735937878489,7.935838592219352,0.4843757152557373,0.0549360215663909,-0.7264772653579712
4.25481640625,-0.7934936528813094,-1.3799961219258603,7.686441806590556,0.5400980710983276,0.1152877733111381,-0.8391891717910767
4.26479638671875,-0.5797890890110283,-1.239147973821312,7.310137135404348,0.5544384717941284,0.1646312177181244,-0.9206972718238832
4.2747763671875,-0.2828063032776117,-1.0901588970981535,6.4989522699445486,0.4696798920631408,0.209020510315895,-0.9410925507545472
4.2847568359375,-0.1582243764497339,-1.097594307795912,4.7555812471628185,0.253982812166214,0.2531808912754059,-0.8770309090614319
4.2947353515625,-0.0290529298745095,-1.2835937031388285,2.089907747691869,-0.0588600523769855,0.3169939517974853,-0.7409841418266296
4.304715576171875,0.2219743795655667,-1.2666530897319317,-1.3708271654337645,-0.4175527393817901,0.3355912268161773,-0.5834149718284607
4.31469580078125,0.8520723908390849,-0.5583765543544664,-5.909562481960654,-0.8095982670783997,0.271136075258255,-0.3881725370883941
4.324675537109375,1.402621941362321,0.74938504656367,-11.638621097254752,-1.0997791290283203,0.1772303134202957,-0.1000637784600257
4.334655517578125,1.29151207504794,0.978879811696708,-16.124216359746455,-0.9910755753517152,-0.0685368403792381,0.1413648277521133
4.34463427734375,1.4633604877024888,-0.0843425631590187,-17.7081514383316,-0.4650235772132873,-0.3286475539207458,0.1966178715229034
4.354614501953125,2.8576041845589875,-0.3146048420658335,-18.02002659970522,0.0565956644713878,-0.2349048107862472,0.0807964578270912
4.364594482421875,4.5125829303994776,1.070502156600356,-19.586409654986856,0.2362473756074905,0.1096392944455146,-0.1557289659976959
4.37457470703125,5.536169314306974,2.034953337711096,-21.13650793042183,0.2039834409952163,0.4234334230422973,-0.2603387534618377
4.384554443359375,5.3755993976444,1.2816206495001912,-20.666386326897143,0.1216958612203598,0.5814626812934875,-0.0082565797492861
4.39453466796875,4.040008380764722,-0.1771437060510739,-19.45449358587861,-0.0429122596979141,0.508426308631897,0.5003418922424316
4.404513427734375,2.8879566527247427,-0.8667562382951378,-19.275908120054005,-0.2759240269660949,0.2832759916782379,1.0426223278045654
4.414493408203125,2.2705307106934485,-0.7835071694612502,-19.54571524102688,-0.3993261158466339,-0.0397920869290828,1.423574924468994
4.4244736328125,2.0243658927232024,-0.8039780028209089,-19.13220341347456,-0.2531505823135376,-0.2843729257583618,1.5337272882461548
4.43445361328125,1.948661686310917,-1.1031695506449788,-17.525225312954188,0.1131120771169662,-0.3383466601371765,1.3700777292251587
4.444433349609375,2.264154015268385,-1.0323669986691326,-15.450468372642993,0.5072811245918274,-0.2128357291221618,1.022374391555786
4.45441259765625,2.3915638589985666,-0.4474037949558347,-13.63321319848299,0.7230550050735474,-0.0374958664178848,0.5890592336654663
4.464392333984375,2.039055804593861,0.6017314196953549,-12.515927663397788,0.736497163772583,0.0847318097949028,0.1841018348932266
4.47437255859375,1.2641753014415502,1.693556021516025,-11.37111114730835,0.6183798313140869,0.1055609285831451,-0.1646244674921035
4.4843525390625,0.4984020877219736,2.463564242456853,-9.753260355117916,0.4758647680282593,0.05521672219038,-0.4918258488178253
4.49433251953125,-0.0072357964724302,2.7815815598472957,-7.493168474721908,0.3622817397117615,-0.0151980593800544,-0.8083340525627136
4.5043125,-0.3113637047201394,2.577557701383531,-4.970338681086898,0.2985085248947143,-0.0672839060425758,-1.1159517765045166
4.51429150390625,-0.3804819568708539,2.047903420177102,-2.46626561037004,0.2690691351890564,-0.0764299929141998,-1.4090415239334106
4.524271240234375,-0.3026267099045217,1.488033741188049,-0.0545744707524776,0.2773920893669128,-0.0213444046676158,-1.6441073417663574
4.53425146484375,-0.3363143138423561,1.0047465858157725,2.199511447227001,0.3073323965072632,0.0330932699143886,-1.7879211902618408
4.544231689453125,-0.5612804225698114,0.6254932939570397,4.218614889377355,0.3508123457431793,0.0450897812843322,-1.805992126464844
4.554211669921875,-1.0084214018709956,0.1557514652638696,6.165137663963437,0.3999700248241424,0.0029372656717896,-1.7353938817977903
4.5641904296875,-1.328371587020159,-0.2297090837371535,7.684134698691964,0.4334020912647247,-0.0239304117858409,-1.6019891500473022
4.574170654296875,-1.464795050550252,-0.3844246300820261,8.736943377691507,0.4380202889442444,-0.005686960183084,-1.4319405555725098
4.584150634765625,-1.3992233849652111,-0.4250238400392234,9.614594227227569,0.4312416911125183,0.0196740217506885,-1.266565203666687
4.59413037109375,-1.1684349998250605,-0.5074983443040401,10.183657266497612,0.4166512787342071,0.0998948216438293,-1.0765366554260254
4.6041103515625,-1.250405280894786,-0.5738782575320452,10.549709423738715,0.4100677371025085,0.1425240039825439,-0.838656485080719
4.614090576171875,-1.4124061071433127,-0.5199487701522186,10.825265902018549,0.4119399487972259,0.1249263733625412,-0.550312340259552
4.6240693359375,-1.7044963715948165,-0.2524354774712585,11.057385389631984,0.3867829144001007,0.0338383018970489,-0.1948985308408737
4.634049560546875,-2.019034468567371,0.1734591905857436,11.093519363808632,0.3149143159389496,-0.1214868426322937,0.1885212957859039
4.64402978515625,-2.219470093280822,0.4850689972877502,10.971398712527751,0.1786914020776748,-0.2814306616783142,0.5532846450805664
4.654009521484375,-2.2350481861628597,0.6319448812492191,10.887201841449738,-0.0106785176321864,-0.4181866645812988,0.8333887457847595
4.663989501953125,-2.010856861200184,0.6580653378684074,10.721707327866554,-0.2192384749650955,-0.4866203069686889,1.0216082334518433
4.673969482421875,-1.689805144549906,0.5379192015308887,10.539174001199006,-0.4039182960987091,-0.4818079769611358,1.113096833229065
4.68394921875,-1.4647861365914343,0.3739517148518934,10.20243912385702,-0.5407585501670837,-0.4501031339168548,1.1348189115524292
4.693929443359375,-1.380773974430561,0.3165869192611426,9.737702135980127,-0.6030336022377014,-0.3922528922557831,1.0815825462341309
4.703908447265625,-1.344892805971205,0.2392466908785514,9.306355961051583,-0.5951216220855713,-0.3303764760494232,0.9698222279548644
4.713888427734375,-1.3058300848662852,0.1211784111278597,8.889783576884865,-0.5262246131896973,-0.3048506081104278,0.8130584359169006
4.72386865234375,-1.2320073082864285,0.0066511101859621,8.398066812145709,-0.3943509757518768,-0.2864342033863067,0.6269373297691345
4.7338486328125,-1.2314119727417825,-0.2914952394341118,7.961194567272066,-0.2166345119476318,-0.2540275454521179,0.4479511082172394
4.743828369140625,-1.2247935044500975,-0.6048772434404119,7.650045382085442,0.0098061207681894,-0.2488775849342346,0.2776643335819244
4.753808349609375,-1.2382076242312787,-0.6641928808379918,7.48244074448049,0.2592495083808899,-0.2217666059732437,0.1349684447050094
4.76378759765625,-1.2017342620324345,-0.5305933886874467,7.589269718605279,0.5033040046691895,-0.230955883860588,-0.0013912915019318
4.773767333984375,-1.0593050552815195,-0.356721068989858,7.946782595559954,0.6931106448173523,-0.2554931640625,-0.1283804029226303
4.783747314453125,-0.902728665234521,-0.2778253365272656,8.328543194064498,0.8064771294593811,-0.2762828767299652,-0.2285885512828827
4.7937275390625,-0.7717769111137837,-0.254665519811958,8.60428087413013,0.8382382392883301,-0.2966930866241455,-0.2853626012802124
4.803707763671875,-0.648858533583954,-0.2316823383051902,8.929774226489663,0.8198207020759583,-0.3342210650444031,-0.3197827935218811
4.8136865234375,-0.5104520064778626,-0.1754869518199935,9.157098296520113,0.7605225443840027,-0.3513566553592682,-0.3253834247589111
4.82366650390625,-0.31236754800044,-0.1631371733346953,9.197384129679202,0.6763167977333069,-0.3482059836387634,-0.3233275413513183
4.833646484375,-0.0739000795997679,-0.2321652995165437,8.961506750836968,0.5815982818603516,-0.3249014616012573,-0.3227440416812897
4.84362646484375,0.1525152050226926,-0.4134844280887395,8.279645599904656,0.4926639795303345,-0.2444713115692138,-0.3317972421646118
4.8536064453125,0.5341944088540971,-0.570801991891861,7.122973226326704,0.397691398859024,-0.1379371583461761,-0.3555217385292053
4.86358642578125,0.9650628102030604,-0.8880745553296059,5.376005640357732,0.2535469532012939,-0.0152595425024628,-0.3153441548347473
4.8735654296875,1.1174073348339646,-1.5086967361189425,2.988245411425829,0.0703944489359855,0.0988933891057968,-0.1929686963558197
4.883545654296875,1.129204374807328,-2.2745966449581085,0.3327385011821985,-0.1435426026582718,0.2222410142421722,7.12443434167e-05
4.893525390625,1.137570709679648,-2.791607571560144,-2.9621956088900565,-0.3309545814990997,0.3613046109676361,0.2050315886735916
4.90350537109375,1.3740202623866498,-2.9544767050758,-6.54596653457582,-0.4420962929725647,0.5495736598968506,0.322628378868103
4.913485595703125,1.9134879354685543,-2.8520462581709025,-10.025484474104642,-0.481666088104248,0.6332019567489624,0.2936433255672455
4.923465576171875,2.681053731693327,-2.630936532610655,-13.579680345737934,-0.5010263919830322,0.752966046333313,0.2045621573925018
4.9334443359375,3.187948484081029,-1.3047883207283912,-17.295644988429544,-0.5770120024681091,0.7745552062988281,0.0987763255834579
4.943424560546875,3.576549157738685,0.9278361454188824,-20.95943754533529,-0.7001661062240601,0.6389803290367126,0.0428185015916824
4.953404296875,3.4421582229495047,1.677529892605543,-23.001403976678848,-0.7392061948776245,0.397511214017868,0.023196866735816
4.963384521484375,2.990226648370921,0.5299516201851889,-23.30221063154936,-0.5184916853904724,0.2034001350402832,-0.0387540236115455
4.973364501953125,2.9521085146397352,-0.7078671143263578,-22.17903077772856,-0.0249605569988489,0.1855601519346237,-0.2457037270069122
4.983343505859375,3.485238070741296,-0.5569476540625095,-20.287146186780927,0.5083889961242676,0.3435644209384918,-0.6156300902366638
4.993323486328125,4.090193676647544,-0.0056285074062645,-17.98587415473461,0.8313814401626587,0.5750410556793213,-1.0269262790679932
5.003303466796875,4.284930943588912,0.4312892205769196,-15.913530120784044,0.8610367178916931,0.8493185639381409,-1.3184386491775513
5.013283447265625,3.89346055971384,0.985294062653184,-14.17699391245842,0.648404061794281,1.0730808973312378,-1.3895831108093262
5.023263427734375,3.1830563281252977,1.4135501626119016,-12.766382433646916,0.2358731478452682,1.1250431537628174,-1.2263177633285522
5.0332470703125,2.3752719187587497,1.6610025361746548,-11.929804183733465,-0.2716896831989288,0.9833511710166932,-0.8454071879386902
5.04322705078125,1.4554356860525903,1.734364855635911,-11.352401770663262,-0.7362677454948425,0.7329431176185608,-0.3392746150493622
5.05320703125,0.7130788576252758,1.6094377686321737,-10.612434467720984,-1.0777169466018677,0.4019864499568939,0.1545984745025634
5.063187255859375,0.3053988049663603,1.4182462114736436,-9.975931046384572,-1.2170486450195312,0.0674010217189788,0.5444140434265137
5.0731669921875,0.0694603435866534,0.9624312195904552,-8.861471674636006,-1.154902458190918,-0.2404233813285827,0.760768473148346
5.08314697265625,0.1767253710411488,0.4189988806612789,-7.186677928996086,-0.940201997756958,-0.4274594187736511,0.8001448512077332
5.0931259765625,0.3930344183214008,-0.0982167564663104,-5.100221783062815,-0.6200348734855652,-0.4950714707374573,0.705420732498169
5.10310595703125,0.5509617115207016,-0.5595729245321824,-2.6033020912319422,-0.2420338839292526,-0.4352186322212219,0.5257718563079834
5.1130859375,0.5579394415788352,-0.7711349599484354,0.0834317319244146,0.0949614569544792,-0.3170048892498016,0.3121695816516876
5.123066162109375,0.4166108164809644,-0.828827854982391,2.483399700522422,0.3318203687667846,-0.1740178018808365,0.1107368990778923
5.1330458984375,0.0805731276229023,-0.752440050220117,4.512361688864231,0.465091347694397,-0.0252043511718511,-0.0364999584853649
5.143026123046875,-0.3662527943797409,-0.4668941659107804,6.301900588580966,0.5279721021652222,0.0742585584521293,-0.1142425760626792
5.153005126953125,-0.8496699328072369,-0.0847426866588182,7.830657969823479,0.5197828412055969,0.0921882912516594,-0.1232994571328163
5.16298486328125,-1.3054874089084565,0.3054112625891342,8.945229569774865,0.436332643032074,0.0528725646436214,-0.0820440873503685
5.172965087890625,-1.6604444639004765,0.5925964020054787,9.78340824062228,0.3052159249782562,-0.0325832143425941,-0.0027884151786565
5.182945068359375,-1.9004763320736584,0.6616448768556118,10.601260747277736,0.1598255336284637,-0.1094817221164703,0.0746767520904541
5.192925048828125,-1.9239711894296108,0.557418121118471,11.27948149588108,-0.0094311293214559,-0.1325090080499649,0.1424997299909591
5.202904052734375,-1.7666595439106223,0.3515949946803972,11.600733557409049,-0.1724775731563568,-0.0758576467633247,0.2083499729633331
5.21288427734375,-1.6877553724132477,0.0986669844518415,11.7741530187726,-0.3030419945716858,0.0376215167343616,0.3101918995380401
5.222864013671875,-1.8600838236697017,0.0067824997469782,11.79405482007265,-0.3890990018844604,0.0909476652741432,0.432099848985672
5.232843994140625,-2.087797185278684,0.0825243530222214,11.495240215802191,-0.4521363079547882,0.05286206305027,0.5541019439697266
5.242823974609375,-2.2613297516278923,0.0987025489555671,11.083367387628554,-0.5035276412963867,-0.0198892876505851,0.6858673691749573
5.252802978515625,-2.4019826694212854,0.0060769361603539,10.80715039961338,-0.5344789028167725,-0.0528192743659019,0.8269909620285034
5.262782958984375,-2.447496758622676,-0.0953681073032319,10.684820489495992,-0.5501977205276489,-0.0956481993198394,0.9518293142318726
5.272762939453125,-2.4195355695076284,-0.1572525905418209,10.606076038604972,-0.5596333146095276,-0.1429321020841598,1.074763536453247
5.282742919921875,-2.5238930389523504,-0.202318314921204,10.53204283414483,-0.5863447189331055,-0.1999916732311248,1.1942071914672852
5.29272314453125,-2.6516414669871327,-0.1687256775241345,10.265824677574631,-0.6444804668426514,-0.2933096587657928,1.2832410335540771
5.302703125,-2.6365876902401446,-0.1684677207076922,9.883547361719607,-0.7010967135429382,-0.3967252075672149,1.30405592918396
5.312681884765625,-2.516431617030501,-0.2645102384074591,9.660925185769797,-0.7424529194831848,-0.4694412052631378,1.2452821731567385
5.322662109375,-2.274653197450936,-0.3923423444040119,9.487478251877429,-0.7606735825538635,-0.473918080329895,1.1104761362075806
5.33264208984375,-2.0075361923448742,-0.6136978614188731,9.315521264281868,-0.7632504105567932,-0.4131980240345001,0.9277247786521912
5.3426220703125,-1.8368449869014325,-0.8760876918725669,9.180112676882745,-0.7550879716873169,-0.335017055273056,0.7169615626335144
5.352601806640625,-1.7282709226749835,-1.1314957736801354,8.904929123568534,-0.7314683794975281,-0.278462678194046,0.5050000548362732
5.36258203125,-1.7661080475077031,-1.4302028989881277,8.535615334182976,-0.6735114455223083,-0.205214112997055,0.3276265859603882
5.372560791015625,-1.9424749605000016,-1.6753019874230026,8.138720879432558,-0.5602248311042786,-0.1913062781095504,0.1474405527114868
5.382541015625,-1.942808430238068,-1.974680216925591,7.610737454047799,-0.3622664511203766,-0.2119848579168319,-0.0479507967829704
5.392521240234375,-1.933879273851216,-2.365464664363116,7.362851657503842,-0.0761286839842796,-0.2111853808164596,-0.2771637439727783
5.402501220703125,-1.7424939476862549,-2.4818925108298657,7.270522917896509,0.2489545047283172,-0.1657729148864746,-0.5675214529037476
5.41248095703125,-1.3431978386215866,-2.3395805737830697,7.104376662406325,0.5611270070075989,-0.0965850576758384,-0.8921059370040894
5.422460205078125,-0.9768387343231588,-2.1242123144842684,6.636244186872244,0.8093398809432983,0.025619376450777,-1.1664890050888062
5.432440185546875,-0.6848848096024245,-1.8553468582756816,5.968386426851153,0.9648969769477844,0.0860377103090286,-1.3191012144088743
5.442419921875,-0.4857363020900637,-1.4123893021389842,5.105308877068758,0.991454303264618,0.1803821325302124,-1.2872549295425415
5.45239990234375,-0.5155285060245544,-0.6867149476390332,3.6520962738931178,0.7613204717636108,0.3084876537322998,-1.1012845039367676
5.462380126953125,-0.2917623476713896,0.41824375144504,0.3822568575888871,0.2144935429096222,0.4329691231250763,-0.8441415429115295
5.472360107421875,-0.0736257927030324,1.9486045492962,-5.085239317986368,-0.5401368141174316,0.454966276884079,-0.5675402879714966
5.482339111328125,-0.2014398333199322,3.849185656918585,-11.519652188003064,-1.1520485877990725,0.2237295657396316,-0.2596088647842407
5.492319091796875,-0.2272669330157339,5.322170589795708,-16.370791073691844,-1.3730614185333252,-0.3579338192939758,0.0012363037094473
5.502299072265625,0.5275926725015044,5.7833040002226825,-18.995617014467715,-1.2899880409240725,-0.945282518863678,0.1686611324548721
5.512279052734375,2.321192391916364,4.825518122220039,-20.17217073107958,-1.2297569513320925,-1.0493125915527344,0.2741071283817291
5.522259033203125,3.9779058525949713,2.602593358440697,-21.28998935012817,-1.335932731628418,-0.6968211531639099,0.3432390987873077
5.532238037109375,4.901791214561462,0.0272960032045841,-22.61971118271351,-1.3284971714019775,-0.2208026498556137,0.3468636572360992
5.542218017578125,5.085584770423174,-1.3076599306419492,-23.631032251548767,-0.8842443823814392,0.089281752705574,0.3009303212165832
5.5521982421875,4.716576685985922,-1.0566422658130523,-23.87959667800665,-0.0171191692352294,0.2301166355609893,0.2541380524635315
5.562177978515625,4.189443155428767,-0.0545567159000784,-22.607295937776563,0.8592948913574219,0.2535353302955627,0.1550917327404022
5.572157958984375,3.955532692745328,0.8164758114747702,-20.40346604282856,1.308692455291748,0.2323631942272186,-0.0048894020728766
5.58213818359375,3.745660692775249,1.5182047153070568,-18.25875702989101,1.24454665184021,0.177832081913948,-0.1517391502857208
5.592116943359375,3.1712182985544204,2.0926098462574183,-16.107915213286876,0.8562220335006714,0.1600291132926941,-0.1900306195020675
5.602096923828125,2.253918890849501,2.282304004465044,-13.6645260361135,0.364075243473053,0.1817547976970672,-0.1462988406419754
5.6120771484375,1.5984196771420538,2.1196897224932907,-11.254555144417283,-0.1112377420067787,0.2623865306377411,-0.1121674999594688
5.62205712890625,1.32502139980942,1.6996689514383672,-9.158328130576011,-0.5225299000740051,0.3092995285987854,-0.1568251401185989
5.632037109375,1.1620390882428735,1.138973562214896,-7.628869907587767,-0.7918047904968262,0.3202871978282928,-0.2532454133033752
5.642016357421875,0.768567082221806,0.5170541812218725,-6.251847979167104,-0.8096402287483215,0.2480831444263458,-0.3920292258262634
5.65199609375,0.428075628825277,-0.149945500665158,-4.750795766451954,-0.538013756275177,0.1303687691688537,-0.5785463452339172
5.66197607421875,0.2892184353422373,-0.952537236759439,-3.027517099106312,-0.0454523563385009,0.0478453561663627,-0.7782006859779358
5.6719560546875,0.2329695285715162,-1.7457225543439387,-0.8551888423591851,0.528684139251709,0.0120215807110071,-0.9340973496437072
5.681935791015625,0.232670691755414,-2.2171822746045886,1.4176666580200197,1.0303939580917358,0.0111216576769948,-0.992914617061615
5.691916015625,0.2235259198565035,-2.4067820325270293,3.576646188372373,1.3808417320251465,0.0159001685678958,-0.9420413374900818
5.70189501953125,0.0987521967835724,-2.411936054289341,5.717647578963637,1.562011957168579,0.0663961693644523,-0.8042660355567932
5.711875,-0.127288043981418,-2.0622215761259195,7.539172685527801,1.5627014636993408,0.1750510185956955,-0.6083782911300659
5.721855224609375,-0.3062941463708877,-1.5122528211653232,8.944042990338803,1.4362611770629885,0.2444044053554535,-0.3958750665187835
5.731835205078125,-0.6181712074406445,-1.0208389118302612,10.10982279947996,1.2031069993972778,0.2440281212329864,-0.157562106847763
5.74181494140625,-1.0483134134069083,-0.6285697057276964,10.95079548496008,0.8995850086212158,0.1985791325569152,0.1109808683395385
5.751794189453125,-1.5371578375801442,-0.3953327949242666,11.543983496183156,0.6048277020454407,0.1412394046783447,0.3674238622188568
5.761774169921875,-1.8769797211520372,-0.1489932414416223,12.051548402917383,0.3542785942554474,0.089738592505455,0.5615399479866028
5.77175390625,-1.9765867811992763,0.0275100934798363,12.327954776024818,0.1741394400596618,0.0136643284931778,0.6782910227775574
5.78173388671875,-2.021032656647265,0.0667805527510354,12.302187882083654,0.0700849741697311,-0.0925099328160286,0.7491594552993774
5.791714111328125,-2.215285939463973,0.0367474116335622,12.045716043502091,0.0204899907112121,-0.2541835010051727,0.7742312550544739
5.801694091796875,-2.401436725976318,0.0608632138994522,11.596516816496848,0.0001701128203421,-0.391694575548172,0.7393540143966675
5.811673095703125,-2.4528140081226826,0.0991761852161493,11.132055722951888,0.0150103103369474,-0.4343618750572204,0.6402921080589294
5.821653076171875,-2.453557519966364,0.0474004509372636,10.74715156572461,0.0692136660218238,-0.356400728225708,0.4953135550022125
5.831633056640625,-2.237294649915397,0.0834767949088476,10.4446673330307,0.1491902470588684,-0.2888315618038177,0.2896296381950378
5.841613037109375,-1.9874242554254828,0.0760367537017445,10.256072514367103,0.2029252499341964,-0.2057615369558334,0.1113536581397056
5.851593017578125,-2.0303677634865043,0.0403109310677275,10.179507161080837,0.1899071782827377,-0.1941733211278915,-0.0417858250439167
5.861572021484375,-1.9639491256833077,0.0153517915791831,10.026285269093512,0.1319448947906494,-0.2281865328550338,-0.1786026656627655
5.871552001953125,-1.7874138703867792,-0.0089983126329258,9.924714069366454,0.0627163052558898,-0.262112557888031,-0.3125900030136108
5.8815322265625,-1.4622947581671175,-0.1465511637854389,9.820606044638156,0.020141115412116,-0.2501004636287689,-0.4514813721179962
5.891511962890625,-1.0853941669143736,-0.3260208102997392,9.725062434637548,-0.0042912564240396,-0.216201901435852,-0.5936797857284546
5.901491943359375,-0.7440555221039802,-0.5225586603896692,9.519708788874745,0.015545162372291,-0.171047955751419,-0.7252159714698792
5.91147216796875,-0.5972272036112845,-0.7707946951434016,9.40054231122434,0.0607925355434417,-0.104602612555027,-0.7821972370147705
5.921450927734375,-0.7455991713494062,-0.9545486496470869,9.280504311436417,0.139410138130188,-0.0600864775478839,-0.7510779500007629
5.931430908203125,-0.8174398342013358,-0.9834298031512648,9.170156515535712,0.2337376922369003,-0.0917890071868896,-0.69002366065979
5.9414111328125,-0.8260808943618089,-1.066212496582419,9.020654520854354,0.292734682559967,-0.1368485540151596,-0.5979273319244385
5.951390869140625,-0.7862033497426658,-1.210561711610481,8.59901842355728,0.3281320631504059,-0.2070747762918472,-0.5067774653434753
5.96137109375,-0.6693415688380598,-1.3205223348245023,7.938998517554998,0.3891318440437317,-0.2762395441532135,-0.456945925951004
5.971350341796875,-0.4783264642249792,-1.3595758497096595,7.253117025065421,0.5010735392570496,-0.3432747721672058,-0.438565582036972
5.981330078125,-0.2726546924237161,-1.6737043429680167,6.454335129582882,0.6469320058822632,-0.3461724519729614,-0.3955241739749908
5.99131005859375,-0.1337093822658062,-1.9843819651201369,5.491458650442958,0.7260193824768066,-0.3351344466209411,-0.3083072602748871
6.0012900390625,0.0160709179002791,-2.256627857547253,3.655855334165692,0.701511800289154,-0.3442617654800415,-0.1829295605421066
6.011269775390625,0.2002904440890997,-2.6025954042673107,1.4070347893685102,0.5915874242782593,-0.2069326341152191,-0.0583088025450706
6.02125,0.4359802644699811,-2.770669997471571,-1.7057687296181916,0.380031555891037,0.036335851997137,-0.0024771962780505
6.03122509765625,0.9321265360891818,-2.480655370250344,-6.524676493787765,0.0476190000772476,0.2496172338724136,-0.0454211980104446
6.041205322265625,0.8722649917792529,-1.6169681641370055,-12.824030320495366,-0.1699635684490203,0.3312401473522186,-0.1226379796862602
6.05118505859375,0.1682302221573889,-1.0309216952316462,-17.742316742783785,-0.0037114862352609,0.2194909900426864,-0.2257475852966308
6.0611650390625,0.1649068498883396,-0.3717551181230694,-19.96953335853815,0.327397733926773,0.0290744397789239,-0.383729487657547
6.071145263671875,0.9770497467253356,0.939508901425451,-21.89094098109007,0.4796493351459503,-0.0437385141849517,-0.5352455377578735
6.081124267578125,1.4192036583289502,1.28574445143193,-23.430634766888616,0.414089173078537,-0.0049440916627645,-0.6260653734207153
6.091104248046875,1.512010536842048,0.4572181366793811,-23.63872923579216,0.3115827739238739,0.0491297952830791,-0.6397079229354858
6.101084228515625,1.7088883229434488,-0.1698250170681625,-22.69710421899557,0.2633991241455078,0.114322043955326,-0.5801675319671631
6.11106396484375,2.0217561486162245,0.0853266788255423,-21.460293309819697,0.1483955681324005,0.128067672252655,-0.4928438365459442
6.121044189453125,2.348084928886592,0.7484162745967506,-20.80123552684784,-0.051064271479845,0.1151950284838676,-0.4306305348873138
6.131024169921875,2.474040336024761,0.9759726190131156,-20.040950243020056,-0.2577452957630157,0.1504068076610565,-0.3839008510112762
6.1410029296875,2.39697623943612,0.5053087983705103,-18.3835922008276,-0.3264370858669281,0.2353987693786621,-0.330793023109436
6.150983154296875,2.1822066766828296,-0.4917283090464771,-15.661624567204711,-0.2778341174125671,0.3620515167713165,-0.2559107840061188
6.16096337890625,1.7823918044410645,-1.3411058347783982,-12.87859426985383,-0.2301393002271652,0.4822582900524139,-0.1389629691839218
6.170943115234375,1.3724321164123714,-1.4211917634062468,-10.86627128162384,-0.2396566420793533,0.5364496111869812,0.0079492470249533
6.180923095703125,0.9320326472606508,-0.8936324086524545,-9.475923423162104,-0.2872772812843323,0.525234043598175,0.1698973178863525
6.19090234375,0.4606584863916039,-0.2449910249505192,-8.23036631295085,-0.3243272006511688,0.4474164843559265,0.3213800489902496
6.200882080078125,0.0043728813219815,0.1013606257162988,-6.893421543374657,-0.2915498614311218,0.3556371331214905,0.4584598541259765
6.210862060546875,-0.214805291653797,0.1842738867245614,-4.956964235728979,-0.2065425664186477,0.2678510844707489,0.5592389106750488
6.220842041015625,-0.1537203430287539,0.2831784975908696,-2.6048043124884366,-0.177343875169754,0.0853143259882927,0.6423566937446594
6.230822509765625,-0.2286403402607887,0.4578820804808288,-0.5813455977380275,-0.2301042824983596,-0.171238899230957,0.7105826139450073
6.24080224609375,-0.2994272562760859,0.5909631747804581,1.4579378781318664,-0.2743334174156189,-0.3498917520046234,0.7014027237892151
6.25078125,-0.1060796901274472,0.6223968623116612,3.929749432191252,-0.2717346847057342,-0.4740152955055237,0.5684289932250977
6.26076123046875,0.1025213400587439,0.6890904445987195,5.985407119756936,-0.2357165813446045,-0.5191620588302612,0.3475474119186401
6.2707412109375,0.088222181071341,0.7217249592870474,7.732411530604958,-0.1708781868219375,-0.4956868588924408,0.0846012681722641
6.28072119140625,-0.1269230100613087,0.7170275952510535,9.068581224155423,-0.0831489041447639,-0.4137097895145416,-0.1730313897132873
6.290701171875,-0.4145182281158864,0.7351867906674743,10.250196900331972,0.0161430593580007,-0.3537591099739074,-0.3855332732200622
6.30068017578125,-0.7453194776251911,0.7143329493395983,11.248076303792,0.0993880107998848,-0.3302655816078186,-0.53509920835495
6.31066015625,-1.0021288775980473,0.7706570402383804,12.030365329635142,0.1244110688567161,-0.258096843957901,-0.6064112186431885
6.32064013671875,-1.1276181285291909,0.8762433208256959,12.6332517280519,0.0802295804023742,-0.1885896921157837,-0.5769726634025574
6.3306201171875,-1.2511518614783883,0.994549966776371,12.876722630763052,-0.0047835810109972,-0.1675179600715637,-0.421284019947052
6.340600341796875,-1.5439406295880675,1.0781674305312334,13.050692711746692,-0.1156846284866333,-0.1011525392532348,-0.1679114550352096
6.350580322265625,-1.8808222219243644,1.2519795444741844,13.223764967107773,-0.2196033000946045,-0.0309289749711751,0.0949236378073692
6.36055908203125,-1.753773466591537,1.3214300973191857,13.138527647066116,-0.3244304358959198,-0.0707003474235534,0.3088846504688263
6.370539306640625,-1.4867583144247531,1.0428254104498773,12.731753018814324,-0.4566553235054016,-0.1734424382448196,0.4774568974971771
6.380519287109375,-1.3111872279852628,0.6087604050166905,12.336284212952853,-0.6544914245605469,-0.3059010505676269,0.607335090637207
6.3904990234375,-1.0920843122027817,0.2635110895685851,11.723787105625869,-0.918629825115204,-0.4536535143852234,0.6752060651779175
6.400479248046875,-0.9582141133520752,-0.0866488764731679,10.94706272817254,-1.1884297132492063,-0.5033115148544312,0.6816274523735046
6.410459228515625,-0.8075578340690582,-0.5997253771025687,10.399516524183747,-1.3538564443588257,-0.3994378447532654,0.6738646030426025
6.420438232421875,-0.6804201583437621,-1.622509577781707,10.03873090916872,-1.3482290506362915,-0.2663343250751495,0.5886041522026062
6.430418212890625,-0.2906338550981134,-2.260636362536252,9.45358416558206,-1.234925389289856,-0.1607285141944885,0.4019402265548706
6.440398193359375,-0.1672811047390103,-1.8806614784047009,8.747515040588379,-1.0603736639022827,-0.1732110232114792,0.2222750633955001
6.450378173828125,-0.6435536321088672,-1.8758683989092704,8.302508589097856,-0.9003176689147949,-0.2004764527082443,0.0477922111749649
6.460358154296875,-0.6792506761729716,-1.8151788062773644,8.25207194880247,-0.8266829252243042,-0.2632010281085968,-0.1548808962106704
6.4703369140625,-0.3393783410554751,-1.801943184868246,8.05007287416458,-0.929082214832306,-0.3554529249668121,-0.4455311000347137
6.480317138671875,0.1675451259700581,-1.8323773399680847,7.519786432534456,-1.3172492980957031,-0.4685722887516022,-0.7361689805984497
6.49029736328125,0.4888054804023355,-2.7901714012771843,6.440711677899956,-1.921536207199097,-0.6282695531845093,-0.8578858375549316
6.50027734375,-0.2388297258418053,-4.275337478074431,5.4942187628060575,-2.225683689117432,-0.471533864736557,-0.9269253611564636
6.510257080078125,-0.7284063367471099,-3.276733267471194,7.937691526609659,-1.899518966674805,-0.1368938237428665,-1.1065020561218262
6.520237060546875,0.0931548882331699,-1.8990559438817205,10.90996780000925,-1.184665560722351,0.0300661642104387,-1.425613284111023
6.53021630859375,1.2801654822558164,-1.655825133536756,11.02330191824436,-0.5845943689346313,0.0773833468556404,-1.6130346059799194
6.540196044921875,1.3226108315363525,-2.6773306195169684,9.346319722649454,-0.2817178666591644,0.4155462086200714,-1.683003306388855
6.550176025390625,1.4260069086030125,-3.0104356159240004,7.669862427711486,-0.2739022672176361,0.9464346170425416,-1.6916263103485107
6.56015625,1.8047338385000824,-2.3422677670404317,5.15019431297779,-0.510765552520752,1.3490625619888306,-1.6165498495101929
6.57013623046875,2.2797414605006576,-1.9659296319760384,1.450128081163764,-0.858784556388855,1.473259687423706,-1.5241165161132812
6.580115234375,2.5988755069613454,-1.6418980227321385,-3.29115809866488,-1.423750400543213,1.5470221042633057,-1.375980019569397
6.590095458984375,2.8200875238522887,0.0669283408910036,-10.377711519610882,-2.327969074249268,2.020250082015991,-0.923337697982788
6.6000751953125,1.619190808622539,2.182149247407168,-18.25808833684921,-3.080165147781372,2.028489589691162,-0.2912889122962951
6.61005517578125,1.3685203497961165,3.224894359162449,-22.742465455722808,-3.35144567489624,0.9018248319625854,0.4790738523006439
6.62003515625,0.7540469008948654,3.4506215153902766,-25.620118156576154,-3.190694808959961,-0.1456065475940704,1.2211346626281738
6.630014892578125,0.3955256506152451,5.392949760895967,-23.638369170308117,-2.293062925338745,-0.9465410709381104,1.779870867729187
6.639994140625,0.5789739732358604,6.068204060909152,-19.04154056125283,-0.7928071618080139,-1.3760921955108645,2.1602299213409424
6.64997412109375,0.8862166525032371,5.853893201708793,-14.77655321227908,0.7936789393424988,-1.33614981174469,2.1978702545166016
6.6599541015625,1.6932696057900785,6.424771765968203,-12.01343640666604,1.810114860534668,-0.8083893060684204,1.9479719400405884
6.669934326171875,1.5571264205060895,6.657391019797325,-11.36707794626951,2.088071346282959,-0.2991635799407959,1.6004416942596436
6.679914306640625,0.4092930408135056,6.523235647329687,-11.867398288702963,1.803706169128418,-0.1203296184539794,1.2185081243515017
6.68989306640625,-0.6704989952448756,6.627208647501468,-12.598382659244535,1.2528762817382812,-0.0075000054202973,0.8374900221824646
6.699873291015625,-1.1483124684464183,6.459639081209898,-12.475852842640876,0.73783940076828,0.1718653440475464,0.5331094264984131
6.709853271484375,-1.0575814463593065,5.580327020463347,-11.498965958327055,0.2688343822956085,0.3943783044815063,0.2492929250001907
6.7198330078125,-0.5907552311182022,4.298690881133079,-10.721558859306572,-0.1071941331028938,0.7570115923881531,-0.0026077029760926
6.72981298828125,-0.2782164912693202,3.4931969207912683,-9.656430212438108,-0.3600452840328216,1.2082996368408203,-0.2363967597484588
6.739793212890625,-0.1166419276088476,3.2993583562552926,-8.262602110645174,-0.5131154656410217,1.6010736227035522,-0.4485493004322052
6.749772216796875,-0.1901961163803935,3.4262262020632623,-6.720845547097921,-0.6681729555130005,1.6171401739120483,-0.5929259061813354
6.759752197265625,-0.6675869802556932,3.230930132195353,-6.734025931188464,-0.8161802887916565,1.2837482690811155,-0.588259756565094
6.769732177734375,-1.4809204020515083,2.698697524933517,-6.9751400416404,-0.8105798959732056,0.6672763824462891,-0.4493852257728576
6.779712158203125,-2.161253466633707,2.3466315152078865,-6.183187115395069,-0.599856972694397,-0.1113570854067802,-0.2623462677001953
6.789692138671875,-2.3549735193565486,1.86079153354764,-4.100474832165241,-0.3048623204231262,-0.845812201499939,-0.0905271023511886
6.799671142578125,-2.041413473635912,0.8529699972659349,-1.6003852781265973,-0.0692400708794593,-1.3395458459854126,0.0742216259241104
6.809651123046875,-1.4199686513520775,-0.3206178552776575,0.5819353803247213,0.0581783428788185,-1.540883183479309,0.1763117760419845
6.819631103515625,-0.6195791745424271,-1.032806632195413,2.365398174998164,0.0953096225857734,-1.4867302179336548,0.2160375863313675
6.829611328125,0.0697309772215783,-1.555637204861641,3.752107384696602,0.0925979912281036,-1.2730014324188232,0.199039414525032
6.839591064453125,0.614390665988624,-2.2322283064365385,4.967394444328546,0.1007659137248992,-1.0032610893249512,0.1139186322689056
6.849571044921875,0.8757346406511962,-2.8851375036507845,5.986638122856617,0.1265783458948135,-0.8366336822509766,0.0271800123155117
6.85955029296875,0.7281708474908024,-3.4946152631565925,6.501929239928722,0.1718483716249466,-0.8017765879631042,-0.0100940652191638
6.869530029296875,0.4146357900809496,-4.035158894906938,6.851014480277896,0.2370747774839401,-0.8045814037322998,0.0114823328331112
6.879510009765625,0.2287802601881325,-4.621385250423848,7.306748077487945,0.361598938703537,-0.8327604532241821,0.0548031814396381
6.889490234375,0.1732796145014464,-5.189151527881622,7.780522942823171,0.5550714731216431,-0.7915189862251282,0.103894829750061
6.899469970703125,0.2827127797752619,-5.440488926184177,8.513604577904939,0.8196045160293579,-0.6873059868812561,0.1324364691972732
6.9094501953125,0.3076750062700361,-5.32526387963593,9.256299259984493,1.0897624492645264,-0.4970518946647644,0.1454468220472335
6.919429443359375,0.26077556365747,-4.926909289205074,9.807373638099431,1.2856531143188477,-0.2587617933750152,0.1303251385688781
6.9294091796875,0.3003040391106158,-4.473966199496388,10.150360561573503,1.3981235027313232,-0.0004087993875145,0.0998551174998283
6.93938916015625,0.2161634282644838,-4.057992950266599,10.294704735100268,1.464633584022522,0.2103483527898788,0.0737698823213577
6.949369140625,-0.1031990201245993,-3.59742827963829,10.32709660013914,1.4802849292755127,0.3180481791496277,0.0427997186779975
6.959348876953125,-0.4431760211929678,-3.121393652677536,9.959899949038029,1.4420746564865112,0.3488729298114776,0.0030463514849543
6.969328125,-0.7835382221866398,-2.6992782474309203,9.627264323708417,1.3830275535583496,0.3514428734779358,-0.0318759456276893
6.97930810546875,-1.0220461687281728,-2.2954161456249653,9.56544762674272,1.2921990156173706,0.3321009874343872,-0.0936493650078773
6.989287841796875,-0.9863011208038776,-1.9129836392082276,9.35145299388468,1.1355412006378174,0.2998860478401184,-0.1828114688396453
6.999268310546875,-0.9676679512001574,-1.576992858231813,8.932254937389493,0.9098167419433594,0.2442497462034225,-0.2747286856174469
7.009248291015625,-0.9027197512757033,-1.3830753832407294,8.427591012793778,0.6416473388671875,0.1582885086536407,-0.3523087203502655
7.019228271484375,-0.9119684950057416,-1.4569782393194737,8.21665635202825,0.4130994081497192,0.098762035369873,-0.3434207141399383
7.02920751953125,-1.282059333178401,-1.5224819542348385,8.71338013127446,0.250532329082489,0.0422534868121147,-0.2111888974905014
7.0391875,-1.7147123529218136,-1.537197585068643,9.033739043354988,0.1523614376783371,-0.0969627723097801,-0.052995279431343
7.049167724609375,-1.6763156945101916,-1.5838886090949176,8.988853607445956,0.1192141324281692,-0.3116638958454132,0.048792865127325
7.0591474609375,-1.3342501236647366,-1.710469746915996,9.007243835139274,0.1333126425743103,-0.4457288086414337,0.0479900874197483
7.06912744140625,-0.9483094629965722,-1.9126663899526,9.068587069374322,0.2017521560192108,-0.4414549767971039,-0.0331841297447681
7.0791064453125,-0.5292646973669529,-2.133039325670898,8.992976240333915,0.3332952558994293,-0.4140457808971405,-0.1277516037225723
7.08908642578125,-0.1457803438097238,-2.3535922941312197,8.768975761768221,0.5436868667602539,-0.3903140723705292,-0.1907010078430175
7.09906640625,0.0199376032657921,-2.4709938079357148,8.609402454927563,0.7457478046417236,-0.3446480631828308,-0.2279887199401855
7.109046630859375,0.1976511450940743,-2.362916733445972,8.071326674595475,0.8008142113685608,-0.2896811962127685,-0.2670018970966339
7.119026611328125,0.5815449197024106,-2.102060542300344,6.512976119121909,0.6334049701690674,-0.1835947483778,-0.3162217140197754
7.129006591796875,0.9545488688427954,-1.9758701573625208,4.254252604469657,0.300430417060852,0.0302730556577444,-0.3660880923271179
7.1389853515625,1.010766795953363,-2.001332807660103,1.836243367746472,-0.0414389297366142,0.2864410877227783,-0.3994328379631042
7.148965576171875,0.8861750783838331,-1.711170880922675,-0.9234452169835566,-0.266733855009079,0.486374169588089,-0.4377722442150116
7.158945556640625,0.8664262756884098,-0.3906003961075097,-4.521083339980245,-0.4272502958774566,0.6545239686965942,-0.5273754000663757
7.168925537109375,0.972154156703502,2.130929055518657,-9.563631517231464,-0.6495158672332764,0.7156156301498413,-0.6156690120697021
7.1789052734375,0.5553616269800812,4.552493792766333,-15.105572400677204,-0.8541005849838257,0.5368787050247192,-0.6532469987869263
7.188884521484375,0.2882048743855208,5.87812572568953,-18.41838411274552,-0.8938168287277222,0.2177619487047195,-0.5994985103607178
7.198864501953125,0.2768374580010772,6.006455168482661,-18.79924454753995,-0.7442325353622437,-0.0721891373395919,-0.4449709057807922
7.20884423828125,0.4134059560250491,5.541068192264437,-17.673147929489613,-0.5141133666038513,-0.184734046459198,-0.2198813408613205
7.21882470703125,0.7165452185615897,5.294848867627978,-16.868188806676862,-0.1854278445243835,-0.0809779837727546,0.0339111723005771
7.2288046875,1.156888135220483,4.546341115355491,-15.608175885611772,0.0500011965632438,0.1647936999797821,0.3067480325698852
7.238784423828125,1.3901295395359397,4.342100983792543,-15.657488490313291,0.0879462882876396,0.498176634311676,0.4864120185375213
7.248763427734375,1.8791373375773428,5.226473250538111,-16.058928771799803,-0.0887584388256073,0.6440765857696533,0.5794692635536194
7.25874365234375,2.3045827640295027,6.218464765003323,-17.113813088029623,-0.5311737656593323,0.7970888018608093,0.6378304958343506
7.268723388671875,2.28192844915092,6.036252925375104,-18.05087532695532,-0.8405725955963135,0.7974498867988586,0.7050681114196777
7.278703369140625,1.7043603241249918,4.452489696225523,-17.448050887858866,-0.81572026014328,0.5746923685073853,0.8441654443740845
7.28868359375,0.9871734466589986,3.110970458340645,-16.108016920095682,-0.4313070476055145,0.3579505085945129,0.969804346561432
7.298662353515625,0.6872710471518337,2.5692986993432045,-14.020821353971956,0.0637902021408081,0.4259510636329651,1.0350043773651123
7.308642578125,0.6722807640951126,2.683167655107378,-11.976922493261098,0.5669944882392883,0.7355193495750427,1.0292705297470093
7.31862255859375,0.562725506811589,3.00107391333878,-9.711416186600925,0.7975229620933533,0.8022602796554565,0.9571241736412048
7.3286025390625,0.1380405433379113,3.290634074790776,-8.901162464511394,0.7799274325370789,0.8030883073806763,0.8390771746635437
7.33858251953125,-0.4017893871851265,3.328788156618178,-6.812533650714158,0.6345257759094238,0.7773816585540771,0.6477012038230896
7.3485625,-0.5193729795582592,2.7810060980468987,-3.9339059673488137,0.4227754175662994,0.8227976560592651,0.3455748558044433
7.35854150390625,-0.0831942699067294,2.2314536688022315,-1.1186539008289575,0.1331685036420822,1.064161777496338,-0.027811637148261
7.368521484375,0.4332504011146724,1.636757152712345,0.9329477893441916,-0.2631101608276367,1.3061150312423706,-0.3671593368053436
7.378501708984375,0.9064508275628088,0.972327467443794,1.8550906915575265,-0.8225240111351013,1.528917908668518,-0.6330728530883789
7.3884814453125,1.03678488817662,0.3194572870656847,2.412186229658127,-1.3542256355285645,1.7318099737167358,-0.7529760599136353
7.39846142578125,0.4727693415544927,-0.6057379884555936,3.790972245141864,-1.7281755208969116,1.726475954055786,-0.7095516324043274
7.408441650390625,-0.1907446901738643,-1.5300709480591117,4.8770226840078825,-1.918221354484558,1.5541614294052124,-0.547276496887207
7.41842041015625,-0.8281947447106242,-2.088512493941188,5.663101165261864,-1.9768372774124143,1.2996833324432373,-0.2756351232528686
7.428400390625,-1.5395239821895956,-2.622036017796397,6.288720204490423,-1.9250638484954836,0.983863353729248,0.1189161762595176
7.438380615234375,-2.4030007604226467,-3.041711628675461,6.768226891475916,-1.7375693321228027,0.552964985370636,0.5845266580581665
7.4483603515625,-3.367829834935069,-3.4469343513101336,7.292659346380829,-1.4362512826919556,0.0681634098291397,1.067044019699097
7.458340576171875,-4.115838113252819,-3.95871716800034,7.725174565088748,-1.0226091146469116,-0.3928113877773285,1.504948616027832
7.468319580078125,-4.52386917130649,-4.42854037310034,8.593806826388835,-0.5291592478752136,-0.8132762908935547,1.8287065029144287
7.478299560546875,-4.6868487794592975,-4.480716842800379,9.797519768083095,-0.0850500166416168,-1.2017886638641355,1.999285101890564
7.488279541015625,-4.591443701146543,-4.214437311431765,10.48321772069931,0.1548789590597152,-1.442776799201965,1.972506165504456
7.498259521484375,-4.183329640984535,-3.910193667849898,10.497613325798511,0.1889499723911285,-1.5628080368041992,1.8041311502456665
7.5082392578125,-3.820979845392704,-3.5944977791443464,10.483622209846972,0.0676608309149742,-1.7028077840805054,1.5605180263519287
7.518219482421875,-3.6496383593469854,-3.284157572253048,10.308487761259078,-0.1990853995084762,-1.804272413253784,1.2830487489700315
7.528198486328125,-3.4501369467437266,-3.0443931228443977,10.074821628725529,-0.5139451026916504,-1.841419577598572,1.033306121826172
7.53817822265625,-3.125404057362676,-2.9776813473135237,9.883722718286512,-0.7553688883781433,-1.7748689651489258,0.81162029504776
7.54815869140625,-2.557380298012495,-2.9875451542019844,9.735562201341986,-0.843867838382721,-1.5199626684188845,0.5693479776382446
7.558138671875,-1.7209766740135848,-2.79818052020967,9.62180898091197,-0.7814101576805115,-1.077692627906799,0.2598037421703338
7.568118408203125,-0.6571205312989652,-2.6983497344091534,9.296917101576923,-0.6073209047317505,-0.5583662986755371,-0.0843054428696632
7.578098388671875,0.2548402918569743,-2.9081308412253857,8.919040066507458,-0.4267926812171936,0.1699862480163574,-0.4306861162185669
7.58807763671875,1.096415327144414,-3.163231683714688,8.258869938379526,-0.2401527613401413,0.8925021290779114,-0.7190065979957581
7.598057373046875,1.801018471238762,-3.644840895937383,7.407618435469269,-0.0399050712585449,1.5478081703186035,-0.8536356687545776
7.608037353515625,2.2321128633633256,-4.073230559147894,6.522320286050438,0.1978704780340194,2.2019875049591064,-0.8017381429672241
7.618017333984375,2.2576212524987755,-4.7713843809723855,5.52575138066709,0.5272853374481201,2.9008572101593018,-0.6125327348709106
7.627997802734375,2.328052194683253,-5.069450212702155,4.979373635935783,0.9489617347717284,3.614973783493042,-0.4084168970584869
7.6379765625,2.7599396368816493,-5.194837172302603,4.432818781071901,1.3691434860229492,4.3071722984313965,-0.2778647243976593
7.64795654296875,3.070407269544899,-4.907049573481083,3.7013644549310207,1.658766269683838,4.852684497833252,-0.201801910996437
7.6579365234375,3.170816439755261,-4.415485953477025,2.268684352174401,1.7369142770767212,5.211581707000732,-0.2354568541049957
7.66791650390625,3.0137720668703314,-4.239119332745671,1.0863292558073996,1.5517995357513428,5.45711088180542,-0.3372596502304077
7.677896484375,3.3996091210335493,-4.745872923097014,-0.5298410359501838,1.316264033317566,5.576810359954834,-0.3430365324020386
7.68787646484375,4.406687145471572,-5.407811814463138,-2.471848378938436,1.2755331993103027,5.416554927825928,-0.1244719922542572
7.69785546875,5.004157948580384,-5.008258369636535,-4.0705560792416335,1.460293531417847,4.633028507232666,0.3085950016975403
7.70783544921875,5.221007386347651,-3.504562364414334,-5.5698512191563845,1.8073625564575195,2.2949986457824707,0.7007236480712891
7.717815673828125,5.98739683226943,-1.4885983893334864,-6.607409722054005,2.120105028152466,-0.8686795830726624,0.9004696011543274
7.72779541015625,4.337200936791301,0.4086689175657927,-6.59904287572503,2.166341781616211,-3.085757255554199,0.9205224514007568
7.737775634765625,2.258694873079657,0.1408770088728517,-5.903242631289363,1.981107234954834,-4.282567501068115,0.7702481150627136
7.747755615234375,3.562886543089151,0.8657659851487726,-6.196941499981284,1.554688572883606,-5.477370262145996,0.752739667892456
7.757734375,2.6063468657553197,0.4712561970451846,-9.544695930615068,0.9440113306045532,-5.869132995605469,0.8517409563064575
7.767714599609375,2.460090721127391,0.3666788012394681,-9.666320322811602,0.2189004868268966,-4.978436470031738,0.8840472102165222
7.777694580078125,3.818053144291043,1.4253984213158488,-9.073364366778732,-0.3862150311470032,-3.8189218044281006,0.8236410617828369
7.78767431640625,2.693788417842984,1.4692347865633666,-8.911873243618011,-0.7491825819015503,-2.2298266887664795,0.8411439061164856
7.797654541015625,2.03889944498837,1.107406165301427,-6.5396688957363365,-0.9174676537513732,-0.2833154797554016,0.8987492918968201
7.807633544921875,1.5702897073313593,0.8633521289400756,-3.3963930815964933,-0.8925455212593079,1.744541883468628,0.9496183395385742
7.817613525390625,1.0225164165884255,1.1860124498307705,-0.0979962638497352,-0.5537234544754028,3.361196279525757,1.0499387979507446
7.827593505859375,-0.0516515690430998,0.322592479818873,2.3529887752801177,-0.2597104609012604,3.48944354057312,1.2248256206512451
7.837573486328125,1.856231093764305,0.0648304187636822,-1.5438468138247727,0.0934996455907821,0.1283583492040634,1.7048516273498535
7.847553466796875,9.37915173267126,-0.999658834222704,-9.24817265215218,0.1265891641378402,-1.2472738027572632,2.058870792388916
7.857533447265625,13.662913924741744,-1.8577553807221352,-5.028918880349397,0.4506647884845733,-1.2908940315246582,2.0440123081207275
7.86751220703125,10.103400072956084,-2.3884775834210217,-0.5470809245646,0.9757607579231262,-1.0810630321502686,1.687344670295715
7.877492431640625,7.724111904293299,-1.729018233910948,-1.0846148531049489,1.505810022354126,-0.6585149168968201,1.102061152458191
7.88747265625,7.597080684617161,0.0652427258916199,-1.7339795095801351,2.1425251960754395,-0.1508314609527588,0.3888739943504333
7.89745263671875,6.189789874660969,1.118993288851157,-2.7994699754983183,2.8283324241638184,0.0588681697845459,-0.2984376847743988
7.907432373046875,3.759649762900173,1.306099257196486,-5.113597981986403,3.452411651611328,0.0871884897351265,-0.7310191988945007
7.917412353515625,1.9121563946038485,0.7554861399177462,-5.944470713734626,3.8954713344573975,0.2767978310585022,-0.8542166352272034
7.9273916015625,0.7147802547156811,-0.0611510726638138,-5.4511757398933165,4.091475486755371,0.3141849040985107,-0.667314350605011
7.937371337890625,-0.7356213826924562,-0.566923543023318,-6.371301457065344,3.924438238143921,-0.1429794877767563,-0.1125021278858184
7.947351318359375,-2.4918390275657174,-1.2497671291217207,-8.464587741279601,3.3823750019073486,-0.5496053099632263,0.6650485396385193
7.957331787109375,-3.2676477514788504,-1.8104552848868072,-8.516975515642761,2.616283416748047,-0.5085736513137817,1.1728785037994385
7.9673115234375,-1.9850147100657225,-1.0673998066708446,-7.059298334273696,1.7333194017410278,-0.3798865079879761,1.2704696655273438
7.97729150390625,-0.7031891856431961,0.200478733202815,-5.6399049985915415,0.8653464913368225,-0.213963896036148,1.0746086835861206
7.987270751953125,0.0424091089233756,1.040124553993344,-3.5640590939998624,0.072049967944622,-0.0010361736640334,0.686411440372467
7.99725048828125,1.0564467432409523,1.4555568282142282,-1.6196838528364896,-0.624613344669342,0.1142010912299156,0.2396289706230163
8.00723046875,1.92162740278244,1.500421221335232,-0.4574035762488841,-1.125470519065857,0.1443190425634384,-0.0364920869469642
8.017209716796875,1.5340782840043306,1.1772919677585365,0.3123690823704004,-1.3899544477462769,0.0606259778141975,-0.081314243376255
8.027189453125,-0.080180328913033,1.427653360635787,0.7991022134780883,-1.4820692539215088,-0.1029278039932251,0.0417118184268474
8.0371728515625,-1.5582351124003528,2.3821406354844568,1.5570248598277567,-1.4812605381011963,-0.2322409451007843,0.2814340591430664
8.047152587890626,-2.5881878164693712,3.063753364613652,2.7032231856644158,-1.4462807178497314,-0.3999944925308227,0.6159873008728027
8.0571328125,-3.223570124821365,2.9246003299891945,3.429795000460744,-1.3897494077682495,-0.600974440574646,0.9467948079109192
8.06711279296875,-3.0049390643343328,2.62585469930172,4.064357224601507,-1.2719930410385132,-0.8427072167396545,1.186329364776611
8.077091552734375,-2.254033603270352,2.441520022300631,4.626144719910621,-1.0777359008789062,-1.0838115215301514,1.2997877597808838
8.08707177734375,-1.5165645468845963,2.2936451904296877,5.186963662448525,-0.8038593530654907,-1.2584549188613892,1.3048655986785889
8.097052001953125,-0.9719880063563584,2.209764107302576,5.798270098686218,-0.4798528552055359,-1.2587416172027588,1.2106168270111084
8.10703173828125,-0.6840069307893514,2.1965692562952635,6.696548141187429,-0.1360587030649185,-1.1303668022155762,1.0519981384277344
8.11701171875,-0.5416887101322412,2.233521853378415,7.38249626917243,0.2063684612512588,-0.9936471581459044,0.8547802567481995
8.126990966796875,-0.5547308547958731,2.274399953342229,7.625397847563028,0.5346861481666565,-0.9341431260108948,0.6695334911346436
8.136970703125,-0.7545406026959419,2.3563021376118063,7.564480729785561,0.8373799324035645,-0.965464174747467,0.5335325002670288
8.14695068359375,-1.1439414868205786,2.351156006895005,7.430106161609292,1.0939269065856934,-1.051835536956787,0.4713838696479797
8.1569306640625,-1.599640743369609,2.259155330198258,7.362086518350243,1.282349705696106,-1.0692309141159058,0.4946953356266022
8.16691064453125,-2.083748640540242,2.1216687674812973,7.133781620588898,1.2590547800064087,-0.7312437891960144,0.5751640796661377
8.176890869140625,-2.448173781101405,2.150586965060234,6.443086590337753,1.164303421974182,-0.9449256658554076,0.6759690046310425
8.186869873046875,-2.699001184055209,1.798520370812714,4.744908461979032,0.8329675793647766,-1.250661849975586,0.8173152208328247
8.196849609375,-2.387609714545309,1.5961492479920387,3.545165592959523,0.5655121803283691,-1.230613112449646,0.818509042263031
8.206829833984376,-1.1293554737158118,2.031544406050444,4.735848372688889,0.4067595899105072,-1.039844274520874,0.7994794249534607
8.216809814453125,-1.1291992602407932,2.2582342698305844,5.058319162356853,0.377991646528244,-0.7565221190452576,0.759263813495636
8.22678955078125,-1.2887972631312905,2.9242914101704955,4.9256701027989385,0.4990472197532654,-0.3934566080570221,0.7459445595741272
8.23676953125,-1.625215914130956,3.3026655811071395,4.621435227045416,0.7089321613311768,0.0066515756770968,0.8262611031532288
8.246748779296874,-1.812565555039048,3.350510451343655,4.538903658831119,0.9366509914398192,0.3212403953075409,0.996523380279541
8.256728759765625,-1.647503295393288,3.24576237514615,4.387812933653593,1.1293553113937378,0.4739942848682403,1.205183506011963
8.266708740234375,-0.8333904136575758,2.833468398950994,3.851419991841912,1.3122683763504028,0.4462853968143463,1.3868451118469238
8.27668896484375,0.416290790746361,2.113305574414134,3.186449185433984,1.4991133213043213,0.4911239445209503,1.443735122680664
8.286668701171875,0.945104967866838,1.9397472891017795,3.2792765222132205,1.6285924911499023,0.3624067008495331,1.3816815614700315
8.296648681640624,-0.1167712530769407,2.979830049780011,2.606008427581191,1.60952889919281,-0.1133053824305534,1.2809889316558838
8.306627685546875,-1.6000734356984496,4.295270551295578,0.8776999493747949,1.3706159591674805,-0.4593780934810638,1.1152571439743042
8.316607666015624,-1.894831750315428,4.809702128928899,-0.0337204832941293,0.8834371566772461,-0.4512100517749786,0.8150002956390381
8.326587646484375,-1.4765107689157126,4.612814405955374,-0.3348725906014442,0.2876939177513122,-0.3415770232677459,0.4129673838615417
8.33656787109375,-1.3135972117364405,4.508288740336894,-0.5363882656365633,-0.3693468272686004,-0.3294214308261871,0.0367887429893016
8.346547607421876,-1.943282185229659,4.680053420230746,-1.5614514440983531,-1.0513405799865725,-0.2877283096313476,-0.1556893587112426
8.35652783203125,-2.820041638883948,4.736945520275831,-3.0800550955951214,-1.6100143194198608,-0.1557773649692535,-0.1414429247379303
8.3665068359375,-3.429103803326189,4.587022085312008,-4.7197518088907,-1.9521609544754028,-0.270770788192749,0.0072128665633499
8.376486572265625,-3.257877760353684,4.235767391969263,-6.77580814038515,-2.035849332809448,-0.6623014807701111,0.192399114370346
8.386466796875,-2.316637943482399,3.908551453600824,-8.324054065951705,-1.8959245681762693,-0.9795628190040588,0.3398618102073669
8.39644677734375,-1.1761591643363236,3.6168761996909975,-8.553275494036077,-1.643887996673584,-0.9967253804206848,0.3807677626609802
8.406427001953125,-0.4479253346119076,3.3643028298527,-8.352005318194628,-1.4340097904205322,-0.7628628015518188,0.2838934361934662
8.41640673828125,-0.3351346756037324,3.1272616679281,-8.301617193216085,-1.3276668787002563,-0.466922402381897,0.1226818412542343
8.426385986328125,-0.5351057515453547,2.8603289333477613,-8.140327730107307,-1.334612488746643,-0.3191385269165039,0.0009953560074791
8.43636572265625,-0.7979224291089921,2.48271405634582,-7.798766455522179,-1.412020921707153,-0.4088014662265777,-0.0129235498607158
8.446345703125,-0.9882692790716886,2.0954937311306594,-7.158069674149155,-1.52882182598114,-0.629008948802948,0.0683670490980148
8.45632568359375,-1.0867547877430914,1.876452774668485,-6.321409006649255,-1.6821061372756958,-0.9131673574447632,0.1888803243637085
8.466305908203125,-1.1429960226640103,1.6824860537081956,-5.680184402009845,-1.808340549468994,-1.1379412412643433,0.3321544229984283
8.47628564453125,-1.2356509254857897,1.375210495084524,-4.9566129380732775,-1.8946503400802608,-1.2567726373672483,0.4551866948604584
8.4862646484375,-1.205681319157779,1.081028226789832,-4.2939825573116535,-1.9461164474487305,-1.2430576086044312,0.5588046908378601
8.49624462890625,-1.0463503697056322,0.8482694183595478,-3.7317870657235375,-1.9810258150100708,-1.1516228914260864,0.6479011178016663
8.506224853515626,-0.9278101341947912,0.6554482141725718,-3.4563784714818,-2.0402626991271973,-1.0338752269744873,0.7151275873184204
8.516204833984375,-0.8644232653029262,0.344751887319982,-3.4769629943490026,-2.1251137256622314,-0.8557676672935486,0.7518255114555359
8.526184814453124,-0.9840070915825664,0.0277277456853538,-3.160897395548224,-2.2350292205810547,-0.684640645980835,0.7279009819030762
8.536163818359375,-1.1134950567610562,-0.256049375385791,-2.771440397322177,-2.3541676998138428,-0.4961928427219391,0.6673598885536194
8.546143798828124,-1.342992525307834,-0.6623767713267356,-2.187398400107026,-2.4300215244293213,-0.2178799957036972,0.56703782081604
8.55612353515625,-1.5354454807043074,-1.1041522050067782,-1.2541332153767346,-2.4546446800231934,0.1150677651166915,0.4048845469951629
8.566103515625,-1.2874379574768244,-1.34636185561046,-0.2815864060938358,-2.4554481506347656,0.3804347217082977,0.202932521700859
8.576083984375,-0.5671567307246849,-1.6842720603421328,0.4648930552214383,-1.9933353662490845,0.702315628528595,-0.0455911494791507
8.58606396484375,0.911319164251536,-1.875010613036156,4.115589983710646,-1.5484542846679688,0.0613324791193008,-0.3116593360900879
8.596042724609376,2.4811247413277626,-2.6481457338258623,2.0958669483572243,-1.1080740690231323,-0.8061937689781189,-0.33496755361557
8.60602294921875,2.46677852832824,-3.889929462978244,1.5457365730941297,-0.8018935918807983,-1.0827134847640991,-0.0798822566866874
8.6160029296875,1.4321169159159064,-4.361398389458656,2.6834336125671863,-0.6213404536247253,-1.00385582447052,0.1717940121889114
8.625982666015625,1.26582146121338,-3.709695060902834,2.825277201449871,-0.6003771424293518,-0.8321208357810974,0.3212538063526153
8.635962646484375,1.554284328947961,-3.4604166409567,2.4010838208854195,-0.7000765204429626,-0.6224521398544312,0.4146438837051391
8.64594384765625,1.8277659006498752,-3.985366689994931,1.9841244832277296,-0.8326998353004456,-0.3152967691421509,0.4935834407806396
8.6559228515625,1.904654056149721,-4.79839806010425,1.764418486985564,-0.8978433012962341,0.1527354568243026,0.5751550793647766
8.66590283203125,1.4379256021946667,-5.629024123615026,2.4363679002344605,-0.77359539270401,0.5975787043571472,0.5078809857368469
8.6758828125,1.7497927263922988,-5.336650366047024,3.3997371313273903,-0.4972262978553772,0.729271650314331,0.3702840805053711
8.685862548828124,1.8602511430606248,-4.851460372728109,3.4090789601683613,-0.1737595647573471,0.7591094374656677,0.2357683628797531
8.6958427734375,1.4060416866779326,-4.861543959847093,3.643424307137728,0.1158133819699287,0.7959571480751038,0.1531294286251068
8.70582275390625,0.926287527737394,-5.078652340811491,3.902086349239945,0.315575510263443,0.7958977222442627,0.0743054524064064
8.715801513671876,0.6610838819719851,-5.053947523143887,3.7578906442731617,0.429246574640274,0.7606539726257324,-0.0255032293498516
8.72578173828125,0.4727846487214788,-4.891903150014579,3.493331360825896,0.4926519095897674,0.7739567756652832,-0.1637053042650222
8.735761962890624,0.200000101106707,-4.831650049103796,3.3550627078205344,0.543586015701294,0.8488374352455139,-0.3035309016704559
8.745741943359375,-0.3665565265666693,-4.843852528072893,3.3005233083814383,0.6317307949066162,0.9042657613754272,-0.4008409678936004
8.7557216796875,-0.832459927874431,-4.443701701875031,3.2905490268558264,0.7912821173667908,0.8921948671340942,-0.4690791964530945
8.76570166015625,-0.7451407600574195,-3.6108354582220312,3.2811621898293493,0.9936999082565308,0.8535990118980408,-0.494855672121048
8.7756806640625,-0.5787021340245381,-2.965693095616996,3.1506840445697306,1.1827294826507568,0.8027336001396179,-0.4445134699344635
8.78566064453125,-0.6227514479029923,-2.578519824413955,2.689389306101203,1.3086503744125366,0.7384123802185059,-0.327879250049591
8.795640625,-0.5895042081438004,-2.230213897874206,1.877646806758642,1.3498989343643188,0.6002243757247925,-0.1918549090623855
8.80562109375,-0.4803612214555963,-1.91612588275671,0.7136842761725187,1.3384488821029663,0.4242086112499237,-0.137342944741249
8.815600830078125,-0.505525290665403,-1.3679847816146908,-0.2059399212181568,1.271203875541687,0.1967983841896057,-0.2059857696294784
8.825580810546874,-1.1763500837985426,0.1024846065112389,-0.8552987324744462,1.093377947807312,-0.2236199378967285,-0.2927366495132446
8.8355595703125,-2.0317520574517545,1.9496917600110173,-2.0347604454874992,0.8101170063018799,-0.6728654503822327,-0.3273459076881408
8.845539794921875,-2.286962205534428,2.773060107478499,-3.609724866631627,0.529018759727478,-0.9231948256492616,-0.2305932641029358
8.855519775390626,-2.3515881147019564,1.8830546571515496,-4.659184819725156,0.2717958390712738,-0.9474517107009888,-0.1246113702654838
8.865499755859375,-1.3355018772915004,0.7362269473701715,-5.824385952195525,0.078306533396244,-0.9332157969474792,-0.0566008947789669
8.8754794921875,-0.1082473347564227,0.1112997080643661,-7.2615773948967455,-0.0360708087682724,-0.9880657196044922,-0.0008315725717693
8.885458740234375,0.5606671129770576,-0.0420029575415886,-8.517175422129034,-0.0564738176763057,-1.0093132257461548,0.0852942541241645
8.89543896484375,0.5555632139667869,0.1322584893377497,-9.17314108430445,0.0255286172032356,-0.9514928460121156,0.2182048112154007
8.905418701171875,0.0775322255570441,0.5440114905240014,-9.52629810413718,0.2095197439193725,-0.7412445545196533,0.3773976564407348
8.91539892578125,-0.6264636733591556,0.9354404098775236,-9.617737785950302,0.4549586772918701,-0.4982287585735321,0.4996525645256042
8.92537890625,-0.9266336377613246,1.0413603063333778,-9.593226445028185,0.6997114419937134,-0.2672415971755981,0.5489892363548279
8.935358642578125,-0.6801492324478924,0.7845800593897699,-9.255784296199678,0.8724057674407959,-0.0695869252085685,0.5416204333305359
8.945337890625,-0.3679511957954615,0.1857356298401951,-8.694133579012751,0.9071642756462096,0.045890137553215,0.493055522441864
8.95531787109375,-0.1793035874987021,-0.4809942586621269,-8.224908632066846,0.8197340965270996,0.1217924356460571,0.4146227240562439
8.965297607421874,-0.2439156873365864,-1.0374841224871576,-7.596637617024779,0.6637053489685059,0.1977436542510986,0.2774288952350616
8.97527783203125,-0.2248648037774488,-1.2596297669664025,-6.811707721284032,0.5210109949111938,0.3023037910461426,0.0732445493340492
8.9852578125,-0.1248998702032491,-0.9965032197359948,-5.820879405379295,0.4323330521583557,0.4422638416290283,-0.15435691177845
8.99523779296875,0.0240918734010308,-0.4685199404817074,-4.656401911008357,0.3755354881286621,0.6031992435455322,-0.3487312197685241
9.005216796875,0.1024102626333944,-0.0884288826245814,-3.723489192977548,0.2941154539585113,0.7745214700698853,-0.4486072063446045
9.01519677734375,0.073215988059435,0.0365574602857232,-3.189149092042446,0.1827300935983657,0.9505774974822998,-0.4694118201732635
9.0251767578125,-0.0126296366062946,0.0532906414870172,-2.701364406055212,0.0637168884277343,1.0725226402282717,-0.3998282253742218
9.0351533203125,-0.1761336522256955,0.0538186108838766,-2.0451754565179345,-0.0195211544632911,1.1313494443893433,-0.2492640763521194
9.04513330078125,-0.2855786723340861,0.1326614075828343,-1.226299452033639,-0.0934326574206352,1.0717835426330566,-0.0454065538942813
9.05511328125,-0.3358745341856032,0.2212096788033843,-0.5151859031319618,-0.1374127268791198,0.9564123749732972,0.1599099487066269
9.06509228515625,-0.0965740855595096,0.1422586724895984,0.3426730352193117,-0.1837919503450393,0.8046116828918457,0.3324476182460785
9.075072265625,0.2273156309956684,-0.0031918548438698,0.9747171390593052,0.117728017270565,0.8694382905960083,0.4041176736354828
9.08505224609375,0.9638519000433384,0.0908373320057988,4.123829404267669,0.3778192400932312,0.5709728002548218,0.2530099153518677
9.095031982421874,1.9980267518520356,0.0434231813367456,3.0608804395258424,0.6173337697982788,0.1193917021155357,0.1384543478488922
9.10501220703125,1.6772316403113303,-0.297556493968144,2.10868726696372,0.7610392570495605,-0.2092722058296203,0.1387084126472473
9.114992431640625,0.9805177881620823,-0.3391511447034776,2.035269564053416,0.8347606658935547,-0.4405119717121124,0.2372912317514419
9.12497119140625,0.2619613028433173,-0.1912032475963234,1.701551404184103,0.85184645652771,-0.5209018588066101,0.3358867764472961
9.134951416015625,0.2654784441187978,0.1371640527643263,1.832224779754877,0.8150038123130798,-0.4674837589263916,0.418481171131134
