seconds_elapsed,ax,ay,az,gx,gy,gz
0.07330615234375,0.2801552042469382,-0.1791467529691755,-0.052600540331006,0.3373253643512726,-0.2136433571577072,0.1868069916963577
0.083285888671875,0.4567359061203896,-0.321584289157018,-0.3633931671649217,0.3478227257728576,-0.3017561733722687,0.1412895768880844
0.093266845703125,0.3544660566046834,-0.4692769693940877,-0.5592074156880379,0.3223530352115631,-0.3266350030899048,0.1168700456619262
0.103248046875,0.1314125035002827,-0.4526106428839266,-0.5878109943598508,0.2761027216911316,-0.2611779570579529,0.1104845851659774
0.11322802734375,-0.1116638469353318,-0.2902662638947367,-0.6543091271400451,0.2118851542472839,-0.1285079270601272,0.1154768094420433
0.123208984375,-0.3666375559136271,-0.0883632700424641,-0.6585276216179132,0.1446965336799621,0.047729954123497,0.1351573020219802
0.133190185546875,-0.5003935538001358,0.0580699116528034,-0.5544827252537011,0.0875488743185997,0.2096903324127197,0.1528146117925644
0.143169921875,-0.4725779106356203,0.0355281172379851,-0.2842512413889169,0.0651341080665588,0.3518216609954834,0.1616254150867462
0.15315087890625,-0.4468643543168902,-0.0214199507780373,0.0281330385506153,0.0570667125284671,0.4469500482082367,0.1551180183887481
0.163132080078125,-0.5337719456583261,-0.0270714737337082,0.1910766986072063,0.0613570697605609,0.4904293715953827,0.1501280516386032
0.173113037109375,-0.645503743263334,-0.0360043564476072,0.3888005801439285,0.0630654692649841,0.5067727565765381,0.1576323807239532
0.183093017578125,-0.6792446848236025,-0.0570678219381719,0.4834884500980377,0.0554485656321048,0.4871410131454468,0.1737205386161804
0.193073974609375,-0.5860280564658343,-0.0612921616349369,0.4989285958141088,0.0378683432936668,0.4434475600719452,0.1892425268888473
0.203054931640625,-0.4963577224127948,-0.0575611584130674,0.5224713839650154,0.0073208203539252,0.4044327735900879,0.2082106173038482
0.213034912109375,-0.3982774335414171,-0.0332788770064711,0.5918617310553789,-0.0400898903608322,0.3988063335418701,0.2217799574136734
0.223015869140625,-0.1772808860320597,-0.0437303475897759,0.4628595035672188,-0.0989667922258377,0.3292903900146484,0.2321534901857376
0.2329970703125,0.4895392745696008,-0.1727094864632934,0.057930795443058,-0.1517788618803024,0.1343468725681305,0.2179326713085174
0.24298095703125,1.3019554353900251,-0.4041824198015034,-0.1433165840446948,-0.2034077048301696,-0.1052356362342834,0.1919820308685302
0.2529619140625,1.6250122082524,-0.5255057832248509,-0.0531295326411724,-0.2516460716724396,-0.3117866814136505,0.1859371960163116
0.262943115234375,1.16300829860121,-0.3678728698622435,-0.05285422283113,-0.291884571313858,-0.39561527967453,0.1909151673316955
0.272923095703125,0.4566927976310252,0.1167952184744179,0.0355816009908914,-0.3040290176868438,-0.3057280480861664,0.1953763514757156
0.282904052734375,-0.2737150881968438,0.5701700506638735,-0.022577742511034,-0.3103393614292145,-0.1109071895480156,0.2446296513080597
0.29288525390625,-0.8994678368076682,0.6429472637135535,-0.0851595786303281,-0.2911733984947204,0.2124963402748108,0.3155952990055084
0.3028662109375,-1.262838499879837,0.5207564698059112,0.1454027426689863,-0.2571581602096557,0.5700387954711914,0.3906029462814331
0.312845947265625,-1.4299027469977736,0.3969740958578884,0.284232536688447,-0.217387169599533,0.8990777134895325,0.446733683347702
0.322826904296875,-1.4172072238147255,0.3092658556580543,0.5687573343217373,-0.1682449281215667,1.1322495937347412,0.4511281549930572
0.33280810546875,-1.2819707781121137,0.3340554289996624,0.7864806323140859,-0.120151899755001,1.2763104438781738,0.3914730250835418
0.342788330078125,-1.023075657906383,0.3501442478828132,0.9557663548737764,-0.0544615685939788,1.3769617080688477,0.300829142332077
0.35276904296875,-0.8209536144759505,0.5301887534093112,0.882436914768815,0.0107491910457611,1.4976803064346311,0.2047500759363174
0.362750244140625,-0.6446456651292741,0.6659487845946103,0.71739306756258,0.0294254049658775,1.7465457916259766,0.1388078033924102
0.372730224609375,-0.2724334508884698,0.3384032489456236,0.8860726409226656,-0.0603209026157856,2.183992624282837,0.1695135086774826
0.382711181640625,-0.2014500807193107,-0.0090713413365185,0.7275093879073857,-0.2401463240385055,2.377848625183105,0.2182693183422088
0.392692138671875,-0.2719287893019616,0.07480535787642,0.0619616583943367,-0.3438620567321777,2.27942967414856,0.2774997353553772
0.402673095703125,-0.3443827617466449,0.1468866976164281,0.2272141799151897,-0.2998679876327514,2.0474190711975098,0.2817155122756958
0.4126533203125,0.0058413829719647,0.19665084547773,0.3303010449022054,-0.1533631235361099,1.822970390319824,0.1900279372930526
0.42263427734375,0.4830714667949825,0.1578457523956895,0.5456757339417934,0.039868127554655,1.7234011888504028,0.0457780845463275
0.432614990234375,0.554558201642707,0.0514401182495057,0.6847194629728793,0.2029968649148941,1.6592671871185305,-0.1110270917415618
0.44259521484375,0.5751635481022298,-0.0309212810296565,0.2375608018845319,0.2665973901748657,1.545016527175903,-0.2476278096437454
0.452576171875,0.6346859966509044,-0.1551049292549491,-0.1632809291869401,0.2269130498170852,1.4604862928390503,-0.3555516302585602
0.462557373046875,0.7287222708284854,0.0410069870404899,-0.1651969919413328,0.1211890280246734,1.4855726957321167,-0.4515372812747955
0.472537353515625,0.5286221616797149,0.1686512240484357,-0.4906459206372499,-0.0215568300336599,1.6031550168991089,-0.5135547518730164
0.482518310546875,0.2638651637032628,-0.0063189738884568,-0.3007382658094167,-0.1449091136455536,1.7531535625457764,-0.5311997532844543
0.4924990234375,0.0352998614400625,-0.3945028103735297,-0.1487193198710679,-0.2219542413949966,1.7439002990722656,-0.5296415686607361
0.502480224609375,0.009763269123435,-0.7252201079264283,-0.2158960825651883,-0.2119042575359344,1.5483273267745972,-0.5552476048469543
0.512460205078125,0.1207046470031142,-0.4586963925383985,-0.0314022694796323,-0.1222407296299934,1.318860411643982,-0.6439024209976196
0.522441162109375,0.1619366749711334,0.2028368406362831,0.0286649534702301,-0.0314972437918186,1.1238250732421875,-0.7887964844703674
0.53242236328125,-0.0340104061514139,0.5496904494758695,-0.320654095634818,-0.0480030886828899,1.0507901906967163,-0.8880035877227783
0.54240234375,-0.1120005315437912,0.5418802141163498,-0.6834358529031276,-0.2002165913581848,1.2467305660247805,-0.90567547082901
0.552383056640625,0.0206578803643584,0.421114703771472,-0.8851578641653061,-0.4405409395694732,1.6602576971054075,-0.8184242844581604
0.562364013671875,-0.362642933319509,0.2913277921790257,-0.880569951853156,-0.6421680450439453,2.065063238143921,-0.6634397506713867
0.57234423828125,-0.4097489678874612,0.2266820823324844,-0.6339420464158058,-0.6722230315208435,2.318049669265747,-0.5331153273582458
0.5823251953125,-0.2322086272016167,0.1087495669238269,-0.0892179141104221,-0.5097600817680359,2.326580047607422,-0.4090045690536499
0.59230615234375,-0.3151663118734956,-0.0184514198286458,0.3432663249373436,-0.2023976147174835,1.807804107666016,-0.2453575730323791
0.602287353515625,-0.762101101078093,-0.0481073570976033,1.8000994566977022,0.5818391442298889,-0.803967297077179,-0.0522810630500316
0.61226708984375,0.5523220400884747,-0.3257012960217892,5.605525759127736,0.940503716468811,-2.3230109214782715,0.1362322866916656
0.622248046875,-0.3330371918678284,0.6115700556099415,0.9315010976672172,0.3535866737365722,-2.117097854614258,0.4300197064876556
0.63222900390625,-0.2834641826644539,0.6959197791621089,-0.8822808474242687,-0.3754573464393616,-1.4830551147460938,0.9026657938957214
0.642209228515625,-0.9408253908514976,0.3102196127189323,-0.060974400922656,-0.687901496887207,-1.3812743425369265,1.2520991563796997
0.652190185546875,-0.7028194755479693,0.7725573209017514,0.9201946907550096,-0.6185669898986816,-1.3642842769622805,1.3608757257461548
0.662171142578125,-0.518503357116878,0.6479151152539998,1.0954717626839876,-0.4569583833217621,-1.110917091369629,1.3746464252471924
0.67215087890625,-0.4666398988887667,-0.1013334454484283,0.6214876385122537,-0.3056354522705078,-0.6598716974258423,1.3697553873062134
0.682132080078125,-0.2144678033277392,-0.6032797085832804,0.3217717014878988,-0.131604790687561,-0.3318554759025574,1.262942910194397
0.692113037109375,0.1162776243411004,-0.4312551356442272,0.3848088801592588,0.0373477600514888,-0.167156308889389,1.0379317998886108
0.702093017578125,0.0650809594586491,-0.0688795114913955,0.2824251950055361,0.1450379937887191,-0.1641823649406433,0.7680216431617737
0.71207421875,-0.305447904805094,0.1523432825218886,0.3180664172291755,0.1986689567565918,-0.218353122472763,0.5455970168113708
0.72205517578125,-0.5757910323508083,0.2271214235978201,0.5561053580194711,0.2411136180162429,-0.5074827075004578,0.3517516553401947
0.7320361328125,-1.4275801492691038,0.3004233546413481,0.8255635194242,0.1918399184942245,-0.3251126110553741,0.2562233507633209
0.74201611328125,-1.8987289038844408,0.930694530524686,0.6858896757960319,0.1451927870512008,-0.4149929583072662,0.2179768830537796
0.7519970703125,-1.953312726987153,1.5223463451564312,0.5373077185690402,0.0892827436327934,-0.5937071442604065,0.2162762582302093
0.76197802734375,-2.0956763942211865,1.5119614370033143,1.1786059729665517,0.0182650312781333,-0.5769675970077515,0.2737832069396972
0.7719580078125,-2.279419827330857,1.1817642908670007,1.6268138508468866,-0.0375989712774753,-0.5872941613197327,0.3549219667911529
0.781939208984375,-1.148360764567554,1.2520298133566974,1.9440385565549132,-0.1187018156051635,-0.5831995606422424,0.4369984567165375
0.791920166015625,-1.4309119240403174,1.5156496239967645,1.8691016812533137,-0.2110983282327652,-0.5597827434539795,0.533829927444458
0.80189990234375,-1.2234474236033857,1.9574664856657384,2.6168156527996063,-0.1818717271089553,-0.5444216132164001,0.4957278668880462
0.811881103515625,-0.7162031271256506,2.025308726531267,3.2975159432590004,-0.1172784715890884,-0.5496808290481567,0.4446971714496612
0.821862060546875,-1.0304857880324123,1.906709235113859,3.361446271377801,-0.0621177442371845,-0.5477867722511292,0.396373838186264
0.831843017578125,-1.4397560324922205,2.162492945300788,3.1604777088314293,-0.0775413364171981,-0.6934072971343994,0.3449195921421051
0.8418232421875,-1.7096426484420897,2.589415020176768,2.95515796533823,-0.1641457378864288,-0.86879563331604,0.2322705388069152
0.85180419921875,-1.6533713106438517,2.8409584624454376,2.888156559211016,-0.3208132684230804,-1.0004020929336548,0.0421687997877597
0.861784912109375,-1.432197433806211,2.912853485833108,2.8310224671036,-0.517014741897583,-0.984291136264801,-0.1850046962499618
0.87176513671875,-1.1815937566056849,2.9031086291491985,2.683639364272356,-0.7330374121665955,-0.7530440092086792,-0.3956626355648041
0.88174609375,-0.6060997344400734,2.677553030095994,2.4803116713792086,-0.8920976519584656,-0.4958816766738891,-0.5877447724342346
0.89172705078125,-0.3176740569107234,2.0457544254496693,2.3546102390021084,-0.94600248336792,-0.2373085916042328,-0.7527641654014587
0.901707275390625,-0.3484785066276789,1.4371793138720097,2.3782921433627604,-0.8892145752906799,-0.0465295761823654,-0.8919904828071594
0.911688232421875,-0.4830084845613688,1.1551548816870898,2.17877494866848,-0.8028815388679504,0.0474524796009063,-0.9954802989959716
0.92166943359375,-0.6363054876115173,1.184787511145696,1.8976146590322256,-0.7520977258682251,0.1108418405055999,-1.0842519998550415
0.93164990234375,-0.812067347382754,1.1177813557781278,1.2899924642652272,-0.7979831695556641,0.0283290222287178,-1.163141131401062
0.941630126953125,-1.2804343623250722,0.7478289031628519,0.633725188794732,-0.930685818195343,-0.2011241465806961,-1.201400876045227
0.951611328125,-1.3067372628390788,0.2008772675337269,0.4402291540861129,-1.0854519605636597,-0.3586936891078949,-1.1976398229599
0.96159228515625,-0.883333132956177,-0.4531159620575606,0.5355506457686424,-1.1387628316879272,-0.4507964551448822,-1.2052862644195557
0.971572265625,-0.1517643866553902,-1.1142943904452025,0.6256506034106015,-1.0375407934188845,-0.4589834809303283,-1.234053373336792
0.98155322265625,0.3469996662467718,-1.60891739801988,0.8787544268637895,-0.7864076495170593,-0.4176661372184753,-1.2485582828521729
0.9915341796875,0.4969048349015414,-1.6940291919857262,1.1510188778609036,-0.4996078312397003,-0.3407336175441742,-1.2701760530471802
1.00151416015625,0.6222182178091258,-1.326256494562328,1.1073252820849415,-0.2950882613658905,-0.1919848620891571,-1.2906962633132937
1.0114951171875,0.8112305312324315,-1.1137159329701214,0.8193944754004479,-0.2051022201776504,-0.0691089481115341,-1.325089454650879
1.021476318359375,0.806926988819614,-1.240551557008922,0.7069874088823795,-0.1685364842414856,-0.0075864633545279,-1.364235758781433
1.031457275390625,0.7235716100670397,-1.2563678425610063,0.6407236693799495,-0.1402472853660583,-0.0101771475747227,-1.3861101865768433
1.04143701171875,0.6524118421513587,-0.9638634443506596,0.4345961166352033,-0.0909255295991897,-0.0965093672275543,-1.3881959915161133
1.051418212890625,0.7763868160620331,-0.5815593135539442,0.2886293103426695,-0.0186230037361383,-0.2099763303995132,-1.3862431049346924
1.061399169921875,1.0264925536777822,-0.3827667798724025,0.0050993689656257,0.0398424379527568,-0.241759568452835,-1.4043699502944946
1.071379150390625,1.449960031120479,-0.3404511213861406,-0.439829925635457,0.056080475449562,-0.1632500886917114,-1.4169336557388306
1.081360107421875,1.6643489239931106,-0.2398527852792292,-1.2838637522518634,0.002454001456499,-0.0648382902145385,-1.3750091791152954
1.09134130859375,1.7800705218866466,0.1617596379037946,-2.385795066338777,-0.1193488612771034,-0.0475061722099781,-1.2414451837539673
1.101322265625,1.5022095660567285,0.4083500608749687,-3.492722873538732,-0.2927358150482178,-0.1644469052553177,-1.016037940979004
1.111302001953125,1.2556012421026823,0.5971998772129417,-4.8241462493449445,-0.5120924711227417,-0.2631707787513733,-0.7338690161705017
1.121283203125,1.3551556951798498,0.8640752555828541,-6.751815854901075,-0.6922392845153809,-0.2515642046928406,-0.4648810029029846
1.13126416015625,1.6287518331721424,1.1093765155263244,-8.990959639814495,-0.7519572377204895,-0.2043570727109909,-0.2252313494682312
1.141244140625,2.0475996149249376,1.7623288212299346,-11.198152289193867,-0.649192750453949,-0.2505663931369781,-0.0124711384996771
1.15122509765625,2.269971177114546,2.900190695875883,-13.491064489173889,-0.4788728058338165,-0.5209479928016663,0.1766092479228973
1.161206298828125,2.514397480854392,3.9060418088674544,-15.203181711035969,-0.3873245120048523,-0.7788602113723755,0.3559220433235168
1.17118603515625,2.671370542068779,3.957586994926632,-16.253573392021654,-0.4780897796154022,-0.9195557236671448,0.5005422234535217
1.1811669921875,2.9921047172024844,3.753992467790842,-17.772231404054164,-0.6810985207557678,-0.9795871376991272,0.5600327253341675
1.191148193359375,3.1271611301630733,4.101867747828364,-18.974231696611643,-0.8184988498687744,-0.8742095232009888,0.536246120929718
1.201129150390625,2.954473782466352,4.6121974431008095,-19.670293222332,-0.7789751291275024,-0.7264794111251831,0.4302195608615875
1.211109130859375,2.79613849298805,4.625723279628158,-19.305621705794334,-0.5432373881340027,-0.5927955508232117,0.2372350543737411
1.22109033203125,2.6954125119134784,4.060181400221586,-17.91706891405582,-0.2134064882993698,-0.4827776849269867,-0.0320384986698627
1.2310712890625,2.569024850837886,3.190078481847048,-15.998221497380731,0.0445829778909683,-0.3881883323192596,-0.294278621673584
1.241046875,2.1469065229818223,2.2412144537076357,-14.34788239403963,0.143438458442688,-0.2748669981956482,-0.4793591201305389
1.25102783203125,1.7010246038310228,1.650853920995444,-12.510656444996595,0.1588660478591919,-0.1456577628850937,-0.5817675590515137
1.261009033203125,1.46189421454221,0.9600598142839968,-10.308232909715176,0.1651367247104644,-0.0366346091032028,-0.6403573751449585
1.270989990234375,1.3023936806768177,0.0767450937673449,-7.834651423373818,0.1992695927619934,-0.0005524428561329,-0.6766014695167542
1.280969970703125,1.0360556971192358,-1.0381605604439974,-5.14847932575345,0.2868172824382782,-0.0287012569606304,-0.6812101006507874
1.290950927734375,0.6703156015019863,-2.3176712320528923,-2.321992748513818,0.4080674052238464,-0.1767127066850662,-0.6607638001441956
1.30093212890625,0.4185881444359198,-3.340722047778964,0.3968143752515315,0.5567796230316162,-0.3853079974651336,-0.6285611391067505
1.310912109375,0.4180209755398333,-4.220233430489897,3.2824855473876,0.7183067202568054,-0.5575700402259827,-0.602679967880249
1.32089306640625,0.6702981389105319,-4.901871878582239,5.843601524797082,0.86599200963974,-0.6016144752502441,-0.5938084721565247
1.3308740234375,0.9252883606322108,-5.234620901158452,7.978609812453389,0.9802868366241456,-0.5340903997421265,-0.5855441093444824
1.340854248046875,1.0241643299259244,-5.178756390595436,9.76983447329998,1.0648586750030518,-0.3467221558094024,-0.5799208283424377
1.350835205078125,1.0466329860392958,-4.77099304356724,11.091044498127696,1.096494197845459,-0.1372386217117309,-0.5792121887207031
1.360816162109375,0.9238993904918432,-4.195455839847028,11.969755085849762,1.099930763244629,-0.0044009438715875,-0.5542383790016174
1.370796875,0.8101933702044188,-3.654300798200071,12.58608665677309,1.0595511198043823,0.0655605047941207,-0.5240804553031921
1.380777099609375,0.6434278137721121,-3.146636230483651,13.004743445998429,0.974093735218048,0.095848374068737,-0.466817170381546
1.390758056640625,0.5188391284098849,-2.6907982961162924,12.98502986074686,0.8190793395042419,0.0826294645667076,-0.3943535387516022
1.4007392578125,0.4143327885463833,-2.3667253319486976,12.913275122612712,0.6157336831092834,0.0661101415753364,-0.277998149394989
1.41071923828125,0.3059410586168989,-2.1895338047005235,12.810917156422136,0.3923306763172149,0.0460778437554836,-0.1267143785953521
1.4207001953125,0.2994267813520506,-2.20118288757056,12.407675378471613,0.1464117020368576,0.0493841581046581,0.0337088517844677
1.430681396484375,0.2098284530892968,-2.3800918862611056,12.002682372939583,-0.0621509850025177,0.076914869248867,0.2055977880954742
1.440662109375,0.0796744617501273,-2.5139555823057886,11.69263793412447,-0.1857845038175583,0.0567472763359546,0.3438304662704468
1.45064208984375,-0.0634990970946848,-2.497973584797978,11.126007090437412,-0.2415192425251007,0.0295636504888534,0.4486311674118042
1.460623046875,-0.2437141003498807,-2.434703035762161,10.567931309127808,-0.2394244074821472,0.0776547417044639,0.5220367312431335
1.470604248046875,-0.1557735126988962,-2.4387412052370605,10.133719223374127,-0.1709348261356353,0.1120820641517639,0.5230829119682312
1.480584228515625,-0.0872664512490853,-2.5575670527562497,9.94184056073427,-0.0368926003575325,0.0994975566864013,0.4712567329406738
1.49056494140625,-0.0416262879826128,-2.5929624835252763,9.877115282845496,0.1128571033477783,0.088335707783699,0.3970986306667328
1.500546142578125,-0.0545894491259008,-2.544479023124277,9.642032853773236,0.2312726974487304,0.0855476409196853,0.3272801339626312
1.510526123046875,-0.0823858761332929,-2.541969086129963,9.380842169976232,0.3056597411632538,0.0539574474096298,0.2715138792991638
1.520507080078125,-0.095359814398922,-2.596435128071904,9.237520325234533,0.373929351568222,0.0042854957282543,0.2231485098600387
1.530488037109375,-0.0531431593077257,-2.629283212445676,9.235518922284244,0.4541303217411041,-0.0347327888011932,0.1895510852336883
1.54046923828125,0.0249884203819558,-2.53196879338026,9.251523716145751,0.5411176681518555,-0.0555350072681903,0.160266175866127
1.550448974609375,0.162392273251526,-2.44105898066014,9.302266061389446,0.6045887470245361,-0.0159610398113727,0.122578278183937
1.560429931640625,0.322360241965577,-2.437611178293824,9.28623788665235,0.6344843506813049,0.0463348254561424,0.0522905327379703
1.5704111328125,0.4508114114422351,-2.331427662465721,9.208885766902563,0.6558713912963867,0.1149765327572822,-0.0316281057894229
1.58039111328125,0.5518434262586758,-2.21549753638804,9.030925154978036,0.6812283992767334,0.1712099760770797,-0.1323983967304229
1.5903720703125,0.5846459544576704,-2.182223481687158,8.784125984627009,0.7371628284454346,0.2098010629415512,-0.2295337915420532
1.600353271484375,0.5583002377152443,-2.1500763851895925,8.387653554680943,0.8131004571914673,0.2184547334909439,-0.3155983686447143
1.610334228515625,0.4637240479746833,-2.033743669660389,7.782318594068288,0.9055894017219543,0.2319832891225814,-0.3712562322616577
1.62031396484375,0.3651124652381986,-1.7809579722456632,7.203073768001794,0.9790905117988586,0.307344913482666,-0.3810457587242126
1.630294921875,0.410949795044586,-1.3847095603138209,6.150593590304255,1.0036181211471558,0.3934146463871002,-0.3381524682044983
1.640276123046875,0.3600849924650043,-0.9764302996527404,4.510662483730912,0.9376948475837708,0.5213366150856018,-0.235530748963356
1.650256103515625,0.3120685285212471,-0.4040903210712596,1.5366151090055704,0.7273773550987244,0.6262948513031006,-0.0859882980585098
1.660237060546875,0.1386058125378564,0.6340773632332682,-2.373732288101315,0.4200110137462616,0.7873921394348145,0.0945673659443855
1.67021826171875,-0.1671346089404076,2.315123155005276,-7.159227027490735,0.0845358744263649,0.8617918491363525,0.2833127975463867
1.680197998046875,-0.4344940810328349,4.390566031754017,-12.47852761480808,-0.1971093714237213,0.6360801458358765,0.4705391526222229
1.690178955078125,-0.6573573357295245,6.5817568098813295,-17.609542595541477,-0.3871772289276123,0.1013090312480926,0.6064174771308899
1.700159912109375,-0.5325666615217923,7.755840336987376,-21.53101812038421,-0.5180598497390747,-0.442579835653305,0.6660118103027344
1.71014111328125,0.2097143617229536,7.866454090347886,-24.73734280363321,-0.684387743473053,-0.7505272030830383,0.6144691705703735
1.72012109375,1.2401027903281152,8.272583990955352,-27.91792046668529,-0.8770269751548767,-0.7205471992492676,0.4179127216339111
1.73010205078125,2.396974632000923,8.338481819754838,-29.231458057188988,-0.9665170311927797,-0.5694587230682373,0.0503324605524539
1.740083251953125,3.52003904274851,7.283461894446611,-28.643279398560523,-0.9006986021995544,-0.3370476365089416,-0.4240532219409942
1.75006298828125,4.376807847775519,6.005545067900419,-26.48097861483097,-0.7600793838500977,0.0666503831744194,-0.8658354878425598
1.7600439453125,4.748404779662192,4.394657100459933,-23.79439209119081,-0.6946684122085571,0.4964904487133026,-1.1961324214935305
1.77002490234375,4.428015764704346,2.8916815184667706,-21.28564518344402,-0.7459533214569092,0.8861825466156006,-1.352102756500244
1.780006103515625,3.726408587555587,1.7074343247428536,-18.91332334666252,-0.7967608571052551,1.063186526298523,-1.337632179260254
1.789986083984375,2.8770941901877523,0.6950020067300647,-16.331291422474383,-0.7604557871818542,1.0664082765579224,-1.1524728536605835
1.799966796875,1.8953131040915845,0.0576766562852077,-13.824960928219555,-0.6803644299507141,0.934052348136902,-0.8292282223701477
1.809947998046875,1.13833928289935,-0.4385452926523983,-11.667940715241432,-0.5906652808189392,0.7183668613433838,-0.4576249718666076
1.819927978515625,0.5133854661138728,-0.9488062335375697,-9.301525472155213,-0.4524911940097809,0.5029687881469727,-0.0695930868387222
1.829908935546875,-0.0568739798665046,-1.2455059645459057,-6.478789771881699,-0.2325612306594848,0.2604017555713653,0.2803786695003509
1.83989013671875,-0.4610349184885621,-1.3444552913367749,-3.4288743784844877,0.0166350193321704,0.0554518327116966,0.5362703204154968
1.849870361328125,-0.7390614401437342,-1.4271537405505776,-0.3829389946341514,0.1966296434402465,-0.0544302500784397,0.6963157057762146
1.859850830078125,-0.8870099217727779,-1.5419728366464376,2.340112927094102,0.2670337855815887,-0.1241944134235382,0.7367672324180603
1.869831787109375,-0.9867257028914987,-1.8311437065199017,4.83314496383667,0.2477506399154663,-0.0973760485649108,0.6866382956504822
1.87981298828125,-1.113018817551434,-2.31106350435093,7.162108135885,0.2012065798044204,-0.0043164147064089,0.5665166974067688
1.889793212890625,-1.295882837478071,-2.64784207470417,9.060764412924646,0.1749292761087417,0.1163044497370719,0.4083950519561767
1.899774169921875,-1.5035036975204945,-2.7361060490906235,10.554786580872536,0.1924049407243728,0.2107276320457458,0.2297685742378235
1.909755126953125,-1.5971769836045802,-2.7048545862585303,11.610129162263869,0.2445943057537078,0.2317122220993042,0.0436597093939781
1.9197353515625,-1.712031004883349,-2.517356915181875,12.330947528100014,0.3103259205818176,0.2715789675712585,-0.0891944766044616
1.929716064453125,-1.9249981943897905,-2.065607711432874,12.778878342604637,0.3465374708175659,0.3044175207614898,-0.1545132547616958
1.939697021484375,-2.140800607322156,-1.5437619120202957,12.958422424328326,0.3324096500873565,0.3009735345840454,-0.1259319484233856
1.949677978515625,-2.714061098282039,-1.3427791748180984,12.90675536545515,0.2687073349952698,0.2056147158145904,0.0722749158740043
1.959658203125,-3.6334108626455066,-1.3088728135630487,12.553939121884106,0.1599635630846023,-0.0083755981177091,0.4358874857425689
1.96963916015625,-4.420262081837654,-1.244162879373878,11.76470013077259,-0.0160785559564828,-0.2256856858730316,0.7925834655761719
1.979620361328125,-4.102774341279268,-1.2035317399084566,11.185222664994,-0.1642493903636932,-0.3379254043102264,0.9054373502731324
1.98960009765625,-3.2922514468595385,-1.204935469226539,11.101716698789597,-0.1903246641159057,-0.2312897741794586,0.7660213708877563
1.9995810546875,-2.5529665732234714,-1.1325726091314106,11.108415319645404,-0.139161080121994,0.0008478602394461,0.4555063843727112
2.00956201171875,-2.197209600025415,-0.9990621835038064,10.918949563366176,-0.0610596239566803,0.1437459290027618,0.0841804295778274
2.019542236328125,-2.305580250634253,-0.9118631349351256,10.630220299780367,-0.0463557764887809,0.2148861587047577,-0.2440927922725677
2.029523193359375,-2.406527180983126,-1.0700546320285649,9.940830506908894,-0.1307583600282669,0.2286968678236007,-0.519820511341095
2.039504150390625,-2.367374005115777,-1.3918138393610715,9.230603677713871,-0.220558300614357,0.1490446478128433,-0.7380638718605042
2.0494853515625,-2.343274167603999,-1.7860487195134165,8.666376388037204,-0.1879027187824249,0.0182962343096733,-0.8987947702407837
2.059465087890625,-2.234348659591377,-2.0483182845883072,8.3371917799443,-0.002267881995067,-0.1013651862740516,-1.01421058177948
2.069446044921875,-1.9832753190524877,-1.996553318298608,8.276254788422584,0.2912095189094543,-0.2059039324522018,-1.0993692874908447
2.07942724609375,-1.782117225283384,-1.8217793735861776,8.380196224412321,0.5715586543083191,-0.1823839694261551,-1.1174447536468506
2.0894072265625,-1.561360550944507,-1.658047778022289,8.348701600474119,0.710228443145752,-0.0742688775062561,-1.0908774137496948
2.09938818359375,-1.1786977429032326,-1.5622561846099794,8.20190477309823,0.7237948179244995,-0.0706325992941856,-1.0783214569091797
2.109369140625,-0.9292755305722356,-1.477764714499563,8.525027889195083,0.7020543813705444,-0.0853418335318565,-1.0619621276855469
2.11934912109375,-0.6948740695014596,-1.3226350891947745,8.82947962256968,0.6722192168235779,-0.0852672681212425,-1.0496220588684082
2.129330078125,-0.4713496840149164,-1.2074143534954636,8.67908447844088,0.6331144571304321,-0.0853488594293594,-1.0401756763458252
2.13931103515625,-0.3189509449787437,-1.2074421182852235,8.555593123328686,0.6158161759376526,-0.0839885175228118,-1.0385171175003052
2.149292236328125,-0.1760459739422425,-1.2702877929724752,8.446133216178417,0.6438255310058594,-0.0346496552228927,-1.0443308353424072
2.159272216796875,0.0128226566940546,-1.138966621017456,8.27352273311019,0.7111968398094177,0.0740733668208122,-1.0592477321624756
2.169253173828125,0.2260194537052884,-0.9699973439957946,7.794194325301051,0.7973917126655579,0.1853969693183899,-1.0877093076705933
2.17923388671875,0.2653588728597387,-1.0209814621061086,7.162296351933479,0.877703070640564,0.2137383371591568,-1.0785911083221436
2.189214111328125,0.1539849122490733,-1.0310964672766625,6.392004637876153,0.9173976182937622,0.2010803818702697,-1.0059783458709717
2.199195068359375,0.1871466656818985,-0.5114905192127451,4.853503276732564,0.7883192300796509,0.2212080210447311,-0.8767082691192627
2.209176025390625,0.3617656390283256,0.5548541158493608,1.6833014617443085,0.3682120144367218,0.3347612619400024,-0.7118017673492432
2.2191572265625,0.4139494883172214,1.813641367577016,-3.5357816785424947,-0.3252828419208526,0.5089362859725952,-0.50985187292099
2.22913720703125,0.1328431938905268,3.1723467180624603,-9.597884499967098,-1.057772874832153,0.6337122917175293,-0.2741220891475677
2.239117919921875,-0.0604106295600533,4.37776617141366,-14.93395911195278,-1.5378161668777466,0.3904508352279663,-0.1108596846461296
2.24909912109375,0.4158184970594942,4.910713941207528,-19.048165532350534,-1.6374608278274536,-0.1491195410490036,-0.1941400617361068
2.2590791015625,1.7104998497933148,3.8017338776528833,-22.48241400508881,-1.58132803440094,-0.6341855525970459,-0.5076258182525635
2.26906005859375,3.072792411115765,2.2357487356476486,-27.67439461891651,-1.6064997911453247,-0.7408868074417114,-0.9678884148597716
2.279041259765625,4.214517975452542,1.1406521629516035,-32.554745570564265,-1.4167298078536987,-0.5723558664321899,-1.6136212348937988
2.289021240234375,5.304937130922079,0.0925131197309121,-34.29933298339844,-0.7228655815124512,-0.1514810621738433,-2.3233542442321777
2.299001953125,6.355733301055431,-0.0882900586757808,-33.919671987521646,0.3255359828472137,0.5739732980728149,-2.8984549045562744
2.308983154296875,6.961553999358415,0.6125066423403099,-32.08076846065521,1.317678689956665,1.3267148733139038,-3.229900598526001
2.318964111328125,6.365011417010426,1.097956126845628,-28.910024793875216,1.896885633468628,1.8898229598999023,-3.1315667629241943
2.328944091796875,4.90772528078556,1.6944126383453606,-24.631644879364966,2.136069059371948,2.019716501235962,-2.55069351196289
2.33892529296875,3.202882433840632,2.8032553392559287,-19.072024546843767,2.166044235229492,1.6606261730194092,-1.559446096420288
2.34890625,1.6299857588812707,3.6444554037511354,-13.291959966933726,1.9528648853302,1.0021706819534302,-0.3638229370117187
2.358885986328125,0.5485862145610153,3.777111769832671,-8.469693539986014,1.4287129640579224,0.3786066770553589,0.8017094731330872
2.368866943359375,-0.0149051620565354,3.478838432832062,-4.594223979514837,0.6529881358146667,-0.0029041403904557,1.7814173698425293
2.37884814453125,-0.301835267265886,3.2201337206318974,-1.3471920228242873,-0.1968502551317215,-0.1867517381906509,2.4506351947784424
2.388828125,-0.294197173602879,3.0769679432347417,1.205974456885457,-0.9575981497764589,-0.2858285307884216,2.768028974533081
2.39880908203125,-0.1194375496767461,2.745133112893998,3.226879980021715,-1.4779987335205078,-0.2729234099388122,2.793090581893921
2.408790283203125,0.0824503196716308,2.0096669207632543,4.771660275304317,-1.6626763343811035,-0.1837671399116516,2.625801086425781
2.418771240234375,0.1306257370367646,1.011690705865249,6.082573362523317,-1.521376132965088,-0.0408123880624771,2.375940084457397
2.428751220703125,-0.1657958346173167,-0.0058937707463279,7.1920917707383625,-1.1572257280349731,0.1194198504090309,2.1690304279327397
2.43873193359375,-0.9683172088891268,-0.764114705922827,8.258350882941484,-0.7023703455924988,0.1995130777359008,2.092189073562622
2.448713134765625,-1.911627986815572,-1.0976616739436984,9.258632086846232,-0.2797242999076843,0.1032026261091232,2.13294529914856
2.458693359375,-2.6901450929045674,-1.2017139498967675,10.096476995694635,0.0346826277673244,-0.0702085718512535,2.2555415630340576
2.46867431640625,-3.2460569741785523,-1.100036586381495,10.875935766547917,0.242785558104515,-0.183089017868042,2.40829873085022
2.4786552734375,-3.3958453845858574,-0.6351127706956118,11.506572926199436,0.3434144258499145,-0.2772064507007599,2.5048820972442627
2.48863525390625,-3.276102276091277,-0.1573400313632562,12.123894677203891,0.378733217716217,-0.3546260893344879,2.5209288597106934
2.4986162109375,-3.0934339248672127,0.2624335234649479,12.68813950253725,0.3466937839984894,-0.3737435936927795,2.4569387435913086
2.50859716796875,-2.835364295700192,0.7003120958369224,12.885654125237464,0.2279084324836731,-0.3447041511535644,2.3039438724517822
2.518578125,-2.567482882092893,0.921610256641358,12.847788797223568,0.0399872735142707,-0.2808785736560821,2.091647863388061
2.528558349609375,-2.375476209159195,0.8761004052236676,12.648155867195127,-0.1901147067546844,-0.1974005103111267,1.838241696357727
2.538539306640625,-2.202835038691759,0.7409430891718715,12.269061857551335,-0.4087423682212829,-0.1191975697875022,1.5390411615371704
2.548520263671875,-2.1562074352905154,0.5709637583248317,11.666876885402202,-0.5421333312988281,-0.0356607139110565,1.23897385597229
2.558500244140625,-2.289075252165645,0.4303901163127273,11.081328575277327,-0.5635709762573242,0.0234649218618869,0.9616804718971252
2.568481201171875,-2.438289515946805,0.3109790162514895,10.571308676606415,-0.500186026096344,0.0287517085671424,0.7016314268112183
2.57846240234375,-2.633354699668288,0.1992869296023622,10.170711275684832,-0.3789573311805725,-0.0104476241394877,0.4673280715942383
2.5884423828125,-2.7632366326004263,0.2248096395241096,9.94419501490593,-0.2313462346792221,-0.0825589597225189,0.2420034557580948
2.59842333984375,-2.7081518742382524,0.2730767172280698,9.868693491458892,-0.0948696210980415,-0.1558715254068374,0.0028832945972681
2.608404052734375,-2.5221008948385717,0.1916164315070956,9.925055430150032,-0.0033896591048687,-0.2063122540712356,-0.2295300066471099
2.61838525390625,-2.355232754814625,0.0640239612190052,10.016471146565674,0.0365934446454048,-0.218684509396553,-0.4460111856460571
2.628365234375,-2.18690564815402,0.0258142402142286,10.09658454772234,0.0477128773927688,-0.2296887934207916,-0.6335901021957397
2.63834619140625,-2.049746856086701,-0.1802288125848397,10.330310301488636,0.0815747082233429,-0.2446152716875076,-0.7802586555480957
2.648327392578125,-2.012367411893606,-0.5018726133767515,11.004031400585172,0.1746775358915329,-0.2023717314004898,-0.8709633946418762
2.658307373046875,-1.762947245389223,-0.6663749741174281,11.740222692120074,0.3255664110183716,-0.1647758930921554,-0.9512065649032592
2.6682880859375,-1.4540285957336423,-0.9549574496436865,12.426523871326443,0.5175232291221619,-0.1396385729312896,-1.0325287580490112
2.67826904296875,-1.1793030883852391,-1.343387954366207,13.260402799153328,0.7153233885765076,-0.1192686036229133,-1.0971916913986206
2.688249267578125,-1.043541303634271,-1.7242371371142564,13.693873711150884,0.8396181464195251,-0.055608969181776,-1.107093334197998
2.698230224609375,-0.954509194419533,-1.889407679440081,13.189593817436696,0.806232213973999,0.046897429972887,-1.0478845834732056
2.708211181640625,-0.8824844802375882,-1.8741645176008344,11.78956101578474,0.645565927028656,0.1550860255956649,-0.9283931255340576
2.7181923828125,-0.8180555549468844,-1.8391411350145932,9.813278478229046,0.4710652232170105,0.2723529934883117,-0.7944396138191223
2.728172119140625,-0.7659033429052681,-1.7283768672674893,7.274619247299432,0.3369893133640289,0.3736082911491394,-0.6148760318756104
2.738153076171875,-0.4403427705284208,-1.617761214210838,3.459390512779355,0.1939621418714523,0.2363657504320144,-0.3306019306182861
2.748134033203125,-0.010271364776045,-1.7728649744220075,-1.9904209530234336,-0.100968986749649,-0.0129900304600596,0.1835466921329498
2.7581142578125,0.5184355525776744,-1.987341691708565,-9.593356208887696,-0.6282461285591125,-0.2785029113292694,0.9323180913925172
2.76809521484375,1.195421717884764,-2.2473693230755627,-17.87731324225068,-1.01991868019104,-0.6961495280265808,1.7475097179412842
2.778076171875,2.237292019566893,-1.903191728512197,-23.34544888477325,-0.8404523134231567,-1.3269816637039185,2.4027531147003174
2.788057373046875,3.9373435405820607,-0.6027408524662256,-27.00709507730007,-0.2992559373378753,-1.8468101024627688,2.584779739379883
2.798037109375,5.810245198640227,-0.4430366127222776,-29.866029049158094,0.217048168182373,-1.876529335975647,1.988453149795532
2.80801806640625,7.253765844362974,-1.7853037463650103,-30.32262949233055,0.7957459688186646,-1.2689114809036257,0.6320932507514954
2.817999267578125,7.9184788766175505,-2.996910071657598,-27.50564782553911,1.661916971206665,-0.3228610157966614,-1.0444819927215576
2.827979248046875,7.833721449047326,-2.0534479025617243,-24.764880798900126,2.3552348613739014,0.6937238574028015,-2.427742481231689
2.837960205078125,6.5387301535815,-0.1664338402599096,-24.475035098505018,2.464329957962036,1.4229681491851809,-3.095766067504883
2.847941162109375,4.528643838362395,0.9988099623084068,-24.43810266742706,2.061265707015991,1.5963751077651978,-2.906734704971313
2.857921142578125,2.267000929132104,1.6009792984969913,-23.283059356355665,1.4592745304107666,1.4520165920257568,-2.0301220417022705
2.867902099609375,0.7058628618318588,2.638155377948284,-20.168876365709306,0.8586645722389221,1.1383458375930786,-0.900231659412384
2.877883056640625,-0.0468329167149961,3.899949044950306,-16.780152795827387,0.1564323902130127,0.7561538219451904,0.1300087422132492
2.887863037109375,-0.7783600888963789,4.596224213421345,-14.588085819387436,-0.6015302538871765,0.3867962956428528,0.9149622321128844
2.89784423828125,-1.600095063008368,4.631469129803777,-12.450680991983411,-1.1157302856445312,0.0215493477880954,1.4073446989059448
2.9078251953125,-2.214271793985367,4.642247713449597,-10.193989275419712,-1.2689812183380127,-0.2864472270011902,1.562469720840454
2.917805908203125,-2.4163749135196206,4.4337090079098935,-8.306446513068675,-1.2053334712982178,-0.5172929763793945,1.4198685884475708
2.9277861328125,-2.434669133492559,3.4504350529074665,-6.283363645893335,-1.0730844736099243,-0.6073507070541382,1.0694308280944824
2.93776708984375,-2.3976897945329547,2.478539108748734,-4.123684442839026,-0.9428465962409972,-0.5261314511299133,0.5950242877006531
2.947748046875,-2.386393909014761,1.8201745687380435,-1.7850433418631553,-0.8258088827133179,-0.3475420475006103,0.1066229417920112
2.957728271484375,-2.362412437185645,1.088771534392983,0.7445996389180422,-0.7175650000572205,-0.2368061989545822,-0.3499752283096313
2.967709228515625,-2.4211124634355303,0.2979490004170685,3.083447076120972,-0.6370023488998413,-0.2128238230943679,-0.7226508855819702
2.97768994140625,-2.4689894823759797,-0.250825137931481,4.981884741973877,-0.5911421775817871,-0.2212942689657211,-0.9911845922470092
2.987670166015625,-2.3024515972197053,-0.5062850960567593,6.684952395939827,-0.5266117453575134,-0.2601277828216553,-1.1779160499572754
2.9976513671875,-1.987141200700402,-0.6764511085823178,8.422550680539011,-0.4123735427856445,-0.3020720481872558,-1.2791439294815063
3.00763232421875,-1.6273831751674412,-0.820070694161579,9.91812066245079,-0.2737252414226532,-0.3416775465011596,-1.2747526168823242
3.017613037109375,-1.4447095632463691,-0.9121095839768648,11.166039825618268,-0.1328943371772766,-0.401612251996994,-1.1527166366577148
3.02759326171875,-1.3962021374478937,-0.8655069688864052,12.28210721708536,-0.056280680000782,-0.4413009881973266,-0.9326408505439758
3.03757421875,-1.3190826574102044,-0.6325364904668181,12.96794311686754,-0.087735541164875,-0.4538995921611786,-0.6364131569862366
3.04755517578125,-1.248395840768516,-0.5442322571352124,13.331089031273123,-0.2143658548593521,-0.4566835761070251,-0.3158440291881561
3.05753515625,-1.1421953738056123,-0.5241847637541592,13.652225357466936,-0.4004331827163696,-0.4014639854431152,-0.0426319353282451
3.067516357421875,-1.0250614979613573,-0.4766381092792376,13.598365172463655,-0.6329563856124878,-0.2954083681106567,0.1594611853361129
3.077497314453125,-0.9375793946675955,-0.4850929992178455,13.167427578336,-0.8546725511550903,-0.2262285053730011,0.2728074193000793
3.087477294921875,-0.9423203055843712,-0.752009622913599,12.617710460048912,-1.0301780700683594,-0.2035539150238037,0.31149822473526
3.097458251953125,-1.0209138036973773,-1.0745322158340365,11.858403665864468,-1.1320527791976929,-0.2102088779211044,0.3285677433013916
3.107439208984375,-1.0657325310457495,-1.5090208535067735,11.156710856258869,-1.1447789669036863,-0.230671152472496,0.3297583758831024
3.117420166015625,-0.9701314187042416,-1.982392106477171,10.531830068176983,-1.080032229423523,-0.2267999798059463,0.2975048422813415
3.127400146484375,-0.7999074654463678,-2.333456099553406,10.04391678737402,-0.9683592319488524,-0.183225005865097,0.2261333763599395
3.13738134765625,-0.6820901373825967,-2.646594412730634,9.663829090517758,-0.8134362697601318,-0.1723079085350036,0.1316526681184768
3.1473623046875,-0.6559734070904553,-2.9038793212607503,9.388043479657172,-0.6434852480888367,-0.2030282020568847,0.0639678016304969
3.157342041015625,-0.6902495515059679,-3.081671590881049,9.058173227387666,-0.4910940825939178,-0.2425250113010406,0.0307190306484699
3.1673232421875,-0.6565117517508566,-3.194095024012029,8.766302158644795,-0.3601811826229095,-0.3059162497520447,0.0142042422667145
3.17730419921875,-0.5145485185438767,-3.336693522915244,8.695251769387722,-0.2296503335237503,-0.3690398335456848,0.0079511394724249
3.18728515625,-0.2677798163963482,-3.519270104202628,8.783988037461041,-0.1081016287207603,-0.3765546977519989,-0.0120230494067072
3.19726513671875,0.0160203613233985,-3.570469837825,8.876676258030534,-0.0035704253241419,-0.3159946799278259,-0.0448909848928451
3.207246337890625,0.3040313890706748,-3.598789046597481,8.817227459239959,0.0868348777294159,-0.2350419610738754,-0.1073721200227737
3.217227294921875,0.5371172374982387,-3.789233584780991,8.851660474717617,0.1760172098875045,-0.1387321949005127,-0.2115137130022049
3.22720703125,0.569729357691668,-3.939004459531605,8.790423623466491,0.2747996151447296,-0.063325434923172,-0.3238265514373779
3.237188232421875,0.4651411482309922,-3.997022933258116,8.497174836629629,0.3828874826431274,-0.0417287945747375,-0.4158920347690582
3.247172607421875,0.4633044708557426,-4.011712260606885,8.376468143799901,0.5054274797439575,-0.0516419112682342,-0.5061031579971313
3.25715234375,0.6436684906601905,-3.968125047814846,8.002432586589455,0.6113744378089905,-0.0732215046882629,-0.5905269384384155
3.267133544921875,0.8477386724837124,-3.8001293650656938,7.45640613951385,0.7005884647369385,-0.0702492222189903,-0.6519774198532104
3.277114501953125,1.1611324217267334,-3.5185599101066587,6.966858535507321,0.7803280353546143,0.0098618613556027,-0.7017771601676941
3.287094482421875,1.4600221370600164,-3.164628106509149,6.242004046022892,0.8298065662384033,0.1942719221115112,-0.7426852583885193
3.297075439453125,1.7379305852934717,-2.5511305899679657,5.08057424878478,0.8457589149475098,0.4024757146835327,-0.7889459729194641
3.307056640625,1.8329528017684813,-1.6984885094821451,3.051034168294072,0.7618963122367859,0.5713701844215393,-0.7810019850730896
3.31703759765625,1.4002458598807452,-0.3589671308835968,-0.2307990526646375,0.4978798627853393,0.7008064389228821,-0.612197756767273
3.327017333984375,0.7906297148175537,1.304747696457058,-4.329846482375264,-0.0007354931440204,0.6750315427780151,-0.3027359545230865
3.33699853515625,0.4854036360695958,2.7057994658932087,-9.071004651910066,-0.6811723113059998,0.4786231517791748,0.057221420109272
3.3469794921875,0.7056156090725213,3.9073268802419294,-13.53242642713189,-1.3683186769485474,0.2359865307807922,0.3110747337341308
3.35695947265625,1.544624227938056,4.839039574833214,-17.79111029204726,-1.880468726158142,-0.0580424293875694,0.3874813616275787
3.366940673828125,2.498564828689396,5.655814515385031,-21.86586966819763,-2.109946012496948,-0.2595494091510772,0.3604587316513061
3.376921630859375,3.260757991965115,5.892304473167657,-24.74036595084667,-2.0896191596984863,-0.3420232236385345,0.2296381145715713
3.3869013671875,3.897680515496433,4.887336865012347,-26.425191845679283,-1.865920901298523,-0.253456175327301,0.0483975894749164
3.39688232421875,4.241740036638081,4.028319404275715,-27.284976783657072,-1.4854930639266968,-0.0416789278388023,-0.1102887243032455
3.406863525390625,4.269829528307914,3.826241711443662,-27.8527486140728,-1.0404592752456665,0.2108877450227737,-0.2010801136493683
3.416844482421875,4.062441746369004,4.163832036571204,-27.836152868580815,-0.5728912353515625,0.3583179414272308,-0.2439809739589691
3.42682470703125,3.8778529484763737,4.710441251970828,-26.793075894522666,-0.0887128040194511,0.4874130487442016,-0.2572027146816253
3.4368056640625,3.61330944712013,4.842070613092184,-24.40616439137459,0.3136775195598602,0.6999934911727905,-0.2291537374258041
3.446786376953125,3.155729052999616,4.703823002874851,-21.328773546552657,0.5326817035675049,0.881872296333313,-0.1341986358165741
3.4567666015625,2.233806515538692,4.36187594384253,-17.74118160127401,0.5710325241088867,0.9139450192451476,0.0645208358764648
3.46674755859375,1.005129739914462,3.715189566665888,-13.932876528537273,0.4781152009963989,0.776856541633606,0.3543688058853149
3.476728515625,-0.1232774201005697,3.1177313307777044,-10.44852868463397,0.2667544782161712,0.5065012574195862,0.6706548929214478
3.486708740234375,-0.9577119359835982,2.679741187790036,-7.456840439277887,0.0178919360041618,0.2046148031949997,0.9088481664657592
3.496689697265625,-1.331620067422092,2.1362968661621213,-4.618872683081031,-0.1977325081825256,-0.0425731502473354,0.9897682666778564
3.5066708984375,-1.374802206544578,1.4736369670450686,-1.760228049558401,-0.3252308070659637,-0.1955490857362747,0.9180108904838562
3.5166513671875,-1.3516656611070037,0.7218725510641932,0.9705109195411205,-0.3699428737163543,-0.279756635427475,0.7317172288894653
3.526631591796875,-1.3796619215354322,-0.1106130227081477,3.3872114117532965,-0.3535130321979522,-0.3459723889827728,0.5072563886642456
3.536612548828125,-1.5178902425304055,-0.9735063750300555,5.673659384155273,-0.2948934137821197,-0.391608864068985,0.3057136833667755
3.54659375,-1.6077617982439696,-1.6771218963265415,7.6661343470990655,-0.247480034828186,-0.3759814500808716,0.1424727737903595
3.55657373046875,-1.6866817518323658,-2.178562036570161,9.206548848387598,-0.2391976118087768,-0.3289582729339599,0.0246148463338613
3.566554443359375,-1.672194084535539,-2.5630896155700085,10.41078026099801,-0.2493967115879058,-0.2945138216018677,-0.0667322129011154
3.57653564453125,-1.7220384580262005,-2.8959283622562886,11.314697770690918,-0.2457524389028549,-0.2410820126533508,-0.1351948827505111
3.586515625,-1.6928408589839934,-3.0113720199912786,11.981242110025882,-0.1839348822832107,-0.1937509775161743,-0.1995272785425186
3.59649658203125,-1.5887709743089973,-2.801263288655877,12.3634972140491,-0.0779730230569839,-0.169057086110115,-0.2648463547229767
3.606477783203125,-1.4908518673487006,-2.4723148274064064,12.529397385823726,0.0376528389751911,-0.1601772010326385,-0.3212022185325622
3.616458740234375,-1.4090775472424923,-2.1961792340643704,12.48479719659686,0.1174376830458641,-0.1539914906024933,-0.3562134504318237
3.6264384765625,-1.265734075190872,-1.9941268218040464,12.368127796459197,0.1181781142950058,-0.1421234011650085,-0.3625878691673279
3.63641943359375,-1.082604682326317,-1.8860604148387907,12.057792265743016,0.0400231257081031,-0.1271122246980667,-0.3457891941070556
3.646400634765625,-0.9925640536561608,-1.8994167400181288,11.555004071891307,-0.100413404405117,-0.0854388624429702,-0.3033263981342315
3.656380615234375,-0.9718320851422846,-1.9126827565655111,11.056975055265426,-0.2468033730983734,-0.0400391519069671,-0.2504573166370392
3.666361572265625,-0.9013924481946974,-1.9069190784722565,10.565537107467652,-0.3504264056682586,-0.0151473097503185,-0.2149116843938827
3.6763427734375,-0.8592929166771471,-1.97227184060961,10.192536154001951,-0.4004807770252228,-0.0125576527789235,-0.1877756714820861
3.686322509765625,-0.869244328783825,-2.056792536814511,9.775061852559446,-0.4111480116844177,-0.0037250067107379,-0.1691514402627945
3.696303466796875,-0.7964198425263166,-2.146834042267501,9.286618410402536,-0.3978311419486999,0.0088046332821249,-0.1725800037384033
3.706284423828125,-0.6951756097313017,-2.298595798574388,8.877083085265754,-0.3428539931774139,0.034049853682518,-0.1799476742744445
3.716265625,-0.7103226907849312,-2.4993977723822,8.626990718588232,-0.2492127418518066,0.0524099506437778,-0.1788603067398071
3.72624560546875,-0.6887949687834829,-2.6288877833873032,8.47113497096598,-0.1168954372406005,0.0478313118219375,-0.1818899810314178
3.7362265625,-0.6348373878203332,-2.7366017236530777,8.41173819462359,0.0242542289197444,0.0355014093220233,-0.1801671832799911
3.746207763671875,-0.5945947727484628,-2.816222957378625,8.377301672014594,0.1574033796787262,0.0317260026931762,-0.1769369095563888
3.7561875,-0.5669031943550333,-2.864469686414301,8.403168519198895,0.2743329405784607,0.0477563664317131,-0.1640117913484573
3.76616845703125,-0.4926830524880439,-2.917689235426485,8.57024241092801,0.3799326419830322,0.0447490327060222,-0.1433091163635254
3.7761494140625,-0.4589330873711034,-2.9511987063184377,8.813919065344333,0.4695394933223724,0.051747553050518,-0.113297164440155
3.786129638671875,-0.4334502710683271,-2.941071280057728,8.926788488677143,0.5198532342910767,0.0500796139240264,-0.0863491743803024
3.796110595703125,-0.372278995866701,-2.863081446926296,8.898150423213838,0.5556102991104126,0.0626664236187934,-0.0620780773460865
3.806091552734375,-0.3260812352500856,-2.7613597328126427,8.856600269207357,0.5903161764144897,0.0970809757709503,-0.032915785908699
3.81607275390625,-0.3106567254945636,-2.622614986728132,8.712046836844086,0.6399106383323669,0.1232353374361991,-0.0103154014796018
3.826052490234375,-0.2683927241303026,-2.3887243977889416,8.462063191238045,0.7132871150970459,0.1495824605226516,-0.0136642912402749
3.836033447265625,-0.2036657292084768,-2.1355022086530924,8.05190418124497,0.7756293416023254,0.2081059515476226,-0.0483202710747718
3.8460146484375,-0.0067572922404855,-2.0237248183406886,7.398133398765325,0.822532057762146,0.2836644351482391,-0.1131904497742652
3.85599462890625,0.1662739735230803,-2.0590423615679145,6.39077831095159,0.8331953287124634,0.3867023885250091,-0.1852457225322723
3.8659755859375,0.3633753027146681,-1.9412008489109576,4.613959776598215,0.7447081804275513,0.5146064162254333,-0.2229238897562027
3.875956298828125,0.4661356391610577,-1.2357291052885353,1.4128420143425464,0.4473635852336883,0.6952976584434509,-0.1629388481378555
3.8859365234375,0.2325903930608183,0.3250355621220543,-3.7755186554223297,-0.1819914132356643,0.8395716547966003,0.0292604025453329
3.89591748046875,-0.5239802541580051,2.053567437288165,-10.023730908435583,-0.9975267052650452,0.7951030135154724,0.3498347103595733
3.9058984375,-1.104026021343842,3.121173872447013,-14.79878725591898,-1.6333518028259275,0.4285100102424621,0.6894035339355469
3.915878662109375,-0.941237624914199,3.8864536035612223,-18.544078530859945,-1.797765016555786,-0.1966225504875183,0.8843205571174622
3.925859619140625,0.0508946862611919,4.442671482044458,-21.693159816408155,-1.4647353887557983,-0.7231313586235046,0.8795705437660217
3.93584033203125,1.3826521893925965,3.5622982218071817,-23.84616436400413,-0.8334548473358154,-0.866790771484375,0.7774316668510437
3.9458212890625,2.67700124143213,2.8399536693170666,-25.49930917241573,-0.1569905132055282,-0.6399161219596863,0.586218535900116
3.9558017578125,3.822023509226739,3.3762510417997835,-26.2323113125205,0.3603447675704956,-0.2276824712753296,0.298389196395874
3.965782470703125,4.466763428510725,3.520277527679503,-25.37320208184719,0.6525496244430542,0.1292463541030883,0.0182054620236158
3.975763427734375,4.412878109066188,3.549607959321141,-23.881261396348474,0.7018982768058777,0.3967512845993042,-0.1103948578238487
3.98574365234375,4.0799885089755055,4.164667318351566,-22.547955275535585,0.5745760798454285,0.5467901229858398,-0.1073811277747154
3.9957236328125,4.022058590315282,4.209900252524018,-22.54774484765529,0.3569857180118561,0.654516339302063,-0.0158679876476526
4.00570458984375,3.612581425106525,4.238670127673447,-20.616998903393743,0.1580316871404647,0.7568038105964661,0.1150092035531997
4.0156845703125,3.2115488476380705,3.496531910432875,-18.055798170310258,0.0397130250930786,0.849837064743042,0.263469249010086
4.02566552734375,2.740702729231119,2.9868618481129405,-14.951179126822948,-0.0388617888092994,0.8642151951789856,0.4234266877174377
4.035646728515625,2.141715384079516,2.976903640939295,-11.85780043927431,-0.1525425314903259,0.7081390619277954,0.6066476702690125
4.04562646484375,1.373013569562137,2.914096763892472,-9.180142487499117,-0.2717576920986175,0.3830791115760803,0.8261070847511292
4.055607421875,0.4089110557585954,2.57847423170656,-7.355942608767747,-0.2901111245155334,0.0150350267067551,1.041677713394165
4.065588623046875,-0.5111977833438665,2.024182352849841,-5.465259210303426,-0.1643632054328918,-0.368921160697937,1.1641004085540771
4.075568603515625,-0.8776880397412925,1.4905353487454354,-3.153943338626623,0.0511318072676658,-0.6748321056365967,1.1445778608322144
4.085549560546875,-0.8485141138356178,1.0245500413078814,-0.7991817084550857,0.2787337899208069,-0.8441512584686279,0.9644110798835754
4.095530517578125,-0.5180490374781191,0.5403036855146288,1.4837310755580664,0.4685250222682953,-0.8929986953735352,0.6751049757003784
4.10551171875,-0.1809625702194869,-0.0435966382075101,3.5001626681506632,0.6246300339698792,-0.8055224418640137,0.347230315208435
4.115491455078125,-0.0273130274046212,-0.6348360726460814,5.412270547437667,0.7551789879798889,-0.6144959926605225,0.0335727855563163
4.125472412109375,-0.0750856361225247,-0.985131857828796,7.163765255442261,0.8606923818588257,-0.45468470454216,-0.2478989362716674
4.13545361328125,-0.2027469703957438,-1.0028588723730296,8.531201609393953,0.9241294264793396,-0.3642648160457611,-0.4648083448410034
4.14543359375,-0.472407303309068,-0.8458752166993916,9.620887774413823,0.9284663796424866,-0.3148452937602997,-0.6101139783859253
4.15541455078125,-0.766053053574264,-0.6990899336308241,10.58430026012659,0.8566774129867554,-0.2606286704540252,-0.6922527551651001
4.165395751953125,-1.032976728065312,-0.665625690120086,11.399535277760029,0.7148867845535278,-0.200472354888916,-0.7205804586410522
4.17537548828125,-1.19500298101604,-0.6233870423927903,11.966756488555667,0.5119618773460388,-0.1808073073625564,-0.7168546915054321
4.1853564453125,-1.1826833054080603,-0.6312056802544742,12.232184371531009,0.2958583533763885,-0.1715896427631378,-0.6826650500297546
4.19533740234375,-1.1841045703828337,-0.7002746133707464,12.38677521378398,0.0901904180645942,-0.1863776445388794,-0.6365300416946411
4.205317626953125,-1.1515521079547704,-0.7369353879004716,12.341052742528914,-0.072471834719181,-0.22779481112957,-0.5865329504013062
4.215298583984375,-1.0405515472337603,-0.7895441115379334,12.126707396537064,-0.1934959888458252,-0.2630050182342529,-0.5393158793449402
4.225279541015625,-0.9238521903492508,-0.8779340503916144,11.840834106904268,-0.2696394920349121,-0.2990103662014007,-0.4990119338035583
4.235260498046875,-0.7883752138890325,-0.9810003109820188,11.47042375445366,-0.3059141635894775,-0.3306998610496521,-0.4750666618347168
4.2452373046875,-0.6203888834901153,-1.099881249689311,11.02986960619688,-0.294146180152893,-0.3551579713821411,-0.4413793981075287
4.255218017578125,-0.5317914028329774,-1.2708715842097995,10.631059673213958,-0.2630271315574646,-0.3142930865287781,-0.3789077699184418
4.26519921875,-0.6021482568679377,-1.3429140532441437,10.28123735076189,-0.2068943083286285,-0.2545046508312225,-0.2935016751289367
4.275179443359375,-0.6364907079853117,-1.2680176560834049,9.899272169595957,-0.1158248484134674,-0.2501255869865417,-0.211642250418663
4.28516015625,-0.584188675676845,-1.1864870085399597,9.693976976022125,-0.0037330905906856,-0.3081488609313965,-0.1398911327123642
4.29514111328125,-0.578137558944337,-1.1791351114071904,9.701458856210111,0.0712636560201644,-0.3633559346199035,-0.0805934593081474
4.30512158203125,-0.5354848870560527,-1.1633088159177452,9.647281860342622,0.0830737501382827,-0.3923702836036682,-0.0449614934623241
4.315102294921875,-0.3804831989798695,-1.1523290836766362,9.468395950266718,0.0461245216429233,-0.3689214289188385,-0.0455119684338569
4.325083251953125,-0.1838490123759955,-1.1711137905802578,9.167067901870608,0.0126902982592582,-0.3106551468372345,-0.0820220708847045
4.335064208984375,0.0793408093489706,-1.2435578992180525,9.002405747458338,0.0125803090631961,-0.2323315441608429,-0.1582734286785125
4.34504443359375,0.3503887972284108,-1.4107618470676242,8.93207432012558,0.0432761721312999,-0.1398729830980301,-0.2509596943855285
4.355025390625,0.5508686994750053,-1.660958550902456,8.817460683473945,0.0825540646910667,-0.0641944780945777,-0.344951182603836
4.36500634765625,0.629116818216443,-1.8162389828547836,8.516767425850034,0.1252409815788269,0.0028246510773897,-0.4281274378299713
4.374986328125,0.6569085690487175,-1.8711672354809936,8.09824683022499,0.1759374439716339,0.0761918127536773,-0.5027843117713928
4.38496728515625,0.7676390806566923,-1.9055795004315672,7.736502599310874,0.2314029484987259,0.174863576889038,-0.5563258528709412
4.3949482421875,0.9208688636895268,-2.011719615509361,7.138304066449403,0.284719705581665,0.3109745383262634,-0.5975936651229858
4.404928466796875,1.1533423523724078,-2.125209362697601,6.293266615748405,0.2781244814395904,0.4375841319561004,-0.5811936855316162
4.414909423828125,1.386651488161832,-2.2819500764608383,4.950719203859568,0.1028453335165977,0.640130341053009,-0.4178234040737152
4.424890380859375,1.1778100733485073,-2.2339770498000084,2.439878538703918,-0.3084616661071777,1.0005099773406982,-0.0901969596743583
4.43487158203125,0.7062057569853961,-1.3796948008917271,-1.432531634196639,-0.949291169643402,1.210262894630432,0.3177013099193573
4.444851318359375,0.4499071195462718,0.6768557438604533,-7.114439791259169,-1.4794524908065796,0.9818496108055116,0.7467508316040039
4.454832275390625,0.2317425440598279,3.469549210961163,-13.846742551916837,-1.55489981174469,0.4080585241317749,1.1470515727996826
4.464813232421875,-0.0321180895987898,6.302528949612379,-18.58918140891194,-1.2170003652572632,-0.2795951068401336,1.429853081703186
4.47479345703125,0.0454171316329389,7.758805616533756,-20.93423062336445,-0.7659872770309448,-0.7313289642333984,1.4922431707382202
4.4847744140625,0.7396209737226367,7.208045126673578,-22.209227178549764,-0.5465805530548096,-0.7575985193252563,1.3409570455551147
4.49475537109375,2.0746742304638026,6.57140434269309,-23.236208757853507,-0.3673405349254608,-0.5458447337150574,0.9700288772583008
4.504735107421875,3.600519231390953,7.093058565056324,-24.508783054327964,-0.1330959349870681,-0.1831321567296981,0.5536354780197144
4.51471630859375,4.294200583976507,6.94095544796586,-23.44303130712509,-0.0066794021986424,0.1983073502779007,0.2321460992097854
4.524697265625,4.180086421279609,5.404634353470802,-22.032897967219352,-0.0427031703293323,0.4333887100219726,0.0609638914465904
4.53467724609375,3.730639941515028,4.860781451041996,-21.629287940478324,-0.1421610563993454,0.4589971303939819,0.0506800934672355
4.544658447265625,3.034032764610648,4.910450906357169,-21.08867065896988,-0.2139282971620559,0.3616023957729339,0.1523404121398925
4.554639404296875,2.262504932887107,4.140991843731701,-19.602617277944088,-0.2241340577602386,0.2414890080690384,0.2639122009277344
4.564619140625,1.6673147880613803,3.1258029935523868,-17.496825732421875,-0.1445302069187164,0.1468091756105423,0.3041269481182098
4.57460009765625,1.260187254718691,2.466882865485549,-15.184078366637229,-0.0039097117260098,0.133900836110115,0.2928156852722168
4.584581298828125,0.8628103502135723,2.0756955363355574,-12.670229751837253,0.1587676256895065,0.1326261311769485,0.2365599870681762
4.594562255859375,0.5040844442073256,1.6224467416785655,-9.658513448452949,0.2933294475078583,0.0939895287156105,0.1612716317176818
4.604542236328125,0.1560376800604164,1.1082578136947006,-6.4029246758192775,0.3518931269645691,0.0331785753369331,0.0867920964956283
4.6145234375,-0.2713002821400761,0.6231100520823151,-3.2221605502843853,0.3534204363822937,-0.0590853095054626,-0.0025420447345823
4.624504150390625,-0.5996119067907333,0.0989013959959149,-0.1590209336549043,0.336963415145874,-0.1557260453701019,-0.1186293289065361
4.634486572265625,-0.7082375550739467,-1.2716913761600852,5.347342440453171,0.3106505572795868,-0.1851981878280639,-0.2422524690628051
4.64446728515625,-0.797838184891641,-1.8874827027268704,7.583154450595378,0.2479161918163299,-0.1313418895006179,-0.3397637605667114
4.654447265625,-1.0270457305811345,-2.371649928869307,9.228484201341868,0.1262488812208175,-0.0077800024300813,-0.3890855014324188
4.66442822265625,-1.3611647263363005,-2.762930050869286,10.29440312180519,-0.0196089446544647,0.0650346204638481,-0.3688871264457702
4.674409423828125,-1.8354443263232707,-3.142340871377289,11.222983948111532,-0.0956421941518783,0.0418888218700885,-0.2792674899101257
4.684390380859375,-2.207669034719467,-3.315651903930306,12.100610832250116,-0.0656945556402206,-0.0841951295733451,-0.154281735420227
4.694370361328125,-2.332457590035349,-3.2226737605035303,12.633312518328427,0.0321036428213119,-0.2875237464904785,-0.0331537202000618
4.704351318359375,-2.196402229165286,-2.974577828340232,12.761963448160886,0.1319544315338134,-0.5076057314872742,0.0672733783721923
4.714332275390625,-1.9571751015037295,-2.755675257435441,12.588525282096862,0.1744068264961242,-0.6239344477653503,0.1448193043470382
4.724312255859375,-1.7969839550256728,-2.5846993898317216,12.327189052349327,0.123046688735485,-0.5172507762908936,0.234732374548912
4.734293212890625,-1.541768838506937,-2.4114548466436565,11.914674419140814,0.0217605549842119,-0.3839342892169952,0.3259206414222717
4.7442744140625,-1.32679308565706,-2.385287993599474,11.60453178064823,-0.0767926126718521,-0.2857137024402618,0.4101978838443756
4.754254150390625,-1.194343201933056,-2.4216727276667958,11.528844379240274,-0.1322928816080093,-0.2277225852012634,0.4856537580490112
4.764235107421875,-1.156249106664583,-2.305230268152803,11.323764874243736,-0.1368117332458496,-0.2041042000055313,0.5564764738082886
4.77421630859375,-1.2001637978453188,-2.0710469798773525,10.957032333523037,-0.1372990906238556,-0.2266862094402313,0.6104574203491211
4.7841962890625,-1.1887612370822578,-1.897805797690153,10.479200886273384,-0.1635229736566543,-0.2595324218273163,0.6290978193283081
4.79417724609375,-1.1283987575128671,-1.9037424942627548,10.069977111303803,-0.2373410016298294,-0.3024806678295135,0.6213554739952087
4.804158447265625,-1.077503925121203,-2.041271142555773,9.604815760535,-0.3383578360080719,-0.3746314942836761,0.587532639503479
4.814139404296875,-1.0496464886415748,-2.1451251925230026,9.17402195879221,-0.4176633059978485,-0.4801208972930908,0.517366886138916
4.824119140625,-0.9762313430145382,-2.265089542552829,8.810286846321821,-0.436990350484848,-0.6411814093589783,0.4339505434036255
4.83410009765625,-0.7574931688912212,-2.382145896181464,8.542300511035323,-0.3803222775459289,-0.7890768647193909,0.2998712956905365
4.844081298828125,-0.4761723914636299,-2.407409516775608,8.378633212879299,-0.3037075698375702,-0.7769373655319214,0.1070102229714393
4.854061279296875,-0.4506355434186756,-2.2545731169745324,8.016427209672331,-0.2601041495800018,-0.4567012786865234,-0.0980896651744842
4.864042236328125,-0.0248574783455114,-1.996902716258168,7.492551219606399,-0.2454435527324676,-0.114389918744564,-0.3333166539669037
4.8740234375,0.3491953861927613,-2.109343977306783,7.337170688280462,-0.1932242959737777,0.1168411746621131,-0.5973312854766846
4.884003173828125,0.4531774099212139,-2.427639527116716,7.774624532434344,-0.1100531443953514,0.2414363324642181,-0.8655850887298584
4.893984130859375,0.4535240679344162,-2.7249185923829677,7.887120446279645,-0.0611844025552272,0.2835816442966461,-1.0992158651351929
4.903965087890625,0.3042379079608246,-2.798355876776576,7.407465875256061,-0.0873112827539444,0.2490961402654647,-1.2809431552886963
4.9139453125,0.0608802791986847,-2.8320927266836167,6.366276322379708,-0.2067966759204864,0.2573311626911163,-1.4137589931488037
4.92392626953125,-0.3018627763273194,-2.887374468922615,5.043661691451073,-0.3918680548667907,0.3672728538513183,-1.4831881523132324
4.9339072265625,-0.2971927021570503,-2.7769699743986127,3.70000310344994,-0.5599520802497864,0.4154294729232788,-1.514420986175537
4.943888427734375,-0.2611605261207558,-2.466355334480107,2.4179525380998848,-0.6614187359809875,0.4971054494380951,-1.5002498626708984
4.9538681640625,-0.4210242124764248,-1.8641789840288456,0.9104121324092148,-0.6596498489379883,0.6781426072120667,-1.3736463785171509
4.96384912109375,-0.7069894547089934,-0.8318211185142398,-1.5225754777371885,-0.530070424079895,0.8027375936508179,-1.1397161483764648
4.973830078125,-0.9132120653260498,0.9047701809994876,-4.928896079108119,-0.2746884226799011,0.7930296063423157,-0.8873416185379028
4.983810546875,-1.0486845117416232,2.9999229897379878,-8.818414623197913,0.029888741672039,0.6547399163246155,-0.6139311194419861
4.993791259765625,-0.8133848597221076,4.84759785208106,-12.11401391918063,0.3919723927974701,0.2543008625507355,-0.317094087600708
5.003772216796875,-0.326583558749035,6.340332318305969,-14.97401873514056,0.7334186434745789,-0.2410026788711547,0.0021617105230689
5.013752197265625,0.1173917413291521,7.399627436715364,-16.35492481151819,0.946273684501648,-0.5227574110031128,0.4112160503864288
5.0237333984375,0.5418905893798918,8.038357301929592,-18.27564269824028,0.864739179611206,-0.7071197628974915,0.8764857649803162
5.033714111328125,0.8858380284491926,8.779190281790495,-20.36056915038824,0.4697508513927459,-0.7885035872459412,1.279995083808899
5.0436943359375,1.4570239781573413,8.903615118360518,-21.74512147431373,-0.1441600322723388,-0.9181417226791382,1.5266501903533936
5.053675537109375,2.041928145159781,8.138645476108788,-22.31692416768074,-0.8170439004898071,-0.99496328830719,1.6091424226760864
5.063656494140625,2.554159874661267,7.25921826454997,-22.01792485449314,-1.3893593549728394,-0.9598809480667114,1.5064029693603516
5.07363623046875,3.24114786708802,6.173052674871683,-21.565271103119848,-1.7811154127120972,-0.9510418772697448,1.2052435874938965
5.083617431640625,3.457722871828079,4.184362198902666,-20.52996593210697,-1.8965444564819336,-0.8066636323928833,0.856650173664093
5.093598388671875,3.174306619958579,1.8798438784115012,-18.26128917871713,-1.6841986179351809,-0.5583462119102478,0.5496616959571838
5.103579345703125,2.41981687066704,0.4632198613122105,-15.451359184002875,-1.2051929235458374,-0.3349510431289673,0.3464149832725525
5.113559326171875,1.3848925156652927,-0.1072447153188288,-12.455025158667564,-0.6276823878288269,-0.189406082034111,0.2918928861618042
5.12354052734375,0.367882733669132,-0.4640678564436733,-9.488345097839831,-0.1079824194312095,-0.0920386090874672,0.3726647794246673
5.133521240234375,-0.5564388277575373,-0.8434471127696335,-6.729304163363576,0.2474987208843231,-0.0345518812537193,0.5440679788589478
5.143501220703125,-1.1720133697684854,-1.2021408700719476,-4.274806147676706,0.4403471350669861,-0.0698874145746231,0.7054320573806763
5.153482421875,-1.4306838143728673,-1.5243066854439675,-1.9236521866083145,0.4737221300601959,-0.1813462972640991,0.7710190415382385
5.16346337890625,-1.6394617354959249,-1.873730510097742,0.4627566277146339,0.4143005907535553,-0.3137004673480987,0.7094199657440186
5.173443359375,-1.5794447814285757,-2.3747391270563005,2.8410335735082626,0.3405579328536987,-0.4054093658924103,0.5322006940841675
5.183424072265625,-1.489903042191267,-2.841515804067254,5.055214182078838,0.3275565207004547,-0.4911653995513916,0.2992128133773803
5.1934052734375,-1.232037411163747,-3.135089585074782,7.141474513179063,0.3828320503234863,-0.5049845576286316,0.0700246542692184
5.20338525390625,-0.794254261990264,-3.457079897749424,8.79902486307323,0.4854602813720703,-0.4552055597305298,-0.1245243176817894
5.2133662109375,-0.3495146447423845,-3.6138223650783297,9.898653745436668,0.604119062423706,-0.3729333281517029,-0.2844119668006897
5.223347412109375,0.0015893515506759,-3.6395395746588703,10.842385379123687,0.708516538143158,-0.2617225050926208,-0.4353350698947906
5.233327392578125,0.3040901335205883,-3.5388217768907544,11.48741229865551,0.7795355916023254,-0.1594699025154113,-0.5815537571907043
5.243308837890625,0.4895758071877062,-3.3961715478003023,11.89526595431566,0.8031186461448669,-0.0620665848255157,-0.7209314107894897
5.25328955078125,0.6689032504860312,-3.1164076809585093,12.03098492283821,0.7569599747657776,0.0116539783775806,-0.8337831497192383
5.263270751953125,0.6526595333021133,-2.8815193131536243,11.839760924714804,0.6223828792572021,0.0795856118202209,-0.8718040585517883
5.273250732421875,0.6231427122429013,-2.761783511182666,11.447290716147425,0.4162617027759552,0.0950487256050109,-0.8545049428939819
5.283231689453125,0.6127586078073829,-2.799856928989291,10.747253272533415,0.1866795122623443,0.0214611124247312,-0.77997887134552
5.293212646484375,0.6115854723747819,-2.846517557877302,10.04139749802947,-0.0197231881320476,-0.0562826842069625,-0.6585555076599121
5.30319287109375,0.7274095807947218,-2.766599971553683,9.433060432991384,-0.1566290110349655,-0.1051151603460311,-0.5345579981803894
5.313173583984375,0.8928557251915336,-2.655453718751669,9.036666913500428,-0.1922754198312759,-0.1057694926857948,-0.4229052066802978
5.323154541015625,0.9708440239530056,-2.647167536443472,8.916002306246757,-0.1281962841749191,-0.0747200325131416,-0.3044593632221222
5.333134521484375,0.8646055630672722,-2.591042913639545,8.813264985349774,0.0003803315339609,0.0326287969946861,-0.1654479652643203
5.34311572265625,0.7266034520436078,-2.3882826453708117,8.581161279827356,0.1480623036623001,0.0561044067144393,-0.0304891970008611
5.3530966796875,0.605506298591569,-2.3337182576209305,8.212061425453424,0.2643550932407379,-0.0555683299899101,0.0735035091638565
5.36307666015625,0.5048937878288329,-2.552469145095348,7.982968592184782,0.3118506669998169,-0.1548440903425216,0.1632275581359863
5.3730576171875,0.4793842296496033,-2.7463100477188824,7.840063511550426,0.3273790180683136,-0.2073056995868683,0.2258763015270233
5.38303857421875,0.5693875950492918,-2.683943023394048,7.923163235041499,0.3633619844913482,-0.2197770476341247,0.2397178262472152
5.3930185546875,0.731734165995568,-2.4861317558348177,8.135884194701909,0.4145335555076599,-0.2064106464385986,0.2005153000354766
5.40299951171875,0.8904710220120847,-2.3812186983339485,8.263193646797538,0.446582943201065,-0.1371067762374878,0.1215904951095581
5.412980712890625,1.0381425863958895,-2.3947803368270395,8.208382444679737,0.4420864582061767,-0.0560875460505485,0.0115564074367284
5.422961669921875,1.0893399819307028,-2.48373989226222,8.016606073370575,0.4206392765045166,0.0126247126609086,-0.1217215061187744
5.43294140625,1.0229751932065934,-2.6096266180783507,7.903202397030592,0.4110923707485199,0.0860038548707962,-0.244935855269432
5.442922607421875,1.0243681088697163,-2.6016587079390883,7.668525626149773,0.4067781865596771,0.1710754483938217,-0.3867077827453613
5.452903564453125,1.144945622361824,-2.505089554283023,7.083655361416936,0.3513908088207245,0.3809554278850555,-0.5352421402931213
5.4628837890625,1.4171476025819778,-2.626568692789972,6.143681618958711,0.2570175230503082,0.6523825526237488,-0.7049683928489685
5.47286474609375,1.7194006568685174,-2.772579630485177,4.625107193556428,0.094670720398426,0.9652312397956848,-0.8870188593864441
5.482845703125,1.9070896127335728,-2.501103407256305,1.9281933371692892,-0.2062603086233139,1.3281264305114746,-1.0314738750457764
5.49282568359375,1.9241820557013156,-2.1017840634465217,-2.756178530782461,-0.7034165263175964,1.6784203052520752,-1.0829660892486572
5.502806640625,1.3726554037742316,-1.7289283636704087,-9.379397231864928,-1.3283287286758425,1.8608782291412356,-1.011417031288147
5.51278759765625,0.4981004378942772,-0.5523802000164986,-16.874918991714715,-1.8153280019760127,1.7188528776168823,-0.8670969009399414
5.522767822265625,-0.104097229339648,1.7887087325029074,-22.6435549996376,-1.7359189987182615,1.228923201560974,-0.7825628519058228
5.532748779296875,0.2550889511221088,4.538337257120013,-22.70839016764164,-0.8669872879981995,0.6940386891365051,-0.7584441900253296
5.54272998046875,0.7434349790528416,5.987727671658992,-19.825490798306465,0.4089584350585937,0.4572982490062713,-0.5959988236427307
5.552709716796875,1.2022076516978442,6.416212027415633,-18.367635922282933,1.4772201776504517,0.5191997289657593,-0.3178614974021911
5.562690673828125,2.2870056062847373,6.358199983429908,-18.75919661478996,1.8932539224624636,0.6021963953971863,-0.0996093899011612
5.572671630859375,2.974576659296453,5.977893675386905,-19.46012370072007,1.687422752380371,0.6391142010688782,0.0970173850655555
5.58265185546875,3.038129678535461,5.327001078692078,-19.277641811978818,1.107862114906311,0.6792764067649841,0.3648644387722015
5.5926328125,2.683159764061868,4.54680084182173,-18.137656953829527,0.4613581597805023,0.6801515221595764,0.6984573006629944
5.60261376953125,2.172892466501146,3.957173445689678,-16.96217641940713,-0.0581428445875644,0.6126739382743835,1.0473402738571167
5.612594970703125,1.7671457199923692,3.574057925444841,-15.910580623328684,-0.397636204957962,0.5411214828491211,1.3493508100509644
5.62257470703125,1.3668150071829557,2.9381314272135493,-14.986213030803205,-0.5251027941703796,0.3950535356998443,1.603670597076416
5.6325556640625,0.5918546437274664,2.22263922483623,-13.366848911440371,-0.4210685491561889,0.2344894260168075,1.8390873670578003
5.64253662109375,-0.138686074699834,2.2251196434751157,-10.879839203727244,-0.1764046251773834,0.0728068053722381,2.022282838821411
5.652516845703125,-0.6663123572099954,2.5473282750755546,-8.521233757609128,0.0212868880480527,-0.0180003345012664,2.1230885982513428
5.662497802734375,-0.9847650703430176,2.517396662670374,-6.662213909909129,0.1032040566205978,-0.0884021744132042,2.080134868621826
5.672478759765625,-1.0519324076216667,2.14210847505033,-4.719031093400717,0.0840335637331008,-0.1354698091745376,1.8659101724624636
5.68245849609375,-0.9882505013059824,1.738062394979596,-2.5575211677879093,0.0107376975938677,-0.1055309325456619,1.502127170562744
5.692439697265625,-0.798659876538068,1.3302815122947096,-0.4357072927474975,-0.0792438611388206,0.0172999165952205,1.0470104217529297
5.702420654296875,-0.6198132024940103,0.6776909525755792,1.478076995319128,-0.1418136805295944,0.1696844100952148,0.5479131937026978
5.712400634765625,-0.4843939475703984,-0.2632095493387431,3.17369959397614,-0.152597889304161,0.3422577679157257,0.0766990929841995
5.7223818359375,-0.5219849156223237,-1.2568036036297678,4.672361112162471,-0.0936795324087143,0.4567148685455322,-0.3043933510780334
5.73236279296875,-0.5801555842358619,-1.9898054514735937,5.909163253509998,0.0282570272684097,0.5290526747703552,-0.5656204223632812
5.742342529296875,-0.617092180032283,-2.653092250317335,6.759737295550107,0.1947062462568283,0.5341286659240723,-0.7232007384300232
5.75232373046875,-0.5811905533067881,-3.246779443234205,7.55282653234899,0.4018836617469787,0.4971168637275696,-0.7794898152351379
5.7623046875,-0.6630294630818069,-3.5649598422318696,8.68618875748813,0.6714947819709778,0.4062750935554504,-0.7349236607551575
5.77228466796875,-0.7607429644674062,-3.491304531173408,9.584459785726668,0.9547198414802552,0.2765066921710968,-0.6085574626922607
5.782265625,-0.812663778905943,-3.159850516843796,9.994141241335868,1.1802247762680054,0.1594720184803009,-0.4387109577655792
5.792246826171875,-0.9666861005559564,-2.6431366734921933,10.078882886815071,1.309061050415039,0.1596547067165374,-0.22344471514225
5.8022275390625,-0.9387379901181906,-2.0836196073330937,10.251085373604298,1.35907244682312,0.2023571878671646,0.0124271968379616
5.81220751953125,-0.7022151529792696,-1.7421717299945652,10.45888056730032,1.3494168519973757,0.230291873216629,0.2139030545949936
5.822188720703125,-0.557761235467717,-1.3680214603632688,10.645801315271854,1.2730406522750854,0.2478700876235962,0.3826315701007843
5.832169677734375,-0.5987747253142297,-0.8925915212973952,10.649991168177127,1.138352394104004,0.2477047145366668,0.5583251118659973
5.842149658203125,-0.7824246349215507,-0.4181932268342003,10.485111571621896,0.952321469783783,0.2397835701704025,0.7545295357704163
5.852130615234375,-1.0376068720839915,-0.0718520427624695,10.513159269976615,0.744529664516449,0.2337310165166854,0.9430358409881592
5.862111572265625,-1.2535343727007509,0.1464450182635337,10.519853214657306,0.550354540348053,0.1821941584348678,1.113271951675415
5.872091796875,-1.5478956508241593,0.3893133154390379,10.537477718675136,0.403579980134964,0.0780589655041694,1.2595974206924438
5.882072509765625,-1.8811653362736105,0.7244703124724328,10.576370636171102,0.2992326021194458,-0.039132073521614,1.3500573635101318
5.8920537109375,-2.083658770299703,1.0223521659374235,10.529440542691946,0.2050112783908844,-0.1464281678199768,1.3622039556503296
5.902033935546875,-2.0881375231489536,1.1660329801846294,10.368345140850543,0.1186800822615623,-0.2025554180145263,1.2877007722854614
5.912014892578125,-1.923647948824614,1.0199822950009256,10.159829816186429,0.0463142730295658,-0.1991543024778366,1.1562691926956177
5.92199560546875,-1.7457494423508644,0.934605639553815,10.029205540454386,-0.0118890209123492,-0.0999900922179222,1.0120389461517334
5.931975830078125,-1.4727603303410113,0.8618722656458616,9.815960264658928,-0.0574453212320804,-0.0267726015299558,0.8695982098579407
5.941956787109375,-1.3052493623688817,0.5394583572642877,9.545437104371189,-0.1959667056798935,0.8079620599746704,0.686545729637146
5.951937744140625,-1.875181585688889,-0.4463558933380991,7.525549818366765,-0.6496362090110779,1.3119863271713257,0.5878819823265076
5.961917724609375,-0.9293766528591512,-0.4379437465626746,7.240314826637506,-0.3123630583286285,0.2362015396356582,-0.1074040532112121
5.97189892578125,0.2726141412176192,-0.1473143849765882,11.074001008868215,-0.0197205226868391,1.0876513719558716,-0.5097368359565735
5.981879638671875,-1.3281746031433344,0.1049273417545482,7.917269500827789,0.1547403931617736,1.261622190475464,-0.5148922204971313
5.991859619140625,-0.8088862331286072,-0.0059140828819945,6.24978403237462,0.1058327704668045,1.3809486627578735,-0.5242612361907959
6.0018408203125,-0.6275529299005865,0.1731292462453246,4.720137593337893,-0.0648964196443557,1.2056111097335815,-0.4092513918876648
6.01182177734375,-0.6816818488426506,-0.3883079012561589,2.1569798809677363,-0.3902667760848999,1.0228115320205688,0.0727027431130409
6.021802734375,-1.4669133578784763,-1.6257603962711988,-0.8586912975221872,-0.6249932646751404,0.5382998585700989,0.7303575277328491
6.031782958984375,0.392830712442845,-0.9018449412025512,-2.1822949394881723,-0.5947034955024719,-0.0011479379609227,1.259630799293518
6.041763671875,1.96235498835966,-0.6954968775749206,-4.875930212596058,-0.322123259305954,-0.3902898728847503,1.6170942783355713
6.05174462890625,3.5874627659410234,0.3772487836359068,-6.445408311283588,0.193560853600502,-0.4329656958580017,1.858444094657898
6.061724609375,4.7140293395906685,2.6876950694039463,-7.273924250772595,0.8019551634788513,-0.1970324218273162,1.9972913265228271
6.071705810546875,5.138754635074735,5.659713276389241,-8.27042535161674,1.1956015825271606,-0.1155953481793403,1.9712754487991333
6.081686767578125,5.037208569788932,7.812066666600107,-10.039336473846436,1.0683658123016355,-0.0939894840121269,1.8472987413406368
6.09166650390625,5.405965894335508,7.602507970362901,-12.67599547575712,0.3518649637699127,-0.0575734227895736,1.7241849899291992
6.101647705078125,6.291569164180755,5.724622678673267,-15.215159733599425,-0.688922643661499,0.2347072064876556,1.6645586490631104
6.111628662109375,6.026712359091639,3.2998382487267253,-17.151803503727912,-1.28591787815094,1.0675163269042969,1.2277257442474363
6.121608642578125,5.2954000717699525,0.9927416021801532,-18.755196146976942,-1.358160138130188,1.7655045986175537,0.625957190990448
6.131589599609375,2.860343254134059,-0.3026952450960874,-18.74126815938949,-0.9318564534187316,2.0587520599365234,-0.2990664541721344
6.14157080078125,1.416898450126499,-0.1993730735158547,-17.27855123028755,-0.094508521258831,1.411949634552002,-1.054910659790039
6.151550537109375,-1.3280300801061091,1.266732584708929,-14.63585762438774,0.4718398153781891,0.6555035710334778,-1.1168712377548218
6.161531494140625,-0.1903071755394339,3.1048809092938896,-13.568263464188576,0.3213840425014496,0.357595682144165,-0.5254526734352112
6.1715126953125,3.877958746938407,2.517681909352541,-14.02182439353466,-0.23821322619915,0.0858246237039566,0.3052072525024414
6.18149267578125,4.846413610732555,1.2150500360056755,-13.251402331095932,-0.8884417414665222,-0.5431171655654907,0.9419535398483276
6.1914736328125,4.122944730387628,-0.4475614697355777,-10.758132393944264,-1.457236409187317,-0.8518720865249634,0.915703058242798
6.20145458984375,3.989344945976138,-2.0592862533263863,-8.12661484657526,-1.5252629518508911,-1.1783567667007446,0.2106600403785705
6.2114345703125,5.519445558521151,-3.470182832689583,-5.689717954030633,-1.0558357238769531,-1.354912281036377,-0.6298647522926331
6.22141552734375,3.924667891143262,-2.847485526126623,-3.360513374441862,-0.5471563339233398,-1.0700132846832275,-0.9480000734329224
6.231396484375,1.3668822272002696,-0.6040342167450115,-2.4547797552376984,-0.2775384783744812,-1.3101316690444946,-0.845302164554596
6.241376708984375,-0.9682014735549688,0.7836923167698084,-0.8148328665733336,-0.2780620753765106,-1.4521212577819824,-0.8268445134162903
6.251357177734375,-2.555762925943732,-0.0630088476260192,-0.4051099099099636,-0.5289131999015808,-1.8877803087234497,-0.713752806186676
6.26133837890625,-4.38183152115643,-2.2555231111757457,-1.170593346902728,-0.7145172953605652,-2.502380847930908,-0.0040836967527866
6.271319091796875,-4.518097017645836,-3.903589739540219,1.4657488441437485,-0.52227783203125,-2.978783369064331,0.8945741653442383
6.281299072265625,-3.726310095617175,-4.152700693964958,5.325014873310924,-0.1717447191476822,-3.302284002304077,1.4926862716674805
6.291280029296875,-3.8795398786500095,-4.426250800858438,7.525786549732088,0.2238971441984176,-3.4149091243743896,1.896145582199097
6.30126123046875,-2.857129552784562,-3.316873846940696,10.438789380908013,0.4489873051643371,-3.429755687713623,2.0966901779174805
6.3112412109375,-2.0299613746427,-1.576178911500424,9.973423447477815,0.2945972084999084,-2.728332757949829,2.1180419921875
6.32122216796875,-0.6292515505120158,0.5026643117437138,12.875456556349992,0.0190360937267541,-1.6625205278396606,1.7288224697113037
6.331203369140625,3.360790437817573,3.519662902912497,16.366259860002994,-0.2608586549758911,-0.0818600952625274,0.542909562587738
6.34118310546875,3.343780850827694,3.615780221147835,15.684971540522575,-0.9370768666267396,0.981339693069458,-0.283642441034317
6.3511640625,-0.3315160467151552,-1.7369729923076926,10.945099903666971,-1.609260082244873,1.7410197257995603,-0.3335658013820648
6.36114501953125,-0.7931747231252491,-4.126859858004749,7.708198880368471,-1.9907065629959104,1.7777457237243652,-0.1756092607975006
6.371125244140625,-1.3777191169045864,-4.695353865215182,6.153324476572871,-1.9387296438217163,1.6500298976898191,-0.1026642173528671
6.381106201171875,-1.191931026224792,-4.865105451720953,5.748602689197659,-1.6020801067352295,1.4259631633758545,-0.0896976664662361
6.391087158203125,-1.177110912103206,-4.788725099612773,5.834407579994202,-1.2217018604278564,1.2051173448562622,-0.0661680996417999
6.40106689453125,-1.447895499806106,-4.974329796549678,5.474085490837693,-0.8407754302024841,1.0853410959243774,0.0172983705997467
6.411048095703125,-2.21235368540436,-5.220628031641245,5.96525923474133,-0.3533689975738525,1.0982459783554075,0.1785210818052292
6.421029052734375,-2.232957643624395,-4.653926460805535,6.167417299333215,0.0889591425657272,1.115890383720398,0.2221920937299728
6.431009033203125,-1.5072363081775604,-3.8032027811616658,5.002092248222231,0.3313118517398834,0.9867499470710754,0.2442936599254608
6.440990234375,-1.2727335786893963,-3.9392958436936136,4.740422840997576,0.4211660325527191,0.8027008175849915,0.3409374058246612
6.45097119140625,-1.163632129587978,-4.098102257815003,5.388103489908576,0.5065858364105225,0.4884501993656158,0.4256640374660492
6.460951904296875,-0.8192507560808211,-3.895741656388342,5.714274303138256,0.6743202805519104,-0.0155361834913492,0.4416974782943725
6.470931884765625,-0.3141716748129576,-3.6797155177026974,5.730812180963159,0.8993515372276306,-0.4903402328491211,0.3530544340610504
6.4809130859375,-0.2191649481680244,-3.381848423415422,6.084930739304423,1.104104995727539,-0.9084836840629578,0.2913138568401336
6.49089404296875,-0.7321956460274756,-3.127702397432923,6.356869027087092,1.235683560371399,-1.169435739517212,0.2936864495277405
6.5008740234375,-0.9458914420694112,-2.860708580315113,5.7746472310364245,1.2425483465194702,-1.507843852043152,0.3368831872940063
6.510855224609375,-0.669241834790632,-2.7789509190827606,4.582072353950142,1.1089421510696411,-1.5145912170410156,0.3820296227931976
6.5208359375,-0.7104628299079835,-2.7710747788801786,3.6332524572134015,0.9239270687103271,-1.3291069269180298,0.3626225888729095
6.53081591796875,-0.276628089566715,-2.792747389245033,2.6169004084736107,0.7238935828208923,-1.098887324333191,0.3549380302429199
6.540797119140625,0.295123202406615,-2.513546124722063,1.6991384978234767,0.5856024622917175,-0.9601435661315918,0.3786989450454712
6.550778076171875,0.6620622254848479,-1.7654969298720358,0.8103852395147084,0.5252197980880737,-0.969851553440094,0.4264020025730133
6.560758056640625,0.7389638980533927,-0.6938513753902167,-0.8829910415202379,0.4865775108337402,-1.0382938385009766,0.479350596666336
6.57073876953125,0.4655865539109334,0.7315184043530374,-3.352000982162356,0.4534344673156738,-0.8620203137397766,0.5035408735275269
6.580719970703125,0.3720918027315288,2.424517303442955,-4.2914726203173394,0.5270352959632874,-0.092384286224842,0.4384304881095886
6.590699951171875,0.1331299749426543,4.524190950606763,-6.14480156289935,0.5157451033592224,0.5962873101234436,0.3796025812625885
6.600680908203125,0.4134646639423444,6.371157080158591,-10.334884769797323,0.4450596868991852,0.8341938257217407,0.2425428479909896
6.610662109375,0.1674159466324374,6.314349735787511,-13.505406318259238,0.3618979454040527,0.6026546359062195,-0.010945345275104
6.620642333984375,-0.5165177362576127,3.396147582402825,-16.361598882454633,0.2681857645511627,0.0532215386629104,-0.2518263757228851
6.630623046875,0.1123863342572934,-0.2582951815512031,-17.928406300628183,0.215291142463684,-0.3051853477954864,-0.2507499456405639
6.640603759765625,0.8195919707339256,-2.097313347773254,-17.561840933167932,0.3764777481555938,-0.1574211120605468,-0.0330701097846031
6.650584228515625,2.114307591063529,-0.1799509272252209,-14.72517140008807,0.7156137824058533,0.1587823927402496,0.0908997729420661
6.660565185546875,3.080938308170438,3.5370822397470474,-12.67743339960575,1.0198549032211304,0.2931616604328155,0.007287030108273
6.670546142578125,3.1077032732382417,5.807692007026076,-11.018522867274283,1.099297046661377,0.2609190344810486,-0.1616865545511245
6.680526123046875,2.9026290289387107,6.401250605127215,-9.24267171664834,0.9147621989250184,0.2235848754644394,-0.2524281442165375
6.690507080078125,1.926656482990831,5.9259887161046265,-8.634299580296874,0.4791129827499389,0.1601875275373459,-0.1969840377569198
6.700488037109375,0.9599947131585328,4.2384655450120565,-9.015051878541708,-0.0847852677106857,-0.2016133815050125,-0.0505526736378669
6.710468017578125,0.4648095416564494,2.8818194651439786,-10.704990001821518,-0.6510787606239319,-0.6985610723495483,0.0861937254667282
6.72044921875,0.1426119337735232,1.888512484166026,-10.449862563586237,-1.004813551902771,-0.9738370180130004,0.2239706069231033
6.73043017578125,0.1813734525753185,1.1574380972534415,-8.973899783942104,-1.1248093843460083,-0.9763768911361694,0.3765569627285003
6.7404111328125,0.1977217809111811,1.2694915280282495,-7.111044888123869,-1.0824905633926392,-0.8095483183860779,0.5246965289115906
6.750390869140625,0.2647219997283071,1.796374737086147,-4.868213939130306,-1.0087887048721311,-0.6788776516914368,0.6534262895584106
6.7603720703125,0.0917241430439986,2.114943112488091,-2.8188416154444216,-1.0445765256881714,-0.7269434332847595,0.7427300214767456
6.77035302734375,-0.1829206454847008,1.8672392483823,-1.1641805572509765,-1.170124888420105,-0.8448692560195923,0.7747220396995544
6.7803330078125,-0.4079479828801006,1.1946760871492326,0.534708349725604,-1.3087102174758911,-0.8428050875663757,0.7994982600212097
6.790314208984375,-0.9129710961770264,0.3151134126424789,3.004169541266561,-1.288646221160889,-0.7105810046195984,0.809191882610321
6.800295166015625,-0.8850700397513807,0.4008249991323798,4.932584412232041,-1.1897697448730469,-0.6064898371696472,0.7987962961196899
6.81027490234375,-1.0408784411005676,0.6343873790305108,5.58884467343986,-1.016426920890808,-0.4735996723175049,0.761586606502533
6.820256103515625,-0.9523749588698148,0.226441441977024,6.549996228483319,-0.7680096626281738,-0.2791608572006225,0.6905933022499084
6.830237060546875,-0.8736310925006866,-0.4618844479899853,6.637899552863836,-0.5494869351387024,-0.1370452791452407,0.6359117031097412
6.840217041015625,-0.7190591741438954,-0.9829950649958104,6.18547902572453,-0.3801179528236389,-0.0536261573433876,0.5487236380577087
6.850197998046875,-0.2170226023770868,-1.3999476075865327,6.09068009661138,-0.2419217377901077,-0.0062120361253619,0.4239766597747803
6.86017919921875,0.0510320489052683,-1.8615490739166736,6.370103187191486,-0.1320800185203552,0.0385092496871948,0.2915268838405609
6.870158935546875,0.1620596437636762,-2.116596724914014,6.918439664775133,-0.0539207719266414,0.0613826066255569,0.1735152900218963
6.880139892578125,0.1353528386238962,-2.099200476694107,7.647948117545247,0.0312129259109497,0.1053880304098129,0.0730583071708679
6.89012109375,-0.0367976987823843,-2.163994143643975,8.2682228731364,0.0992590859532356,0.1466747522354126,0.0027215657755732
6.90010107421875,-0.2338943152662366,-2.368747485426068,8.489088560807705,0.1034997925162315,0.1902306675910949,-0.023759800940752
6.91008203125,-0.564250086030364,-2.673844238705933,8.498816758617759,0.0530533976852893,0.2183882743120193,-0.009222668595612
6.92006298828125,-0.7392715026978403,-2.9651813467025754,8.646175311529635,0.0163922756910324,0.2219628691673278,0.0066497209481894
6.93004296875,-0.7588768783345818,-2.9813901387035844,8.851052571952343,0.0212802421301603,0.2472069859504699,-0.0077233593910932
6.94002392578125,-0.6436112805802374,-2.9006676657378674,8.937394638365507,0.0464259162545204,0.2929874956607818,-0.0280209146440029
6.9500048828125,-0.445090878370963,-2.7723621883422136,8.792543099838495,0.0551088862121105,0.3272104561328888,-0.0685861855745315
6.959985107421875,-0.4092176740223541,-2.586459677502513,8.49030904251337,0.0432826392352581,0.4201489090919494,-0.0928811281919479
6.969966064453125,-0.4922835683090612,-2.464931146895885,8.564027774196862,0.0474616698920726,0.5524393320083618,-0.0837376937270164
6.979947021484375,-0.5439662631427868,-2.3441332686513663,8.535957279488445,0.0730872079730033,0.6870293617248535,-0.0714380890130996
6.989927001953125,-0.5556511845111847,-2.2735443594262,8.394976444914937,0.2328936457633972,0.8642115592956543,-0.0559387616813182
6.999907958984375,0.0612137991691008,-1.9246159170739352,9.65933119457662,0.5617935061454773,0.5939616560935974,-0.1809523105621338
7.009888916015625,0.4172101706136017,-2.082818666213751,5.944405831804871,0.5975746512413025,0.1862852126359939,-0.2249868661165237
7.019869140625,0.6843751795798539,-2.068704070013016,5.488783878275751,0.4909652769565582,-0.116358146071434,-0.2328007668256759
7.02985009765625,0.0015386442767456,-1.9060083933681249,4.96363772214353,0.3708766996860504,-0.2964259088039398,-0.1746352016925811
7.039831298828125,0.0907159341158345,-1.6312357589423656,4.4788481263190505,0.287677526473999,-0.3977168798446655,-0.1483167111873626
7.04981201171875,0.1751099352011457,-1.5802835703402758,3.81869261123836,0.2460840195417404,-0.4731607735157013,-0.157459869980812
7.0597919921875,0.2753196738492697,-1.7954976619906722,2.5823224315673112,0.2003882676362991,-0.6219438314437866,-0.1675098538398742
7.069773193359375,0.5591399764750152,-2.0375942076086995,1.114747541040182,0.2222184687852859,-0.7688480615615845,-0.1688883006572723
7.079754150390625,0.5185436160620301,-1.885554803404212,-0.1165203470557928,0.3375872671604156,-0.8530760407447815,-0.1244091093540191
7.089734130859375,-0.004130450868234,-1.7702829951047896,-1.260716100898385,0.4547871053218841,-0.717059850692749,-0.0551759712398052
