seconds_elapsed,ax,ay,az,gx,gy,gz
0.081116455078125,-0.2273088724613189,-0.2494002927601337,0.1198199731230735,-0.1344187408685684,0.0308880377560853,0.0095056006684899
0.091096435546875,-0.0858854086868464,-0.1085148813851177,0.0687549717962741,-0.1847341954708099,0.0858584642410278,0.0623574927449226
0.10107666015625,0.0184679691046476,0.1429345989897847,0.286748318901658,-0.2976666390895843,0.3642922043800354,0.1306454688310623
0.1110576171875,-0.0105689594831317,-0.1592643870219588,1.0238017802238464,-0.5114315152168274,1.0123833417892456,0.1758138686418533
0.12103759765625,-0.1342103175252676,-0.6923411900229751,2.059289322066307,-0.809653639793396,1.3161778450012207,0.1960770636796951
0.131017578125,-0.277471298925206,-0.8437171618826687,2.60425778452158,-1.0647077560424805,1.1941076517105105,0.2686394453048706
0.14099853515625,-0.7089923920292407,-1.1121452495872974,0.3213549373805522,-1.2059053182601929,1.1033663749694824,0.3670195639133453
0.150978271484375,-0.9891733883045614,-0.9229400439403952,0.0606225187450647,-1.2329277992248535,1.0018951892852783,0.4449749290943146
0.16095849609375,-1.1691716435365378,-0.4419323047421872,0.7108505140513182,-1.1444330215454102,1.060025691986084,0.4911999404430389
0.170938720703125,-1.0837988605469464,0.0508126340009272,0.9870224938809872,-1.0235639810562134,1.1628280878067017,0.4946682751178741
0.180919677734375,-0.986507822357118,0.3456996164988726,2.355552488288283,-1.0271607637405396,1.0946044921875,0.4728687107563019
0.1908994140625,-1.033600266791135,0.5657141672335565,1.6453513780564069,-1.108319640159607,1.0734596252441406,0.4963924288749695
0.20087939453125,-1.3328471249990164,0.7021146882794796,0.9943880542129278,-1.049752712249756,0.7877464294433594,0.5586480498313904
0.210859619140625,-1.6717954406067728,0.5818704983949661,0.8561807760059833,-0.8231379389762878,0.5503314733505249,0.5854372382164001
0.220840576171875,-1.3818702452346685,0.7223064855020492,0.6327139659255743,-0.5164490938186646,0.3677762746810913,0.5942723155021667
0.2308203125,-0.8040144623737782,0.9504837382957338,1.6518915934801102,-0.1629483848810196,0.0975528061389923,0.5973559617996216
0.240800537109375,-0.3305701441671699,0.7476249050233512,1.6690210074573757,0.1812603920698166,-0.1334947943687439,0.6015839576721191
0.250780517578125,-0.1561014294790104,0.3411685489404946,1.66600955068171,0.400514006614685,-0.2893477082252502,0.6228843927383423
0.26076171875,-0.0629789548112545,-0.1331322399649769,1.7584639624953269,0.4969564080238342,-0.4000901877880096,0.6401638388633728
0.270741455078125,-0.0533661224426003,-0.4322231038935482,1.6240075612545013,0.5203344821929932,-0.4017782509326935,0.6284858584403992
0.280721435546875,0.018099980609049,-0.4708880578525364,1.6049889725297688,0.5177339315414429,-0.2822065651416778,0.5879011750221252
0.290701416015625,0.0389161613742355,-0.3664993164867162,1.9308961663872,0.5282694101333618,-0.0699492320418357,0.5283181071281433
0.3006826171875,-0.0155379286933632,-0.1644153400443494,2.3885563477456566,0.5537233352661133,0.2127421200275421,0.4433883130550384
0.310662841796875,-0.1189796681077219,0.2274347638633102,2.8122411942660808,0.5945331454277039,0.5400075912475586,0.3558590710163116
0.320642578125,-0.2035877868677489,0.7576986283354461,3.11802856015861,0.6494203209877014,0.8401306867599487,0.3027553558349609
0.33062255859375,-0.2665447399097495,1.2444976642861962,3.3017999041885138,0.6841164231300354,0.948829472064972,0.2768492996692657
0.340603515625,-0.2071913460513576,1.5044129213199018,3.1105536942332983,0.6339964866638184,0.8027564287185669,0.2618815302848816
0.350583251953125,0.1300236064251512,1.417815564971417,2.052795868393779,0.6401663422584534,0.1040471345186233,0.2480714321136474
0.3605634765625,0.5459367229655385,1.065727051153034,0.820664056944847,1.001888394355774,-1.1868400573730469,0.2628397345542907
0.370543701171875,0.2005742659991607,0.317026845048368,0.6402963838785887,1.1648027896881104,-1.6086982488632202,0.2119198441505432
0.380524658203125,0.8454930124487727,-0.5874117659091949,1.2011761166930195,1.05170476436615,-1.544899344444275,0.1122081577777862
0.39050439453125,1.0949395555034278,-0.7706285447962582,0.7518886268824339,0.6681429147720337,-1.292689561843872,-0.0070323506370186
0.400484375,0.9996670175291598,-0.1282623689062893,0.0409714773356914,0.3060312569141388,-0.7571643590927124,0.0069825346581637
0.410464599609375,0.6730016987808048,0.7298514209888876,0.3577127834409475,-0.0459374152123928,-0.1761832982301712,0.0880337506532669
0.420445556640625,-0.0344948652001097,1.1547041422449051,2.0672493411600588,-0.4176976382732391,0.0813435763120651,0.1633868217468261
0.43042529296875,-0.0947567339392378,1.5663947457194327,1.8300860141605135,-0.8075652122497559,0.0742067396640777,0.2310312241315841
0.440405517578125,0.4085707909535616,1.6793904257804155,1.2622627458184956,-1.1314876079559326,-0.1735564619302749,0.3751444518566131
0.450386474609375,0.4520424876071512,1.6820352412007749,1.026497595179081,-1.416185736656189,-0.3424658179283142,0.5218098759651184
0.46036669921875,0.7044686309944838,1.7191376220181582,1.369526019707322,-1.762040376663208,-0.1397744864225387,0.6212888360023499
0.4703466796875,0.6097641386991366,1.6748989595800636,1.5630378365069626,-1.9451613426208496,0.4038015902042389,0.5871328711509705
0.480326416015625,0.5986094517499209,1.7554038442723452,1.6983476397067307,-1.941641092300415,0.8453425168991089,0.4567232429981231
0.490307373046875,0.6743913265082985,1.5840766790129244,1.274286361089349,-1.8242594003677368,1.2204620838165283,0.253708004951477
0.50028759765625,0.2771526248974725,1.3545023458376526,0.213800571590662,-1.703872799873352,1.4866557121276855,-0.0638758018612861
0.510267333984375,-0.076945438645035,1.1932250115580856,-0.3533709548443555,-1.7449301481246948,1.555368423461914,-0.4629345834255218
0.52024755859375,-0.297283394381497,1.191667991374433,-0.8062146758317947,-2.0247111320495605,1.4372031688690186,-0.8226837515830994
0.530228515625,-0.6582001432292163,1.16658425739184,-1.39595693051517,-2.422083854675293,1.1650134325027466,-1.0794275999069214
0.54020849609375,-1.1300862722083926,1.0319279496647418,-1.734502072149515,-2.915840148925781,1.2100895643234253,-1.1849764585494995
0.550188720703125,-1.7272883413784206,0.86501998908706,-1.97017369928658,-3.1514992713928223,1.154582142829895,-1.2109521627426147
0.56016845703125,-1.8901044295325875,0.9168377815425396,-2.103891264858842,-3.1324620246887207,0.8955990076065063,-1.2128498554229736
0.5701494140625,-1.5539901683069766,0.851567436991632,-1.8534160363435743,-2.890723466873169,0.6461427807807922,-1.1577584743499756
0.58012939453125,-1.6121695316836238,0.7470680748581886,-1.7200135280698536,-2.60943341255188,0.2669551968574524,-1.060364007949829
0.590109619140625,-1.6698697332412002,0.8092555048324167,-1.4095201764434575,-2.2336275577545166,0.1369170993566513,-0.9053645133972168
0.60008935546875,-1.5306823579557238,0.8431633273921907,-1.086284247621894,-1.769668698310852,0.0613067746162414,-0.7383022904396057
0.610070556640625,-1.1804118533447383,0.4648635368660092,-0.6962567560315132,-1.2828577756881714,0.0563418641686439,-0.628814160823822
0.620050537109375,-0.7217155338715762,0.0481904688037931,-0.1987415341466665,-0.8709713816642761,0.1423041820526123,-0.5946114659309387
0.630030517578125,-0.4202767916426062,-0.280101428233087,0.298533449241519,-0.5709421634674072,0.2350137829780578,-0.6179319620132446
0.640010498046875,-0.2650448750071227,-0.5086611775383353,0.7565951971381902,-0.3936539590358734,0.3404307663440704,-0.6818432807922363
0.649991455078125,-0.2686743906158954,-0.4651256949335336,1.0387556037276984,-0.3212491869926452,0.4627565443515777,-0.763127863407135
0.6599716796875,-0.3995114323157817,-0.3671452131748199,1.3695394637107847,-0.3181647062301636,0.5736785531044006,-0.8639024496078491
0.66995166015625,-0.4390827605299651,-0.443559029161185,1.653968984276056,-0.3698338866233825,0.675182580947876,-0.9574673175811768
0.679931396484375,-0.4035704984482378,-0.6143633395902812,1.7778548916637895,-0.4649055302143097,0.7171891331672668,-1.042559027671814
0.68991259765625,-0.4181563654225319,-0.7505471491456032,1.7891291498720645,-0.6300163865089417,0.6511536240577698,-1.0848631858825684
0.699892578125,-0.6471794944558292,-0.708416857163608,1.4659645327210429,-0.8529195189476013,0.5365167856216431,-1.086989164352417
0.70987255859375,-0.9130012721195816,-0.6852186446666717,1.1052654269456863,-1.091956615447998,0.34714475274086,-1.0778391361236572
0.7198525390625,-0.749664740287885,-1.206054536384344,0.9142764066219328,-1.2687846422195437,0.1721109002828598,-1.0627720355987549
0.729833740234375,-0.3773985308375209,-2.0653826705053446,0.6275695887744427,-1.305864930152893,0.0961302146315574,-1.0238182544708252
0.739813720703125,-0.0164085523568093,-2.731886970090866,0.6443705014497041,-1.1711230278015137,0.0875298008322715,-0.9738141298294068
0.749793701171875,0.3244121329940855,-3.0674566030457613,0.8365975391358137,-0.9164628982543944,0.1478439569473266,-0.910960614681244
0.7597734375,0.5941990148965269,-3.1759640317767857,0.8350719370037317,-0.6230872273445129,0.2090505957603454,-0.8172184228897095
0.76975439453125,0.756390979802981,-3.098919955062866,0.6636895344257354,-0.3586632907390594,0.2081795334815979,-0.684903085231781
0.779734619140625,0.8728735521316527,-3.1143694531291723,0.3085965780943632,-0.1834027916193008,0.1132631450891494,-0.5260524749755859
0.78971484375,0.8738794412385672,-3.163601978331804,-0.2593155375748872,-0.0852041989564895,-0.0194591768085956,-0.3492946624755859
0.79969580078125,0.7481744286648929,-3.11129662155509,-0.8285720535904169,-0.0238095484673976,-0.1825266629457473,-0.1842343658208847
0.809675537109375,0.5655999662693589,-2.960120263920724,-1.3531021236509084,0.0585171692073345,-0.3193704783916473,-0.0450940877199173
0.819655517578125,0.407421693983674,-2.710121713006496,-1.7537755124181509,0.1877867430448532,-0.4435781836509704,0.0383121222257614
0.8296357421875,0.4482943871200084,-2.3216055027619005,-1.9893594612717629,0.3236257135868072,-0.5625903010368347,0.0904440358281135
0.839616455078125,0.5613609404601156,-1.8641063571840524,-2.41848386849761,0.4204462766647339,-0.6472428441047668,0.1070592328906059
0.849596435546875,0.5970263472769409,-1.3560948757261038,-2.9536124894618987,0.4465325474739074,-0.7015225887298584,0.0999409481883049
0.85957666015625,0.6532180439677089,-0.7050821597829461,-3.639655894514918,0.4065374433994293,-0.7518752813339233,0.0738366469740867
0.869556640625,0.7219405747991055,-6.04980155825e-05,-4.389640733602643,0.3485191762447357,-0.7964409589767456,0.0283063892275095
0.879537841796875,0.8115979763053357,0.6969052830681204,-5.109250308170914,0.2857207953929901,-0.8171846270561218,-0.0512763187289238
0.889517578125,1.096799284960702,1.2901821416184305,-5.701749752607942,0.2288160175085067,-0.7694374918937683,-0.1897483617067337
0.89949755859375,1.4155138639003038,1.8289473655194044,-6.35549306255877,0.1850576102733612,-0.635859489440918,-0.3682163655757904
0.9094775390625,1.6715489184997976,2.497096509702504,-6.975730993270874,0.1192791312932968,-0.4352346062660217,-0.5215372443199158
0.919458740234375,1.8664533587016163,3.2803391830086706,-7.765452799463271,0.0135234054177999,-0.175008624792099,-0.6332469582557678
0.929438720703125,1.966654585249722,4.0284854084923865,-8.830857340663671,-0.1107660457491874,0.0503106899559497,-0.7034345865249634
0.939418701171875,2.154091173788905,4.681747072406113,-9.997653048849106,-0.2284572571516037,0.2378132045269012,-0.7209233045578003
0.949398681640625,2.258712993258237,5.318752890306711,-11.344276916396618,-0.2932324707508087,0.3606626689434051,-0.6690224409103394
0.959379638671875,2.194747009304166,6.034613925996422,-12.51665013245344,-0.2594635784626007,0.3819043040275574,-0.5580479502677917
0.969359375,1.9505530530154704,6.747748751592636,-13.292872990125415,-0.1022780314087867,0.3653449118137359,-0.4193984866142273
0.979339599609375,1.638924267618358,7.346293905934691,-13.56197050152421,0.1789842694997787,0.3324833512306213,-0.2680467963218689
0.98931982421875,1.106358044487983,7.886187549343704,-13.02490594406128,0.4924946129322052,0.224869966506958,-0.1731722056865692
0.99930078125,0.7205205519333482,8.052139743566512,-12.324298007082938,0.7518598437309265,0.0955806821584701,-0.1573900431394577
1.009280517578125,0.4909898021714761,7.737177137571573,-11.465127986133098,0.8992093205451965,-0.0283698234707117,-0.1885416805744171
1.019260498046875,0.2681962517101317,7.095532261693477,-10.335686733829975,0.926601767539978,-0.1498690992593765,-0.2584398090839386
1.02924072265625,0.1441686342967674,6.379982776170968,-9.183516347846387,0.8580873012542725,-0.2735436260700226,-0.346282958984375
1.0392216796875,0.1366482578624505,5.6804176262438295,-7.995041891816258,0.7270541787147522,-0.4196883141994476,-0.4236696064472198
1.049201416015625,0.1247272170500829,4.7735301608294245,-6.770062290209531,0.5844244956970215,-0.6254649758338928,-0.4446671903133392
1.059181640625,0.0689146741363219,3.7673242430508136,-5.72892534430325,0.4995639026165008,-0.8705517053604126,-0.3829047679901123
1.06916162109375,-0.0182488829938694,2.8671500115394597,-4.722497892728447,0.5492819547653198,-1.1103720664978027,-0.2600536644458771
1.079142822265625,-0.0197075025706551,2.070375656487048,-3.1542870374977587,0.643578052520752,-1.215429663658142,-0.115039512515068
1.08912255859375,-0.0854114710321649,1.5060646340496835,-1.4627309576272964,0.7097303867340088,-1.2131484746932983,-0.0742300152778625
1.0991025390625,0.0397792718764394,1.417099379526079,-0.1933446435391903,0.6795815229415894,-1.16549813747406,-0.1911611557006836
1.10908349609375,0.6743570589125156,1.2098339087925851,0.9061275869578124,0.5331280827522278,-1.0093683004379272,-0.4317325055599212
1.119063720703125,1.3181231647282838,0.6149010997287929,1.9058949961215257,0.2639703452587127,-0.7069708704948425,-0.7302683591842651
1.129043701171875,1.8674200117766857,-0.0963107949808239,2.85920285192728,-0.1030805185437202,-0.2754094302654266,-1.031469225883484
1.139023681640625,2.33831698358804,-0.7814077129639685,3.610375439494848,-0.5148957371711731,0.2163786888122558,-1.2942851781845093
1.149004638671875,2.783701328480244,-1.469511849939078,4.1525393659234044,-0.905510663986206,0.6806841492652893,-1.4960341453552246
1.158984619140625,3.0327187594026324,-2.2020541174471377,4.648714279115199,-1.2009912729263306,1.0389983654022217,-1.6182861328125
1.168964599609375,3.040069414426386,-2.920337119586766,5.0752439936727285,-1.3498589992523191,1.26133930683136,-1.639324188232422
1.178944580078125,2.827757327827811,-3.5962715108186005,5.44577943380773,-1.3370896577835083,1.3757755756378174,-1.5697699785232544
1.188925537109375,2.428458003892749,-4.1687455275759095,5.889962878477573,-1.195422649383545,1.3850643634796145,-1.4281984567642212
1.19890576171875,1.959035926939547,-4.56808942130506,6.297981953832506,-0.9614180326461792,1.2911860942840576,-1.2047195434570312
1.208885498046875,1.3818931877188383,-4.8313022585794325,6.548306375700235,-0.64349764585495,1.0467420816421509,-0.8934657573699951
1.218865478515625,0.8961945142254233,-5.108390476471185,6.936055985486507,-0.2733787596225738,0.6598846316337585,-0.5289186835289001
1.2288466796875,0.5769499200623482,-5.450768328136205,7.438269594320654,0.095206469297409,0.2515744864940643,-0.1578354388475418
1.23882666015625,0.2758208283044397,-5.720216552668809,7.935467420819402,0.4199866652488708,-0.1004559695720672,0.1676425337791443
1.248806396484375,0.1696783020738512,-5.77603605504632,8.4664921135962,0.681660532951355,-0.3627427816390991,0.4067147672176361
1.25878662109375,0.2453481312924995,-5.583810770925879,8.902167842161655,0.8733977675437927,-0.5286872386932373,0.5653390288352966
1.268767822265625,0.4286969755940139,-5.314215831398964,9.28558731378913,0.9973291158676147,-0.6028127074241638,0.6544836759567261
1.278747802734375,0.5702425679108127,-5.044534967154264,9.639424132579563,1.0757992267608645,-0.5862228274345398,0.6922441124916077
1.2887275390625,0.6485748212717473,-4.850125324732065,10.060715946483612,1.101062297821045,-0.496861845254898,0.6847358345985413
1.29870751953125,0.6938419499747455,-4.679371867707372,10.424500158792734,1.0688258409500122,-0.3603172898292541,0.6233683228492737
1.3086884765625,0.7196683190181851,-4.397222274772823,10.647760632646085,0.9978299140930176,-0.1972744315862655,0.5058955550193787
1.318668701171875,0.7936603146851062,-4.101436955195665,10.875020405268668,0.9019297957420348,-0.0298199318349361,0.3678737282752991
1.328648681640625,0.790961796316132,-3.9430169100433594,11.036868671303989,0.7933704853057861,0.1357940733432769,0.2264821380376815
1.338628662109375,0.5972712254161014,-3.845556068244576,11.187620373785496,0.6848152279853821,0.2647728323936462,0.1011559069156646
1.348609619140625,0.381044851450622,-3.788990715935826,11.285352433741092,0.5692946314811707,0.3489007949829101,-0.0110802305862307
1.358589599609375,0.2010507061381824,-3.606389584729075,11.174992362880706,0.4565175175666809,0.394224613904953,-0.1142271235585212
1.368569580078125,0.0430648694183677,-3.3728207750901578,10.973820971238611,0.3567428886890411,0.3894491493701935,-0.2052272111177444
1.378550537109375,-0.0718038379728794,-3.298427797406912,10.743573122715947,0.282182365655899,0.3765442669391632,-0.2847049832344055
1.388530517578125,-0.1738985683836974,-3.357102689215541,10.414195037877558,0.2442336827516555,0.4139207303524017,-0.3556286692619324
1.3985107421875,-0.2312867631163448,-3.4310511380016804,10.16678095049858,0.2354279458522796,0.5209460258483887,-0.4297018349170685
1.408490478515625,-0.2004827883234247,-3.41531230159998,9.951004694920778,0.2454556375741958,0.6550082564353943,-0.5042473673820496
1.4184716796875,-0.164972133676894,-3.366962404450774,9.588992752981186,0.2232858836650848,0.759777307510376,-0.5855379700660706
1.42845166015625,-0.1621383715556934,-3.395419852650165,8.985910539731384,0.1037500724196434,0.8245203495025635,-0.6892749071121216
1.438431640625,-0.1022892574690748,-3.5068595354408023,7.897902537056804,-0.1319415420293808,0.9381236433982848,-0.7793856263160706
1.448411376953125,-0.1365339381672441,-3.672037822681665,6.155151107478141,-0.3759008646011352,1.1274545192718506,-0.8221719861030579
1.458392578125,-0.3866965936020016,-3.93042572401762,4.574328607955574,-0.4967018663883209,1.2495826482772827,-0.829403281211853
1.46837255859375,-0.6531994853977113,-4.200128800094127,3.284553001311421,-0.409740686416626,1.260649800300598,-0.8118167519569397
1.478352783203125,-0.871881033962965,-4.329102678270638,1.992531077045202,-0.1480108052492141,1.216362476348877,-0.7320539951324463
1.48833251953125,-1.3377587163075804,-3.98604005921185,0.4448211580514907,0.1704879105091095,1.0304865837097168,-0.522652804851532
1.4983134765625,-1.7285723898395895,-2.616775320789218,-2.134463513255119,0.3870087563991546,0.5906479954719543,-0.1115824431180954
1.50829345703125,-2.194350995723903,0.1317163087524473,-6.172959735891222,0.4721264839172363,-0.1764803826808929,0.4261961579322815
1.518273681640625,-2.670135155054927,4.067178127241134,-10.656716677039862,0.3888688683509826,-1.260224223136902,1.0142475366592407
1.528253662109375,-2.8575089074909688,8.094300722947716,-14.602798235350846,0.0110484389588236,-2.340263843536377,1.5532121658325195
1.538234375,-2.528060095503926,10.98298510542512,-18.60306614187956,-0.6556254625320435,-3.1053452491760254,1.8515962362289429
1.548214599609375,-1.4619674259088933,12.529177605593205,-22.70048275551796,-1.438567280769348,-3.296904325485229,1.7976497411727903
1.558194580078125,0.3288839811785146,13.041345037686824,-25.969341928613183,-2.260096788406372,-2.791746139526367,1.4069762229919434
1.568174560546875,1.9271518652923405,12.174641698622702,-27.92563615562916,-2.831298828125,-1.4877063035964966,0.6173364520072937
1.578155517578125,3.2064757821574807,10.405526578253507,-28.85378677382469,-2.8532063961029053,0.1340750902891159,-0.3643428087234497
1.588135498046875,3.565391803908348,8.821929353320598,-27.699842363905905,-2.113877058029175,1.5393222570419312,-1.3034311532974243
1.59811572265625,2.9708737131252883,8.06430364409089,-25.952423527038096,-0.7205491065979004,2.568239212036133,-1.964779019355774
1.608095458984375,1.961039375716448,8.199352750527858,-22.41097607781887,0.9393376111984252,3.214414358139038,-2.267673969268799
1.6180771484375,0.6550526389837265,8.408486499351262,-18.09365297693014,2.250850200653076,3.2955517768859863,-2.2815165519714355
1.62805712890625,-0.3874984845694154,7.858260847020149,-14.766916784405709,3.049100875854492,2.946646213531494,-2.137805700302124
1.638037109375,-0.8673952668510377,6.89005937346518,-11.72812893422246,3.3422818183898926,2.2773711681365967,-1.9069557189941408
1.648016845703125,-1.1504342829059808,6.540708760178089,-8.694120135009289,3.1679675579071045,1.4401206970214844,-1.6001307964324951
1.657997802734375,-1.24838341967836,6.335497153234481,-6.264899183920026,2.591430902481079,0.6246746182441711,-1.2585474252700806
1.667977783203125,-1.017250458884239,5.53792930971682,-4.343178257635236,1.7350678443908691,-0.0157768372446298,-0.9242262244224548
1.677958251953125,-0.4870329177718609,4.175908843334019,-2.694121595320105,0.7816164493560791,-0.4474544823169708,-0.6322617530822754
1.687938232421875,0.1841465340178459,2.5166549043923614,-0.9931447761535644,-0.1402062326669693,-0.6847372055053711,-0.4147713482379913
1.6979189453125,0.810637022318691,0.906899009721726,0.6471189233750104,-0.9670069217681884,-0.7473891377449036,-0.3054701685905456
1.70789892578125,1.3514423737451433,-0.2623834007129073,1.7675912718027829,-1.629886031150818,-0.6660168766975403,-0.3048009276390075
1.71787890625,1.8427631249040364,-1.0770761281631889,2.418735212910175,-2.062445640563965,-0.3918679356575012,-0.3340474963188171
1.727860107421875,2.1772790110222995,-1.848955111411959,3.076933164182305,-2.2431530952453613,-0.0251069739460945,-0.3394899070262909
1.73783984375,2.2852425421349705,-2.7501722761049865,3.822204418751597,-2.175622701644897,0.3000130653381347,-0.3057713806629181
1.747820068359375,2.0566547357790173,-3.6094998257040976,4.3376685543030495,-1.8729028701782229,0.4934822618961334,-0.2271483540534973
1.757800048828125,1.6240554920494557,-4.152144813647866,4.793115735787153,-1.4010446071624756,0.549443781375885,-0.1061129942536354
1.76778125,1.029447677156329,-4.538251332402229,5.280713959291577,-0.8494048118591309,0.4733196794986725,0.0302349850535392
1.777760986328125,0.4271868632920086,-4.891633685423433,5.742983680272102,-0.3088358342647552,0.3108490109443664,0.1657163798809051
1.787740966796875,-0.0653057811904698,-5.195002591997385,6.17572510895133,0.1611814051866531,0.1033801734447479,0.3059815168380737
1.797720947265625,-0.3869059985689819,-5.471737466406822,6.659862962868809,0.5507174730300903,-0.1035754084587097,0.4334254860877991
1.807701904296875,-0.5216265306387097,-5.573118696519733,7.198450199854373,0.895598828792572,-0.2500420212745666,0.5408796668052673
1.81768212890625,-0.4710413487181067,-5.522323744305968,7.951411424404382,1.1918219327926636,-0.2838013470172882,0.624742865562439
1.827662109375,-0.3613262977629899,-5.370400659957528,8.93440480889976,1.4501579999923706,-0.2459212690591812,0.6928114295005798
1.83764208984375,-0.24304982775487,-5.159578811916709,9.8828506116271,1.6736382246017456,-0.1791017651557922,0.7376601696014404
1.847623046875,-0.2012225373074412,-4.839480596598983,10.71596966099739,1.8399453163146973,-0.1193899735808372,0.7616114616394043
1.857602783203125,-0.239805219810456,-4.311264531502127,11.32862342019081,1.9291577339172363,-0.0984285026788711,0.7563703656196594
1.8675830078125,-0.3530700722016394,-3.685007778891921,11.721249111580848,1.9513453245162964,-0.1014858409762382,0.7411443591117859
1.877563232421875,-0.4923809277363121,-3.11963248822391,12.13715981696844,1.8854364156723025,-0.106308564543724,0.7352588176727295
1.887544189453125,-0.7005049149952829,-2.71059926739037,12.59267304942608,1.756738305091858,-0.092015691101551,0.7292497754096985
1.89752392578125,-0.8908330602575093,-2.400180442304909,12.991284244966506,1.5459837913513184,-0.0575378723442554,0.7306671142578125
1.90750390625,-0.987610230641067,-2.1619781276464463,13.140956920039653,1.2747292518615725,-0.0250677987933158,0.7173197865486145
1.91748388671875,-0.9551420854955912,-1.9504750193431968,13.20679863473773,0.960138499736786,-0.0117389438673853,0.6730780005455017
1.927465087890625,-0.8588204037945717,-1.7763941714614628,13.183790684115886,0.605021595954895,-0.0181311275810003,0.60054612159729
1.93744482421875,-0.7906286919042468,-1.7066354294501245,12.979945689350366,0.2472062110900879,-0.0016893036663532,0.5192251801490784
1.947425048828125,-0.7467551364514976,-1.7975538638681172,12.65630410233736,-0.0747736096382141,0.0325250178575515,0.4367374777793884
1.957405029296875,-0.7457020472019911,-1.9139013385750352,12.319313204407692,-0.3460525274276733,0.0683152377605438,0.3608384728431701
1.96738623046875,-0.7648286994110792,-1.9997072522848844,11.768118414783476,-0.5435391068458557,0.1138665452599525,0.2684895098209381
1.977365966796875,-0.7355305626038462,-2.097340528041124,11.17203935829401,-0.6629413962364197,0.1652591675519943,0.1606072336435318
1.987345947265625,-0.6672589173451066,-2.296122101937234,10.570159506571292,-0.7432880997657776,0.2288372963666916,0.0543736182153224
1.997325927734375,-0.6010935967158526,-2.718522461605072,9.753031807059047,-0.7981178164482117,0.3173242807388305,-0.0437558777630329
2.007306884765625,-0.6147038235910236,-3.180013599428534,8.586067756569385,-0.8303526639938354,0.4448519647121429,-0.1315745115280151
2.017286865234375,-0.6622193888079375,-3.475202414417266,7.244294251662493,-0.7959968447685242,0.5168284177780151,-0.2224964201450348
2.02726708984375,-0.661161842579022,-3.7396903861939914,5.873674591499567,-0.6726979613304138,0.4843702912330627,-0.3125753700733185
2.037248046875,-0.6708690706662833,-4.22776382599473,4.421868932512402,-0.4152786433696747,0.4558278620243072,-0.3649501502513885
2.04722802734375,-0.7914904233001172,-4.791455109098553,3.0951994732350108,-0.0449394471943378,0.4359627068042755,-0.3576485216617584
2.057207763671875,-0.8957590454176068,-4.975472536844015,1.66645729444921,0.4038316607475281,0.4805735945701599,-0.2728627920150757
2.06718798828125,-0.9539991260055452,-4.464066152250767,-0.393090970814228,0.8659356832504272,0.4348332583904266,-0.1035375818610191
2.0771689453125,-0.7804716011576354,-3.180659496116638,-2.6648423093438147,1.170499563217163,0.2609104812145233,0.2266251593828201
2.08714892578125,-0.6896733590532094,-0.8123685222864151,-5.749292425027489,1.2154124975204468,-0.0864888653159141,0.7660380601882935
2.09712890625,-1.06527726155892,2.155858037330955,-9.218213567218184,0.9671584963798524,-0.7799040675163269,1.411992430686951
2.10710888671875,-1.500112009255588,4.3508352021291845,-12.13318974429369,0.3367731869220733,-1.824821710586548,2.0239133834838867
2.117090087890625,-1.5089552409246565,5.362334842401743,-15.26496333668828,-0.7699443697929382,-2.78352689743042,2.472360372543335
2.127070068359375,-0.9897016499623656,5.53520777579844,-19.576767381894587,-2.0906312465667725,-3.254040241241455,2.5778439044952397
2.1370498046875,0.120782224017661,5.30070051626563,-24.27149288607836,-3.114492416381836,-3.091477632522583,2.249855756759644
2.147030029296875,1.5780141641035674,5.125417599117756,-27.28153745685816,-3.4520938396453857,-2.307499647140503,1.6461992263793943
2.157010986328125,2.3104183383151886,5.185134108933807,-28.81096470018625,-2.938685178756714,-1.134724259376526,0.9364509582519532
2.1669912109375,1.948845664575696,5.81036970180273,-29.00502830564976,-1.5752378702163696,0.0005383873358368,0.22073395550251
2.17697119140625,1.021437096919119,7.914509388464689,-27.853295726561544,0.256450206041336,0.8858692646026611,-0.3826714754104614
2.186950927734375,-0.0516424541548825,9.818218857240677,-25.2257365614295,1.9870017766952517,1.457262635231018,-0.8812547922134399
2.196931884765625,-0.8715759135365485,9.92947675372362,-21.67947732801437,3.116605281829834,1.8088337182998655,-1.2539583444595337
2.206912109375,-1.2162311355490236,8.685671455615758,-18.05802753679752,3.603181600570679,1.9817557334899905,-1.5117831230163574
2.21689208984375,-1.3145498362861574,7.460439340552687,-14.361723872387408,3.587413787841797,1.926359295845032,-1.6820930242538452
2.2268720703125,-1.1528688165765255,6.975622272199392,-10.623199022841453,3.1521129608154297,1.6998701095581057,-1.749275803565979
2.23685302734375,-0.9323391559265554,6.504087294745445,-7.458682267752289,2.3647427558898926,1.372004151344299,-1.7346984148025513
2.2468330078125,-0.6688275549013167,5.4768508638978,-5.15530537238121,1.3313257694244385,1.019747257232666,-1.646659016609192
2.256812744140625,-0.3004008505485951,4.002241544689237,-3.54830564455092,0.2118140459060669,0.7296707034111023,-1.5270822048187256
2.26679296875,0.1465627994243055,2.349933479362726,-2.304447154951096,-0.8079264163970947,0.544535219669342,-1.4340401887893677
2.27677392578125,0.6985165176570415,0.8231012209638953,-1.1830699666380882,-1.5627306699752808,0.5412288904190063,-1.3903989791870115
2.28675390625,1.2337620429992675,-0.2427761984452605,0.058324178674817,-1.92213773727417,0.7076002955436707,-1.3423596620559692
2.296734130859375,1.4546514038071034,-0.8184694695100188,1.609326709473133,-1.8919721841812132,0.9166759848594666,-1.2447348833084106
2.3067138671875,1.312639764881134,-1.2747536863401532,3.6826252676695583,-1.6529008150100708,1.0155820846557615,-1.0983659029006958
2.316695068359375,1.0190180530786517,-1.7056287366256118,5.393687427520752,-1.378899335861206,0.9719550013542176,-0.9247981309890748
2.326675048828125,0.6027803076937794,-2.121935017202049,6.2499441913723945,-1.1196022033691406,0.8348087072372437,-0.7106958627700806
2.336655029296875,-0.0009863806888461,-2.6455767601206897,6.947320891344547,-0.8717424273490906,0.5949175357818604,-0.4999516606330871
2.346635009765625,-0.6362962083265185,-3.040287733352184,7.665991723757981,-0.6491188406944275,0.2844699621200561,-0.3102990090847015
2.356615966796875,-1.1467445615425704,-3.1791797789528964,8.222458900827169,-0.4602906107902527,-0.0132456012070178,-0.1588836759328842
2.36659619140625,-1.4851456185311078,-3.208030902644992,8.757280647799373,-0.2948531806468963,-0.266000896692276,-0.03603445738554
2.376576171875,-1.6656356028027832,-3.330380101984739,9.293553762623668,-0.1716595888137817,-0.4398123621940613,0.0780058279633522
2.386556884765625,-1.7621812294527888,-3.499443121704459,9.701904261890054,-0.0868859216570854,-0.5364645719528198,0.2144894003868103
2.396536865234375,-1.7967783494509757,-3.620513094888628,9.907419235694409,-0.0221418142318725,-0.5810648202896118,0.3646978139877319
2.40651708984375,-1.6817014792017635,-3.6022751351475715,10.07347489029169,0.0408774502575397,-0.598684549331665,0.4980912804603576
2.4164970703125,-1.38472943405807,-3.572361058399081,10.357918439382312,0.110486626625061,-0.5834217071533203,0.5980021953582764
2.426477783203125,-1.0189259908810258,-3.557267534163594,10.646671083843708,0.1857019066810608,-0.5297898650169373,0.6730347275733948
2.4364580078125,-0.7466802445843815,-3.541388997030258,10.948822139060496,0.2554522454738617,-0.4551366865634918,0.7229593992233276
2.44643798828125,-0.6344134633198381,-3.466349538137018,11.12869706017375,0.3117331862449646,-0.370021104812622,0.7561527490615845
2.456418212890625,-0.6386197559032589,-3.2995904114454984,11.185945134049652,0.3317111432552337,-0.2703807950019836,0.7716885805130005
2.46639892578125,-0.7307415016964077,-3.1432246684744958,11.122943026691674,0.3212148249149322,-0.2043382376432418,0.7519431114196777
2.47637890625,-0.8306656648688018,-2.9984105393484235,10.993510006570816,0.2770428657531738,-0.178192913532257,0.696327805519104
2.48635888671875,-0.904687836478278,-2.8955256266742944,10.84814408878088,0.1978537440299987,-0.1850061863660812,0.6113622784614563
2.496339111328125,-0.997131580767408,-2.850866692997515,10.645150157886745,0.0784466639161109,-0.1333983838558197,0.5267890691757202
2.5063203125,-1.0980110719032583,-2.8489821944251656,10.386137987172605,-0.0470162816345691,-0.0387543141841888,0.4467575252056122
2.516300048828125,-1.126835599849373,-2.80314135748744,10.04802013103962,-0.1292549520730972,0.0646058991551399,0.3510027527809143
2.526280029296875,-1.016546183072403,-2.8256805215537546,9.774480253279208,-0.1448328644037246,0.1703224033117294,0.2559690177440643
2.536260009765625,-0.9608101211946456,-2.916915620705485,9.714633979603647,-0.0987082421779632,0.2860825359821319,0.1672548800706863
2.54624072265625,-0.9518556111708284,-2.914588639062643,9.638547934266924,-0.0210709627717733,0.3786893486976623,0.0838038250803947
2.556220947265625,-0.9362064988791942,-2.8216487818196416,9.5197000210464,0.0595168247818946,0.4490939974784851,0.0026999169494956
2.566201171875,-0.9106212451152504,-2.7458193415924903,9.27862682712674,0.1325369775295257,0.5108834505081177,-0.0712323486804962
2.57618115234375,-0.8647855227440595,-2.687204363277554,9.044166329345106,0.1819252967834472,0.5346449613571167,-0.1289561092853546
2.586161865234375,-0.7777877689011394,-2.5461650765150785,8.633547300624848,0.2076658904552459,0.5196326375007629,-0.166103646159172
2.596141845703125,-0.7185897300012409,-2.3182217055425047,7.853622081303596,0.2238877415657043,0.4586022496223449,-0.1704517751932144
2.6061220703125,-0.7564953900255262,-2.3902143440857526,6.995206093591452,0.2485443651676178,0.3820317387580871,-0.116854041814804
2.61610302734375,-0.8827537256330251,-2.6953642888575797,6.1009179975092405,0.2826506495475769,0.2171549201011657,0.0019389207009226
2.626082763671875,-0.9816989607706664,-3.003519552925229,4.90757622770369,0.3244374096393585,-0.0604070536792278,0.1859758496284485
2.636063232421875,-0.9696040338292716,-3.1793256171643733,3.081975250002741,0.3869138360023498,-0.3040644526481628,0.4485070705413818
2.646043212890625,-0.9030036097183824,-2.992979746471345,0.8154746716082095,0.456920713186264,-0.4381826221942901,0.8043409585952759
2.656024169921875,-0.9948365286327898,-2.3123894922576844,-1.6676824523299931,0.5090686678886414,-0.6160005331039429,1.2099677324295044
2.666004150390625,-1.2782457662396132,-1.0889581430062651,-4.929093062984943,0.5306751132011414,-0.9167357683181764,1.538509726524353
2.67598388671875,-1.8697278503276409,0.8844946510162204,-8.833007212173937,0.4540008306503296,-1.4175198078155518,1.5957187414169312
2.685964111328125,-2.573366971695423,3.685818510752916,-12.959613679939508,0.2276480346918106,-2.026509046554565,1.2353233098983765
2.695945068359375,-2.8023212732762097,6.744193104937672,-17.304529721152782,-0.0998139828443527,-2.38208270072937,0.3928566873073578
2.70592529296875,-2.0838108921214937,8.652298762845993,-20.234651444911957,-0.5498120784759521,-2.2437374591827397,-0.8672542572021484
2.715905029296875,-0.0582786590326577,9.442532610213757,-21.712257315588,-1.1726045608520508,-1.2901771068572998,-2.282988786697388
2.725885009765625,2.505892979620397,9.88866894251704,-22.829472708046435,-1.7522891759872437,0.4300431609153747,-3.576581716537476
2.7358662109375,4.70841266875267,9.478868828964233,-23.55779165877104,-1.894983172416687,2.31039834022522,-4.565653800964356
2.74584619140625,5.993089490953087,8.659441620337963,-23.59259643017053,-1.44108247756958,3.727629184722901,-5.086427688598633
2.755825927734375,6.170466165509819,8.056160669645667,-22.755822949945927,-0.6206091642379761,4.38600492477417,-5.073116779327393
2.76580615234375,5.60499559777379,7.473280701947211,-21.383068615841864,0.1495617479085922,4.27161169052124,-4.590124130249023
2.775787353515625,4.900418172642588,6.655270374381542,-19.84916627292633,0.6311984658241272,3.609424114227295,-3.7675623893737793
2.785767333984375,4.445163591121137,5.805889926040172,-18.20814678659439,0.7781921625137329,2.7271831035614014,-2.747960567474365
2.7957470703125,4.02899131218791,4.566610580924153,-15.888251887142657,0.6975084543228149,1.7815001010894775,-1.6469961404800415
2.80572705078125,3.649352528142929,3.094851098188758,-13.041108890843391,0.4921266436576843,0.8574999570846558,-0.529595673084259
2.8157080078125,3.208148683805764,1.990628019902855,-10.283729752099513,0.2928798496723175,0.0487650409340858,0.5016191601753235
2.825688232421875,2.488877255150676,1.12315808038041,-7.436586171278357,0.1458075940608978,-0.6947759985923767,1.3894537687301636
2.835668212890625,1.6926761699415742,0.8371553191490471,-4.974301739498973,0.1025274917483329,-1.3903398513793943,2.12052059173584
2.845648193359375,0.9850302971504628,0.973864906144142,-2.7296219477683303,0.0971393808722496,-1.9768519401550293,2.6965103149414062
2.855629150390625,0.4496947554372251,0.9333337199218572,-0.708596013122797,0.0646402910351753,-2.4090914726257324,3.118879556655884
2.865609130859375,0.0968017933681607,0.8087403949171305,0.7740361612826585,-0.0280627366155385,-2.6358885765075684,3.4090735912323
2.8755888671875,-0.0548228925555944,0.5973207271136343,2.117524653413892,-0.1712571680545807,-2.7051382064819336,3.565061330795288
2.885570068359375,0.0211390149448066,0.1767459754377603,3.3626796125650404,-0.361080914735794,-2.630747079849243,3.5874319076538086
2.895550048828125,0.1997910431995987,-0.375186042419821,4.42746806769371,-0.5723705291748047,-2.409844160079956,3.4961583614349365
2.9055302734375,0.3145952339872718,-0.8962219867542386,5.432915276059508,-0.7598790526390076,-2.075134754180908,3.315117597579956
2.915510009765625,0.3502770074170082,-1.2988519164167345,6.387687359198927,-0.8840521574020386,-1.64290189743042,3.0532143115997314
2.9254912109375,0.2855749642733484,-1.6393427852913736,7.320475574067235,-0.9068573117256165,-1.1428735256195068,2.7064523696899414
2.93547119140625,0.2009801068536937,-1.9251833416983484,8.284276766836642,-0.8068910837173462,-0.6328089237213135,2.273862361907959
2.945451171875,0.0909452128270641,-2.1390033486418423,9.248259161391854,-0.6102405786514282,-0.126916617155075,1.7878808975219729
2.955430908203125,-0.0781728980807587,-2.427945085934549,10.182571224826576,-0.3527539074420929,0.3499670922756195,1.3037505149841309
2.965411865234375,-0.3616918066071346,-2.709212489207089,10.957274325585365,-0.0914614126086235,0.7494294047355652,0.8304186463356018
2.97539208984375,-0.7796048282604664,-2.81923616771996,11.46230825253725,0.1201858595013618,1.0399584770202637,0.378926008939743
2.985372314453125,-1.0890621879026292,-2.776488620622456,11.627039380532503,0.2674273252487182,1.2347828149795532,-0.0154452603310346
2.99535205078125,-1.3814739393934607,-2.7544243805915114,11.610248404729363,0.3473434448242187,1.3372732400894165,-0.315382719039917
3.0053330078125,-1.6691766364105045,-2.778838106358051,11.566958713579178,0.3716217875480652,1.3287395238876345,-0.5056362748146057
3.01531298828125,-1.8855001506075264,-2.802977106836438,11.42782263008952,0.3425001204013824,1.2364681959152222,-0.5851987600326538
3.025293212890625,-2.060219880914688,-2.784887907916308,11.187473074269294,0.2666826844215393,1.092458963394165,-0.5711560249328613
3.035274169921875,-2.1283470762014387,-2.809111664068699,10.96407465324998,0.1299445629119873,0.9612167477607728,-0.4588785171508789
3.04525390625,-2.190889895484597,-2.9216631074935195,10.772872866958378,-0.0268352031707763,0.8503032922744751,-0.2684949934482574
3.055234130859375,-2.2428325564287603,-3.1166929276406763,10.49062127495408,-0.1622079461812973,0.7164821028709412,-0.0358854606747627
3.065214111328125,-2.02300921741724,-3.1925103851690886,10.39724156498909,-0.2867831885814667,0.5555123686790466,0.1988616734743118
3.0751953125,-2.062362153640389,-3.1107074234902856,10.135155978178975,-0.3594251573085785,0.406311422586441,0.4205251038074493
3.085175048828125,-2.0773788132473827,-3.281744373631477,9.870094005906582,-0.3858945667743683,0.2645116746425628,0.6109436750411987
3.095155029296875,-2.20290868844986,-3.48781318192631,9.884192673885822,-0.3852919042110443,0.1052421256899833,0.7405131459236145
3.10513525390625,-2.229526646262407,-3.493835803216696,9.65448317002356,-0.3556879460811615,-0.0670493096113205,0.8017368912696838
3.1151162109375,-2.2983247265480458,-3.4379514189094302,9.166718942302465,-0.2880012989044189,-0.1379860788583755,0.799116313457489
3.12509619140625,-2.5259146079078314,-3.439022847533226,8.772610903400182,-0.1448015123605728,-0.1683751344680786,0.7485511898994446
3.135076171875,-2.604101132655144,-3.364560604006052,8.719960094186662,0.0439865067601203,-0.2178036719560623,0.644515335559845
3.14505615234375,-2.705233648703992,-3.2065845032289624,8.458719141507148,0.2537887394428253,-0.3226561248302459,0.4819443821907043
3.155037109375,-2.523405547696352,-2.817637792612612,7.706661587798595,0.4827556312084198,-0.3478957116603851,0.2698678076267242
3.16501708984375,-2.167354413857311,-2.5567232954084878,6.981155356407165,0.7147644758224487,-0.2697081863880157,0.0690207183361053
3.1749970703125,-1.7908017592594023,-2.7204905468076466,6.656291534122825,0.9064316749572754,-0.1126946061849594,-0.121580921113491
3.184977294921875,-1.2552695259302853,-2.9229964019238945,5.96225479222834,1.0124313831329346,0.2026071548461914,-0.2619958221912384
3.194958251953125,-0.8453251816011965,-3.1953193051099777,5.267900070425868,0.986857295036316,0.578166663646698,-0.3715188503265381
3.20493798828125,-0.7143124910734594,-3.774256088140607,4.302175216117501,0.8818856477737427,0.8005173802375793,-0.4946423768997192
3.21491796875,-0.5151879489585757,-4.154608573412895,2.7613451197654006,0.7779850959777832,0.8320369124412537,-0.6529548168182373
3.224898193359375,-0.366951151907444,-4.146155510105192,0.8709194954544305,0.7628165483474731,0.7158470749855042,-0.7407215237617493
3.234879150390625,-0.5926842994846403,-3.461419680519402,-1.5170716196238994,0.9623206257820128,0.4832540452480316,-0.6664746999740601
3.24485888671875,-1.299365418896824,-1.950759096981585,-4.150226412805915,1.4198824167251587,0.047202568501234,-0.4968976378440857
3.254839111328125,-2.2715233749926087,0.7448312557168304,-6.712066028314829,2.0542666912078857,-0.8288660645484924,-0.4182118773460388
3.2648203125,-2.8707991816967726,4.954231011372804,-8.950576776021718,2.48476505279541,-1.9704269170761108,-0.4847592115402221
3.27480029296875,-2.629900467561185,9.314525238981842,-11.249086357617378,2.18646240234375,-3.1749284267425537,-0.6920082569122314
3.284780029296875,-0.8842945983994752,12.523283286857604,-14.344945756065844,0.8048114776611328,-3.836520195007324,-0.9980279803276062
3.294760009765625,2.541613404560089,13.642595943856238,-19.20766051325798,-1.4251158237457275,-3.318389177322388,-1.4329429864883425
3.304740234375,6.406504287871718,11.184425377136469,-24.30461423443556,-3.5522708892822266,-1.721691012382507,-2.099480628967285
3.31472119140625,9.340031436160206,7.572374697905778,-27.51437590639591,-4.544865131378174,0.3161025941371918,-2.744592666625977
3.324701171875,10.294452221643924,5.407260610321164,-28.02750195438861,-4.035713195800781,1.99881911277771,-2.97800087928772
3.33468115234375,8.449273267769813,4.595635015356541,-26.671885802090166,-2.440023422241211,2.8526384830474854,-2.804120779037476
3.344662109375,5.171202029693126,5.026572609484195,-25.0958581356287,-0.4353679418563843,2.7122199535369877,-2.43887710571289
3.35464208984375,2.4971172602295875,5.729983328923582,-23.248965363574023,1.2113982439041138,1.8787157535552976,-1.983550310134888
3.3646220703125,1.0787861469514668,5.3277253013134,-20.98603095322847,2.072378158569336,0.9014230370521544,-1.4633944034576416
3.37460205078125,0.6420759607717395,4.313503250339627,-18.531008621406556,2.232724905014038,0.1024371236562728,-0.8929128050804138
3.3845830078125,0.7809097003139555,3.69053881727308,-15.732946759140493,1.9643900394439695,-0.4064681231975555,-0.3487454652786255
3.394563232421875,1.284831574370712,2.999336129760742,-12.403167545658349,1.47309410572052,-0.6679646968841553,0.1233421713113784
3.40454296875,1.81447431126982,1.9496444137379525,-9.08912483049035,0.9429702758789062,-0.7678388953208923,0.525141179561615
3.414523193359375,1.9738811755023893,0.7784411182433366,-6.1828334796518085,0.511509120464325,-0.7944657206535339,0.8782494068145752
3.424504150390625,1.8715826844140888,-0.1571767670929431,-3.446122450405359,0.1772223263978958,-0.759480357170105,1.171640396118164
3.434484130859375,1.461286604037881,-0.6725753631275146,-1.2412515219718216,-0.0776832029223442,-0.6719419956207275,1.3565293550491333
3.4444638671875,1.0383172123104334,-0.7671830074522644,0.5113116920471191,-0.297396570444107,-0.542104184627533,1.4044268131256104
3.454444091796875,0.8114522111590952,-0.8924117077510804,2.118705387631058,-0.5256960391998291,-0.3132670223712921,1.3784186840057373
3.46442529296875,0.5576683695524931,-1.445228618684411,3.685369013419747,-0.7712817192077637,-0.002317402511835,1.312946915626526
3.4744052734375,0.1706397675171494,-2.2164912236005065,5.090278481197357,-0.9963161945343018,0.278643935918808,1.206626057624817
3.484385009765625,-0.2365212297037243,-2.749737976340949,6.008038638281822,-1.0986484289169312,0.4812446236610412,1.0587321519851685
3.494364990234375,-0.7455455414660275,-3.060348524606228,6.585775397872925,-0.9761283993721008,0.6437084078788757,0.8619295358657837
3.504345947265625,-1.253774611197412,-3.2926296325221656,7.510964243653416,-0.612872838973999,0.7783123850822449,0.6050837635993958
3.514326171875,-1.6054742718286812,-3.4812042851805685,8.754469097509979,-0.0990236401557922,0.8784674406051636,0.321330577135086
3.52430615234375,-1.7810132095642386,-3.5237057485625147,9.814694190245866,0.4388895034790039,0.9625925421714784,0.0571018792688846
3.5342861328125,-1.86853966345638,-3.373797803428769,10.539497826325892,0.8787449598312378,1.013948917388916,-0.1457889229059219
3.54426708984375,-1.8744826436392965,-3.1469074486404653,10.902282506203653,1.1888371706008911,1.0415868759155271,-0.2763583660125732
3.5542470703125,-1.864291942884028,-2.788847459197044,11.011789175105095,1.3686938285827637,1.0416102409362793,-0.3288391530513763
3.56422705078125,-1.8535873012572528,-2.426597909109294,11.175109267258645,1.4295777082443235,0.9894667863845824,-0.3128599226474762
3.5742080078125,-1.7861793601557612,-2.1440910271696745,11.250690285682678,1.3679817914962769,0.9224350452423096,-0.2394016981124878
3.58418798828125,-1.693005694156885,-1.9281779934696848,11.210859795075654,1.1955363750457764,0.872671902179718,-0.1122068539261818
3.594168212890625,-1.6099118158847092,-1.7950731529682873,11.158761359047888,0.9391372203826904,0.8307899236679077,0.0771297812461853
3.60414794921875,-1.6040560755938291,-1.7658413593955338,10.998805774891377,0.6526198387145996,0.7576161026954651,0.3084628582000732
3.614128662109375,-1.7001102654650806,-1.8600591276198624,10.88829606642723,0.3798588514328003,0.6266988515853882,0.5510409474372864
3.624108642578125,-1.8225695010505616,-1.888173899861425,10.66899163672328,0.1586260944604873,0.4633274376392364,0.7842113375663757
3.634088623046875,-1.9920218123488127,-1.8155891406439244,10.48120345826745,0.0111288670450448,0.2836806178092956,0.9945939779281616
3.644068603515625,-2.13178128843382,-1.7183131538927554,10.279551589632034,-0.0509128421545028,0.1273772716522216,1.1824358701705933
3.654049560546875,-2.2432792772829533,-1.7226671113185583,10.131613775527477,-0.0466904006898403,-0.0313729681074619,1.3459703922271729
3.66402978515625,-2.3470934336312115,-1.8958967491984369,10.028114822608233,-0.0075295059941709,-0.1820130497217178,1.4678581953048706
3.674009765625,-2.440806905595213,-2.0672519715085627,9.68425053177774,0.0797140523791313,-0.2973079681396484,1.549809813499451
3.683989501953125,-2.495980949676037,-2.1224615252941845,9.35488764450848,0.1998297274112701,-0.3672463595867157,1.5752019882202148
3.693970458984375,-2.5073031386792657,-2.063711084031313,9.095327192261816,0.3453043699264526,-0.3404565751552582,1.5505470037460327
3.703950439453125,-2.539285546134412,-1.9495159650526936,8.695499606668948,0.5179371237754822,-0.2752992212772369,1.4640541076660156
3.713930908203125,-2.389898702265322,-1.7666702114351094,8.27736304192543,0.7071174383163452,-0.2171930521726608,1.3310819864273071
3.72391064453125,-2.250500752969086,-1.6540733214333652,7.78151370742619,0.8699115514755249,-0.2050493210554123,1.191584587097168
3.7338916015625,-2.3085087053015827,-1.5665623573713003,7.1513687152057885,0.9566177129745485,-0.2118837982416153,1.0643579959869385
3.74387158203125,-2.383741494809836,-1.4779432859368622,6.174845988029241,0.9516642093658448,-0.1882005631923675,0.9416086077690125
3.7538515625,-2.220452820707857,-1.413100080756843,5.0088896532773965,0.9008052945137024,-0.0807052701711654,0.8010759949684143
3.76383154296875,-1.7909798923052846,-1.4797678710155189,3.75539415128231,0.8809725642204285,0.1000152230262756,0.5964788198471069
3.7738125,-1.2862334039926528,-1.5400236022748053,2.439026305788756,0.9352611303329468,0.3717348873615265,0.327316552400589
3.783792724609375,-0.8774735932730138,-1.6071350446477533,1.312158118844032,1.085936427116394,0.5647612810134888,0.083597332239151
3.793772705078125,-0.5100922332547605,-1.4190164651937782,-0.0563794743478298,1.2909108400344849,0.6236544251441956,-0.0355929769575595
3.80375390625,-0.356242126366496,-0.6187031223602593,-2.077532250243425,1.4608875513076782,0.5561273694038391,0.0031803324818611
3.813733642578125,-0.6946482979215681,1.0156436082094906,-4.225266748481989,1.4805957078933716,0.1483974158763885,0.154296338558197
3.823713623046875,-1.2027817983239888,3.005567133104801,-6.231334183448553,1.1734559535980225,-0.7049457430839539,0.3327689170837402
3.833693603515625,-1.320700029478967,4.495856544265151,-8.384800503337383,0.3529943227767944,-1.7402507066726685,0.4757316708564758
3.84367431640625,-0.7421962310381234,5.470018387529254,-11.5259241078794,-1.0508261919021606,-2.60390853881836,0.4342884421348572
3.853654541015625,0.8588071789868176,5.585038851416111,-15.727392632144689,-2.7915892601013184,-2.8275070190429688,0.1428541988134384
3.863634765625,3.723877900034189,4.48799677067548,-20.110068787431715,-4.263530731201172,-2.0052058696746826,-0.3129656314849853
3.87361474609375,6.354238678583503,2.6828584430277345,-23.266947594988345,-4.649681568145752,-0.5515616536140442,-0.7643352150917053
3.883595703125,7.181047814154624,1.6929289756588637,-24.15220365883112,-3.654581069946289,0.8001784086227417,-1.0629080533981323
3.893575439453125,6.343411579620838,2.678326352556049,-22.526449546170237,-1.7609587907791138,1.4914528131484983,-1.0838359594345093
3.903555419921875,4.664164946225285,4.250332508416474,-20.18511672189236,0.1044409722089767,1.4833632707595823,-0.8887346982955933
3.913535888671875,2.9617350056409832,4.864337682218849,-18.319764748561383,1.1694194078445437,1.0240652561187744,-0.5847063660621643
3.9235166015625,1.714419945846498,4.50388699824661,-17.14313387506008,1.3924957513809204,0.3121027946472168,-0.2779715955257416
3.93349658203125,0.9613999768465756,3.759001820385456,-16.026633937394617,1.0687799453735352,-0.4016944169998169,-0.0365906506776809
3.9434765625,0.8391729425817728,2.86608559717834,-13.748042523711918,0.4810779988765716,-0.8856448531150818,0.1420753449201584
3.95345654296875,1.0863156656734645,1.7320649081304669,-10.633359182327984,-0.1734723895788192,-1.0530439615249634,0.2899121940135956
3.963437744140625,1.3522091203339397,0.8664221109699457,-7.509971140962839,-0.7692615985870361,-1.0293530225753784,0.4354317188262939
3.97341748046875,1.3988883077919485,0.6146172412861138,-4.880084409666061,-1.257429599761963,-0.9453998804092408,0.5494421720504761
3.983397705078125,1.3208388534277675,0.7106727463316171,-2.7197967193245884,-1.6869040727615356,-0.814800500869751,0.6336292624473572
3.993377685546875,1.1757962493080645,0.6432147555433213,-1.024697852280736,-2.086416006088257,-0.6904457807540894,0.6627176403999329
4.00335888671875,1.0463133986961095,0.2639597831841558,0.2279974392473697,-2.4534904956817627,-0.5992603302001953,0.6277740001678467
4.013338623046875,0.9755337161391971,-0.2983984977502376,1.0101806666284798,-2.7083890438079834,-0.4942623078823089,0.5465667843818665
4.023318603515625,0.7856585022762418,-1.1301507888119666,1.4318050734877583,-2.7094898223876958,-0.3343909382820129,0.4175000488758087
4.033298583984375,0.4486206964649259,-2.1519214285343886,2.0498650756388903,-2.3879587650299072,-0.1218469887971878,0.2286947071552276
4.043279541015625,0.0740296242635697,-2.94379222945422,3.004472323605418,-1.7717797756195068,0.0796853378415107,-0.0340436026453971
4.053259521484375,-0.2380556727293878,-3.2501597333222625,4.214660598793626,-0.9918643236160278,0.1894131600856781,-0.3299402296543121
4.06323974609375,-0.4104983980152756,-3.37139074228704,5.282880197414755,-0.2157386392354965,0.2511234581470489,-0.5920934081077576
4.0732197265625,-0.4294975513871759,-3.653074763536453,6.247222072932124,0.4102783799171448,0.2636107504367828,-0.7755143642425537
4.08320068359375,-0.3481660066124051,-3.932450507843494,7.067426695671677,0.8429960608482361,0.2851822972297668,-0.8818249702453613
4.093180419921875,-0.1594490959390997,-3.946692968207597,7.677331448417902,1.1225255727767944,0.3358979523181915,-0.8959082961082458
4.10316064453125,-0.0136911100916564,-3.769612061727047,8.412696810522675,1.2849340438842771,0.3633571863174438,-0.8349441885948181
4.1131416015625,0.1246523617155849,-3.5087831969797607,9.144100283259151,1.349704027175903,0.3631097972393036,-0.7178944945335388
4.12312158203125,0.2711198110066354,-3.2834055848419665,9.799790051102638,1.312455415725708,0.3314356803894043,-0.5591007471084595
4.1331015625,0.2895009786106646,-3.052807315446436,10.28979708931446,1.1799240112304688,0.2513176798820495,-0.3671997487545013
4.14308154296875,0.1835105011366307,-2.8590584750205275,10.588836149990556,0.9837316274642944,0.1243584603071212,-0.1619192510843277
4.153062744140625,0.0386062095090746,-2.720504867593944,10.698294888097047,0.748863697052002,-0.0647797733545303,0.0449681542813777
4.163042724609375,-0.1597339772950858,-2.6563389771535992,10.698349833154678,0.5012643933296204,-0.2289939224720001,0.2325165718793869
4.1730224609375,-0.3705502723779529,-2.581004042445123,10.592765306133032,0.268651932477951,-0.3042226433753967,0.4168757498264313
4.18300244140625,-0.5749418681755661,-2.4798563288271427,10.549375077217816,0.0671991556882858,-0.309892863035202,0.5671440958976746
4.192983642578125,-0.6463718313347547,-2.365290476839989,10.44403371130228,-0.0620661564171314,-0.3069881498813629,0.6553599834442139
4.2029638671875,-0.5502789168883114,-2.382234305117279,10.341264241701364,-0.126680389046669,-0.2776623368263244,0.6781648993492126
4.212943603515625,-0.493999030457437,-2.581750476898253,10.226246700423957,-0.1425632238388061,-0.2145238518714904,0.6631731986999512
4.222923583984375,-0.5574662711091339,-2.768430109590292,9.985843368589878,-0.1196858659386634,-0.1301345974206924,0.613517701625824
4.232904541015625,-0.678682082504779,-2.807718456144631,9.657981533533334,-0.0554437674582004,-0.0335609130561351,0.5152649283409119
4.242884521484375,-0.8041721371535211,-2.763245108167827,9.330090472382306,0.0361921489238739,0.0918523967266082,0.3779261112213135
4.252864501953125,-0.8911549126230179,-2.718352365735173,9.076502664804458,0.141010969877243,0.2690210342407226,0.2224033772945404
4.2628447265625,-0.9893069515563548,-2.6254052019685505,8.85002848960161,0.2664953768253326,0.4023803472518921,0.0511932745575904
4.27282568359375,-0.9832991625089198,-2.498078798738122,8.567349612095951,0.4219627380371094,0.4780934751033783,-0.1306007504463195
4.2828056640625,-1.0077832500979305,-2.4386146562479434,8.235319551444054,0.5916576981544495,0.5153878331184387,-0.2826388776302337
4.292785400390625,-1.0723097174789755,-2.361110122415423,8.062281198352574,0.7322654128074646,0.4958865344524383,-0.3893179297447204
4.302765625,-1.1377187398482114,-2.155579658780992,7.686581507322192,0.8008148074150085,0.4565123617649078,-0.4574270844459533
4.31274658203125,-1.1186026090331376,-2.058670605646073,7.129168573835492,0.7795214653015137,0.4353090524673462,-0.4791821837425232
4.3227265625,-1.0511328547418115,-2.0462816641941663,6.302953897026181,0.6932017803192139,0.4440643787384033,-0.4613743722438812
4.33270654296875,-0.9291706088930368,-1.963692666704208,5.259723193711042,0.5565347671508789,0.4508924484252929,-0.4316902458667755
4.3426865234375,-0.7478104176580905,-1.6768191139876842,3.942176952087879,0.3956285119056701,0.4858124256134033,-0.3847380876541137
4.352667724609375,-0.668717445590347,-1.2665088589556517,2.438094577896595,0.2652433216571808,0.4939739406108856,-0.3002471923828125
4.362647705078125,-0.8387561784744262,-0.7754924245055764,0.8511310914009809,0.1704775989055633,0.4192430078983307,-0.1415314525365829
4.37262744140625,-1.3363091020211575,0.0680687796304002,-1.1688929727256296,0.1222719848155975,0.1571600288152694,0.1402733325958252
4.382607421875,-2.1983114237874744,1.6420340702019631,-3.759669344383478,0.1285116076469421,-0.3973284661769867,0.506624162197113
4.392588623046875,-2.814362424203753,3.539550091165304,-6.138251410603523,0.0928622707724571,-1.197816014289856,0.9272552728652954
4.40256884765625,-2.94344590023458,5.041269243356585,-8.62503549286723,-0.1853170692920684,-2.0671303272247314,1.3523157835006714
4.412548583984375,-2.7389006482452154,6.714075614571571,-11.486828945809602,-0.9763363599777222,-2.8211352825164795,1.6582424640655518
4.422529541015625,-1.8712766872048376,8.291534190618991,-15.427873094475268,-2.224171638488769,-2.975414276123047,1.6157909631729126
4.432509521484375,-0.1821183161258697,7.767841155904531,-19.995881267237664,-3.396781206130981,-2.2980847358703613,1.1168352365493774
4.44248974609375,1.6083296612598,5.459998513296246,-22.744667934203147,-3.848353385925293,-1.065270185470581,0.3004791438579559
4.452469482421875,2.3186368622146545,3.981491017605364,-23.193279132187364,-3.2996630668640137,0.228500097990036,-0.5888246893882751
4.462450439453125,1.943992233195156,4.417463683290779,-22.489605962419507,-1.9265910387039185,1.1914052963256836,-1.3559099435806274
4.4724306640625,1.1986477672591804,6.055768942227959,-21.22950770115852,-0.2832843065261841,1.6952564716339111,-1.8233345746994016
4.48241064453125,0.5761717387640849,7.0113710464507335,-19.51897920979261,0.943509876728058,1.856589674949646,-1.9488718509674072
4.492390380859375,0.2062150848977267,6.238031050738692,-17.672275822830198,1.510311484336853,1.7023450136184692,-1.8256962299346924
4.50237158203125,0.0650827860895544,5.015886380296945,-16.098770952844617,1.5449403524398804,1.2949376106262207,-1.5438817739486694
4.5123515625,0.0720994599185883,4.210376637864113,-14.10977623323202,1.2423202991485596,0.7369241714477539,-1.196926236152649
4.52233154296875,0.1446167799230664,3.405122331497073,-11.793089189910887,0.7390561699867249,0.1635522842407226,-0.8320953845977783
4.5323115234375,0.2993557254098355,2.585013862608373,-9.524760811567306,0.1589813530445099,-0.2976001501083374,-0.4789463877677917
4.542292724609375,0.4776232113264501,1.835853053254634,-7.451865573474764,-0.3915235996246338,-0.6553436517715454,-0.1590603739023208
4.552272705078125,0.4943666947260499,1.300707335025072,-5.596209649249911,-0.874476969242096,-0.990710973739624,0.0691397786140441
4.562252685546875,0.6076690295834094,0.99237452243343,-4.095819699835777,-1.2860137224197388,-1.18005108833313,0.1862832009792328
4.572232421875,0.9740477153651416,0.3949760539084673,-2.609242002674937,-1.6504409313201904,-1.2217272520065308,0.1969137489795684
4.58221337890625,1.392396607685089,-0.4114550411529838,-1.3818664458423853,-1.977300047874451,-1.1480906009674072,0.1231675744056701
4.592193603515625,1.7497843969553708,-1.2785155230917036,-0.511554268631339,-2.2508411407470703,-0.8877218961715698,0.0208886098116636
4.602173828125,1.859868427353352,-2.118033918110281,0.1476087282806635,-2.395035743713379,-0.4886879622936249,-0.0887563601136207
4.612153564453125,1.8145948689095677,-2.902598049278557,0.6613140374660491,-2.308659791946411,-0.0788660794496536,-0.2377730011940002
4.62213525390625,1.853735477556288,-3.835530348792672,1.1623621096521617,-1.9558241367340088,0.2969071865081787,-0.4323602020740509
4.632115478515625,1.7967575989238918,-4.751126021319627,1.848534109520912,-1.3759740591049194,0.6077361702919006,-0.6360544562339783
4.642095458984375,1.593239936416596,-5.3515492444932455,2.7468022151499984,-0.6768672466278076,0.8167204260826111,-0.7854714393615723
4.65207666015625,1.1666055924408136,-5.654837779307365,4.30096350224018,-0.0058204624801874,0.9374146461486816,-0.8449525833129883
4.6620576171875,0.9931444838926196,-5.78603137935996,4.8544881961166855,0.5451793670654297,0.9462265968322754,-0.829176664352417
4.672037353515625,0.9222820184230804,-5.786971290558577,5.324630842429399,0.9293419718742372,0.8808169364929199,-0.7479012608528137
4.682017333984375,0.9105082862600684,-5.779262615877389,5.900587732866407,1.1606987714767456,0.8160660266876221,-0.6082460284233093
4.69199853515625,0.8869291846867651,-5.757057213810086,6.575878273236751,1.2853903770446775,0.7664753198623657,-0.4327636659145355
4.701978515625,0.7666849217370152,-5.570985776144266,7.224723289752006,1.3299530744552612,0.7474344372749329,-0.2198585867881775
4.71195849609375,0.6387317649103701,-5.1987306726098055,7.784993950757384,1.3265680074691772,0.7463396191596985,0.0032155136577785
4.7219384765625,0.5020818722132593,-4.777251811701059,8.253763555151224,1.307464361190796,0.724287748336792,0.215406596660614
4.73191943359375,0.2831725793067365,-4.3815164638578885,8.671580386421084,1.2741283178329468,0.6579023003578186,0.3978184759616852
4.741899658203125,0.0468282405398786,-4.048756335365772,9.01831351068616,1.2287044525146484,0.5685051679611206,0.5393300652503967
4.75187939453125,-0.1506711845912039,-3.8216613979160794,9.323176747471091,1.1617435216903689,0.4773677885532379,0.6457926034927368
4.761859375,-0.287861833101511,-3.639907531188429,9.550871404379606,1.081171631813049,0.4122788310050964,0.70754075050354
4.77184033203125,-0.3712741296730935,-3.464552425587177,9.721372932469844,0.9938039779663086,0.3873415291309356,0.7339694499969482
4.781820556640625,-0.4462308787189424,-3.2628885742530227,9.832726690542698,0.920279026031494,0.3917064666748047,0.7179614901542664
4.791800537109375,-0.4999275437235831,-3.054719578808546,9.880824658757447,0.8689759373664856,0.4291225671768188,0.673535943031311
4.801780517578125,-0.5549428901113569,-2.952698881748318,9.8094837621212,0.8535233736038208,0.4764111042022705,0.6063215732574463
4.811761474609375,-0.6363716116502881,-2.864907785570621,9.732369542780518,0.8744359016418457,0.5240369439125061,0.5129048228263855
4.821741455078125,-0.6373758202567696,-2.665859961953759,9.70478127863109,0.9405724406242372,0.5673133134841919,0.3934122622013092
4.83172119140625,-0.5801588721714913,-2.477171619787812,9.609902270019054,1.0248873233795166,0.5936375856399536,0.2590171694755554
4.841701416015625,-0.4116109623670578,-2.307298744989932,9.375862627997996,1.1077792644500732,0.5840886831283569,0.1023578196763992
4.8516826171875,-0.0856885709404945,-2.0888111846268176,8.878730267950893,1.156515121459961,0.5618014931678772,-0.0591756850481033
4.86166259765625,0.3182604784965515,-1.7627862096086144,8.35481453039646,1.146990418434143,0.6344813108444214,-0.2236161828041076
4.871642333984375,0.8814549179941416,-1.4432054422937333,7.899181470951437,1.097025990486145,0.7584215998649597,-0.4105075299739837
4.881622314453125,1.5198393307715654,-1.2093627841494976,7.449938404804468,1.0296070575714111,0.8800361752510071,-0.6482635736465454
4.891603515625,2.2565964394956826,-1.0193817718245088,6.859056332436204,0.9112026691436768,1.071388602256775,-0.9368285536766052
4.90158349609375,2.9066917483329773,-0.847043675956875,5.846487893888354,0.7031704783439636,1.350105881690979,-1.250160813331604
4.9115634765625,3.4709254677504298,-0.6856724528487771,4.213262422433496,0.3997754156589508,1.6493501663208008,-1.556517243385315
4.92154345703125,3.799442551845312,-0.8359538344047963,2.06627728125751,0.0727055147290229,1.9622386693954468,-1.7807587385177612
4.9315244140625,3.8353967855408784,-1.249826165832579,-0.1173538752704858,-0.1593157351016998,2.1634764671325684,-1.843067407608032
4.941504638671875,3.171730339729786,-0.9222392021946608,-2.568250651594996,-0.1974380016326904,2.2314131259918213,-1.6678411960601809
4.951484375,1.969500622330606,0.600495557757467,-4.931189158481359,-0.0009686294361017,1.8607590198516848,-1.1901912689208984
4.96146435546875,0.7389028885811567,2.142763139566779,-7.870675507435202,0.1904237121343612,0.8085426688194275,-0.3536776304244995
4.9714453125,-1.0005956766813993,2.897040707412362,-12.214327227801084,0.0127857998013496,-0.5764195919036865,0.8726462721824646
4.981425537109375,-2.264725093154609,4.439221049329638,-18.145899881517884,-0.7964529991149902,-2.2577147483825684,2.0427372455596924
4.991405517578125,-0.8091203341454267,6.347984294363856,-25.05962011655569,-2.209463119506836,-3.573295831680298,2.612891912460327
5.001385498046875,1.6177520079910754,6.640678369927406,-28.775444473993776,-3.4622631072998047,-3.5316567420959477,2.395993232727051
5.011366455078125,3.2602944661065933,6.418424442768097,-26.65392227537632,-3.665327310562134,-2.3415210247039795,1.5555001497268677
5.021346435546875,3.56742009486556,6.88297204555273,-22.63190197124481,-2.6136882305145264,-0.744890034198761,0.5500677824020386
5.031326171875,2.684959799221158,7.527603243765235,-18.532722439587115,-0.7693947553634644,0.6169474720954895,-0.2873216867446899
5.041306640625,1.5807522107653318,7.272173607712983,-15.456133558797836,0.9681637287139891,1.3908478021621704,-0.762001097202301
5.05128759765625,0.5383041822604835,6.077801910337805,-13.776701631963252,1.9174169301986692,1.5986905097961426,-0.850694477558136
5.061267578125,-0.2602523800335824,4.742255901643634,-12.32339784337282,2.107842445373535,1.2694711685180664,-0.6312863230705261
5.071247314453125,-0.9598027707830072,3.7886049314886328,-10.387704505836965,1.7610129117965698,0.6467508673667908,-0.2153546512126922
5.081227294921875,-1.7256112019464374,3.188886057192087,-7.979231743744015,1.119412541389465,-0.0978723168373107,0.2455603629350662
5.09120849609375,-1.9275154379077253,2.6030834800451994,-5.56832912415564,0.3566845655441284,-0.8143166899681091,0.6021994352340698
5.1011884765625,-1.553385626542568,1.975058256457746,-3.242580822500586,-0.4010554850101471,-1.3141299486160278,0.8228686451911926
5.11116845703125,-0.9696421738825738,1.4417331777840852,-0.9247586376696824,-1.0405446290969849,-1.4783269166946411,0.974748969078064
5.1211484375,-0.4675137591138482,1.060674151677638,1.0393132376104592,-1.5540345907211304,-1.40280282497406,1.099798321723938
5.131129638671875,-0.1859998337343335,0.6330022082824259,2.108439429682493,-1.9661544561386108,-1.299992561340332,1.1902797222137451
5.141109619140625,-0.0803492557391524,-0.0859231103487312,2.563308519017696,-2.2479867935180664,-1.2070320844650269,1.228967308998108
5.15108935546875,-0.2190282431110739,-0.98686818010211,3.0657401545166967,-2.355165958404541,-1.1307106018066406,1.226872444152832
5.1610703125,-0.5397590572439134,-1.8337696711093183,3.230249748715758,-2.284043550491333,-1.0451833009719849,1.173483967781067
5.17105029296875,-0.8366393324509263,-2.37816237950325,3.635536184236407,-2.0030550956726074,-0.9344426393508912,1.0334984064102173
5.181030517578125,-0.9618198096938432,-2.616525145420432,4.293315617835521,-1.53942608833313,-0.8496647477149963,0.8220841288566589
5.1910107421875,-1.055442973025888,-2.8038869151577352,4.958483992642164,-0.9834540486335754,-0.7800214886665344,0.6044868230819702
5.200991455078125,-1.197556611021608,-3.117549836730957,5.608100578051805,-0.4365202784538269,-0.6552591323852539,0.4423401355743408
5.210971435546875,-1.1415836716480552,-3.5638521732509134,6.217914729905128,0.0322621166706085,-0.5740900039672852,0.325878769159317
5.220951416015625,-0.8011091693863273,-4.019512120702863,6.822417331346869,0.4087749421596527,-0.578588604927063,0.2438040077686309
5.23093115234375,-0.5944052049931139,-4.314858756601811,7.618610379379987,0.6858747005462646,-0.5816274881362915,0.2246566861867904
5.240912353515625,-0.5314944291803986,-4.318640613228083,8.313743684339522,0.8722193241119385,-0.559964120388031,0.2797622978687286
5.250892578125,-0.5153811334431171,-4.050020656213164,8.776500896576046,0.9594665765762328,-0.5381355285644531,0.3743205070495605
5.26087255859375,-0.5354775074671954,-3.6973937977343794,9.13757877253592,0.9589157104492188,-0.546974778175354,0.4896072447299957
5.270852294921875,-0.6023498073220253,-3.416604971759021,9.445303243970873,0.8882465958595276,-0.5720646381378174,0.6014394760131836
5.28083349609375,-0.6827722744278609,-3.214443692296743,9.68874375154376,0.7618716955184937,-0.6042464375495911,0.6824975609779358
5.2908134765625,-0.7483586991906166,-3.045587593325972,9.819303729867936,0.5936254262924194,-0.6402632594108582,0.7320688366889954
5.30079345703125,-0.7942126148056239,-2.891410592570901,9.708049925038218,0.3917498886585235,-0.6934598088264465,0.7344593405723572
5.310773681640625,-0.8895810874350368,-2.7932898255586625,9.451407990586755,0.2160164266824722,-0.7168223857879639,0.6922146677970886
5.32075439453125,-1.0029852752316744,-2.730602190977335,9.429068733006716,0.1112968474626541,-0.6998119950294495,0.6086921095848083
5.330734619140625,-1.057704634347558,-2.586386612266302,9.392529100638628,0.0770131722092628,-0.6337451338768005,0.4923942685127258
5.340714599609375,-1.0666781413327902,-2.378987724411488,9.225858529013395,0.0875142887234687,-0.4785494208335876,0.3455771207809448
5.350694580078125,-0.9046011080428956,-2.253919913762808,9.011506168758867,0.1313472539186477,-0.309434175491333,0.1711640357971191
5.36067529296875,-0.6996588195599616,-2.311812423022092,8.801931105908752,0.2099568396806717,-0.137658417224884,-0.0407636687159538
5.3706552734375,-0.6186136905111372,-2.39064499058798,8.585506031033397,0.3095318973064422,0.012764910236001,-0.2468960583209991
5.3806357421875,-0.6151648652315139,-2.3741597197331488,8.21645060032308,0.4149202704429626,0.1247884929180145,-0.4151235818862915
5.39061572265625,-0.6091830874081701,-2.27327884035781,7.791568068450688,0.5141629576683044,0.2106208503246307,-0.5280977487564087
5.400596435546875,-0.5890057205697521,-2.1791854291655124,7.399218855914473,0.6035681366920471,0.269928514957428,-0.5838682651519775
5.410576416015625,-0.630104221818596,-2.054823574829101,6.938850000119209,0.6687463521957397,0.2806461155414581,-0.5757006406784058
5.420556396484375,-0.5651372441284358,-1.877260730050504,6.259893922978639,0.6959589719772339,0.2241484373807907,-0.546260416507721
5.430536376953125,-0.2953531387049705,-1.8341367508560416,5.324079638287425,0.6648183465003967,0.1591800898313522,-0.5230504274368286
5.440517333984375,0.0049004123274236,-1.8968495198786255,4.299499274906516,0.609294593334198,0.1269723773002624,-0.5025318264961243
5.45049755859375,0.1792844809394329,-1.8120760179564357,3.263709535247087,0.5563927292823792,0.2252297103404998,-0.4513906240463257
5.4604775390625,0.4533865226272493,-1.3244485683575271,2.0719500661969183,0.5386124849319458,0.4094943106174469,-0.3768246173858642
5.47045849609375,0.7620374612573534,-0.6585564093209803,0.3139689187824726,0.5396439433097839,0.6058170199394226,-0.2996901571750641
5.4804384765625,0.9270241714488714,-0.267744781615585,-1.5665987438589333,0.6286360621452332,0.7249834537506104,-0.2130443900823593
5.49041845703125,0.435063880277425,-0.0164914813999086,-3.396682419931889,0.8390438556671143,0.7978249192237854,-0.0724920630455017
5.5003984375,-0.6865010856926441,1.279444474504888,-5.635882318946718,1.1227105855941772,0.6949427723884583,0.1628665477037429
5.51037939453125,-2.140577319960296,3.853413503746688,-8.492520873343944,1.3499575853347778,0.248571366071701,0.4485022723674774
5.520359375,-3.4873940797314047,6.921543476009369,-11.542501148670912,1.3799278736114502,-0.5963723659515381,0.6139633059501648
5.530339599609375,-3.694380002871156,9.178040546783803,-14.4474919383049,1.038801670074463,-1.5786739587783811,0.5644317269325256
5.540319580078125,-2.624947521328926,9.909365693587064,-17.34420239084959,0.1799091100692749,-2.21944522857666,0.3078477084636688
5.550300537109375,-0.6975945074412971,9.567104161778092,-20.498228731584547,-1.2371435165405271,-2.204272985458374,-0.1693156510591507
5.5602802734375,1.3691931344911454,8.360384439483285,-23.789765015912053,-2.975775718688965,-1.4097431898117063,-0.7986828088760376
5.57026025390625,2.648888661147654,6.186348794296383,-25.70803960113525,-4.3311262130737305,-0.1551802605390548,-1.497216820716858
5.580240478515625,3.0000135906308887,4.481054111930728,-25.820866354370114,-4.649209022521973,1.226454734802246,-2.2311275005340576
5.590221435546875,3.1199393622159954,4.48211443463862,-23.84722585575581,-3.6605336666107178,2.233106851577759,-2.8521831035614014
5.600201416015625,3.100896808093786,4.57879493971467,-20.46125421493053,-1.8020190000534055,2.7922184467315674,-3.080538749694824
5.610181396484375,2.8181796444043514,3.1699756050169468,-17.169679352158308,0.0998881384730339,2.8781681060791016,-2.8648247718811035
5.620160400390625,2.9287241319209336,1.3073461885176598,-14.951462035417556,1.356961011886597,2.568938732147217,-2.398332357406616
5.6301416015625,3.1130402503520247,0.1979742030359804,-12.96638010533452,1.8971604108810425,1.990911602973938,-1.8316214084625244
5.64012158203125,3.143832278978824,-0.5677563405856489,-10.42404189363122,1.932109832763672,1.250255107879639,-1.1826353073120115
5.6501015625,2.976404166984558,-1.210296119476855,-7.6372607193142175,1.6404173374176023,0.5527756214141846,-0.4783759117126465
5.66008154296875,2.8050205953627825,-1.6286211925297975,-5.135745516386628,1.1459707021713257,-0.0407752096652984,0.1970879882574081
5.6700625,2.767890011364221,-1.9817080697357652,-3.0809985139250755,0.5522667169570923,-0.4651552438735962,0.78499835729599
5.680042236328125,2.713053674805164,-2.345579814197868,-1.1599492032915353,-0.0189435482025146,-0.6884554624557495,1.2529011964797974
5.6900224609375,2.609178874310851,-2.6725755339443684,0.754769735276699,-0.4683040678501129,-0.7640649676322937,1.61464524269104
5.700002685546875,2.313633354838937,-2.976265635296702,2.588227271696925,-0.7560965418815613,-0.714711606502533,1.9060693979263303
5.709983642578125,1.8047993049517272,-3.1717113427683707,4.287404932487011,-0.8589438199996948,-0.6096834540367126,2.1241397857666016
5.71996337890625,1.2143282976023853,-3.246650848418474,5.765965911930799,-0.8086236119270325,-0.5096286535263062,2.248417854309082
5.729943359375,0.5890620173342526,-3.182386173778772,6.981766181781888,-0.6247488260269165,-0.4457484781742096,2.2378008365631104
5.739923583984375,0.0250641524992883,-3.246278507974744,8.298495846325158,-0.3003743290901184,-0.407594621181488,2.081702709197998
5.749904541015625,-0.4397459006138146,-3.417826622508466,9.744912213489412,0.1258235722780227,-0.394258052110672,1.7747694253921509
5.75988427734375,-0.7275898327324539,-3.437312536484003,10.966519123792647,0.5773687362670898,-0.3910310566425323,1.3508297204971311
5.769864501953125,-0.8574152131717652,-3.311305106897652,11.766046869206429,0.9593664407730104,-0.3855537176132202,0.8874069452285767
5.779844482421875,-0.8946685467671602,-3.1086393850445746,12.16737726057768,1.2126792669296265,-0.3453998267650604,0.4493734538555145
5.78982568359375,-0.8329755492463707,-2.9919051029771566,12.493346413755416,1.339574098587036,-0.2258558422327041,0.0895966365933418
5.799805419921875,-0.6703552028600126,-2.948577417904138,12.734251265370846,1.3717882633209229,-0.064057782292366,-0.1707831919193267
5.809785400390625,-0.4618333023246377,-2.892486405108869,13.012018405437468,1.3552223443984983,0.0962304323911666,-0.3423224687576294
5.819765380859375,-0.3760477738156914,-2.6735154451429843,13.258653909659383,1.3099838495254517,0.2759445607662201,-0.4336577951908111
5.82974658203125,-0.3998263434838503,-2.262894370596111,13.368541686832904,1.2340408563613892,0.4665621817111969,-0.4333896338939667
5.8397265625,-0.4022122887723147,-1.9247490419343112,13.280574649566413,1.130350112915039,0.5784336924552917,-0.3485996723175049
5.84970654296875,-0.5014855137553066,-1.7451326256267723,13.100496314835548,1.0010278224945068,0.6004838347434998,-0.2099427282810211
5.8596865234375,-0.6906704803317785,-1.524284327481687,12.86895082771778,0.8263047933578491,0.5626474618911743,-0.0409254357218742
5.86966748046875,-0.902213336123526,-1.341886609892547,12.54082361972332,0.5971373915672302,0.4876051545143127,0.1396850943565368
5.8796474609375,-1.0922884564727544,-1.2459249206103384,12.144680275601148,0.3029389679431915,0.413937509059906,0.3173496723175049
5.88962744140625,-1.202548574090004,-1.2121844905067234,11.707788741505146,-0.0308086387813091,0.3461816310882568,0.480966567993164
5.8996083984375,-1.292944445938617,-1.3172386369787157,11.248492483377456,-0.3497469425201416,0.2451129257678985,0.6352421045303345
5.909588623046875,-1.4123647522196172,-1.475278450641781,10.674170500665902,-0.594268798828125,0.1075537502765655,0.7601555585861206
5.919568359375,-1.54834646333158,-1.6305866473838686,10.095154807180164,-0.7514663934707642,-0.0418124869465827,0.8499666452407837
5.929548583984375,-1.632955130080879,-1.7450173286840318,9.500167053058744,-0.8104019165039062,-0.1662950366735458,0.8980830311775208
5.939529541015625,-1.6671918923340736,-1.7539138979755342,8.946840512102842,-0.776351809501648,-0.232417032122612,0.914518654346466
5.949509521484375,-1.6520647580899297,-1.637228861877322,8.359118365070223,-0.6798034310340881,-0.2610420286655426,0.8967295289039612
5.9594892578125,-1.5496869181551038,-1.4678466932058334,7.3786471925288435,-0.562869131565094,-0.2466783225536346,0.837212085723877
5.969469482421875,-1.4225176051825283,-1.3631883411183952,6.429114763608575,-0.413870096206665,-0.1565510928630828,0.7396008372306824
5.979450439453125,-1.2343258143618705,-1.1173893607858567,5.550805157902836,-0.2533749639987945,-0.0554789192974567,0.588810920715332
5.9894306640625,-1.0713292550742626,-0.8207754814300685,4.132788371270895,-0.1606828272342682,0.0933806002140045,0.3995518088340759
5.999410400390625,-0.8824068118914962,-0.9018152036514132,2.6867957824766635,-0.0998894348740577,0.3007323443889618,0.1849709004163742
6.009390380859375,-0.4962148068107664,-1.3783750965952872,1.0900380471974611,-0.0747561231255531,0.4473777115345001,-0.0534624420106411
6.019371337890625,-0.2220480293236672,-1.5480208846390249,-1.1907377247869968,-0.1041883006691932,0.5459449291229248,-0.2542632818222046
6.0293515625,-0.0617826485656201,-1.0846723554458468,-4.465123552349209,-0.2188192754983902,0.5640174150466919,-0.3284909129142761
6.03933154296875,-0.1954138510286807,0.2491295860599726,-8.460893562936782,-0.3851301670074463,0.489308089017868,-0.1995380073785781
6.0493115234375,-0.7304629770159721,2.7786826235353943,-12.213796481925248,-0.517552375793457,0.2059903591871261,0.0787692442536354
6.05929248046875,-1.2600675738617777,5.906350534176826,-15.702667356210949,-0.6262675523757935,-0.5055690407752991,0.3122885525226593
6.0692724609375,-0.928554815082252,8.500370417800545,-19.338674080568552,-0.931592583656311,-1.586509108543396,0.3434201180934906
6.07925244140625,0.7754778845235705,10.229661477303504,-24.491544334757325,-1.8100149631500244,-2.6984212398529053,0.164857804775238
6.089232421875,3.0452368801921605,10.903603525674342,-31.155093877184388,-3.1297261714935303,-3.040915012359619,-0.1055358722805976
6.09921337890625,4.338567841230333,10.033818587207794,-33.3090827596426,-3.888485908508301,-2.133675098419189,-0.4282718300819397
6.109193603515625,5.097988324922323,8.902136277979611,-29.628647695493697,-3.3880391120910645,-0.7459740042686462,-0.871980607509613
6.11917333984375,5.578896695399284,8.632344939097761,-24.752091459953785,-1.8218498229980469,0.5243320465087891,-1.2785499095916748
6.129153564453125,5.107942732703686,8.253264373457432,-20.320309620714188,0.1215924397110939,1.6040353775024414,-1.3623135089874268
6.139134521484375,4.188782937954366,6.753167269510031,-16.862998252296446,1.6367006301879885,2.3087103366851807,-1.1380923986434937
6.149114501953125,3.3908781175673006,5.2357274010956285,-14.390892683726548,2.41325044631958,2.5652501583099365,-0.8074356913566589
6.15909423828125,2.486847502888739,4.314852326861024,-11.83198795262575,2.612926721572876,2.3271353244781494,-0.4734430313110351
6.169074462890625,1.5491789686329662,3.4563211883366107,-9.166276459231971,2.424497604370117,1.7268836498260498,-0.1369377374649047
6.179055419921875,0.6929806569702923,2.546200732350349,-6.47959056687057,1.9923957586288448,0.9668949842453004,0.2018364369869232
6.18903564453125,0.1303619715340435,1.56715973874256,-3.957559230136871,1.4314669370651243,0.2013711631298065,0.5284302234649658
6.199015380859375,-0.1144970245346427,0.6139088007558137,-1.6498428442567583,0.832979142665863,-0.4650822579860687,0.8290248513221741
6.208995361328125,-0.122396545612812,-0.1786748246084898,0.4409375946164131,0.269842267036438,-0.9598568081855774,1.0767230987548828
6.2189765625,0.0063217503674328,-0.7743325138807297,2.283727607527375,-0.1949840784072876,-1.2664580345153809,1.262101173400879
6.22895654296875,0.1759714839339256,-1.1381683833118528,3.838654618293047,-0.5615277290344238,-1.3651057481765747,1.371699571609497
6.238936279296875,0.3262171365894377,-1.3364628312781452,5.076986453425884,-0.8290663957595825,-1.2729612588882446,1.404378056526184
6.24891650390625,0.4746450722984969,-1.5544028407610953,6.101169926443696,-1.0159435272216797,-1.0422234535217283,1.3561716079711914
6.2588974609375,0.5101574074454606,-1.8080089146479963,6.94636344448924,-1.1246148347854614,-0.700442373752594,1.2378017902374268
6.26887744140625,0.3940630307167768,-2.153742798742652,7.691480969801544,-1.1741255521774292,-0.2418220788240432,1.0864064693450928
6.278857421875,0.0703662063851952,-2.535268419447541,8.387823650550843,-1.167626976966858,0.3258704841136932,0.9363039135932922
6.28883740234375,-0.1929590052224695,-2.899924153894186,9.07366364198625,-1.069247126579285,0.8184794187545776,0.7594159841537476
6.298818359375,-0.4959064715139568,-3.3387960481524463,9.71968191064298,-0.8859325051307678,1.1869256496429443,0.561005711555481
6.30879833984375,-0.9320800665989516,-3.743687931397557,10.231184741348027,-0.65422523021698,1.4258381128311155,0.3692597448825836
6.3187783203125,-1.4410643386118114,-4.011082438270748,10.499818142366408,-0.4204406440258026,1.5084527730941772,0.2061251699924469
6.328758544921875,-1.9284689392402767,-4.1288434330374,10.51341295247674,-0.2053477764129638,1.434237718582153,0.0848386883735656
6.338739501953125,-2.3487505531884727,-4.223810704454779,10.398796393215656,-0.0249871313571929,1.247300624847412,0.0113915633410215
6.348719482421875,-2.670479438447952,-4.366674284034967,10.359617059993743,0.119830772280693,0.9973385334014891,-0.0211171116679906
6.35869921875,-2.85760009290576,-4.469003608652949,10.324234780967236,0.247762992978096,0.7207704782485962,-0.0148643907159566
6.368679443359375,-2.946637097491324,-4.433647048589587,10.265348876756429,0.3633423447608948,0.4236069619655609,0.0118162222206592
6.378660400390625,-2.911051697108149,-4.28331415604204,10.217371320050956,0.4730139374732971,0.1606835573911667,0.0421772934496402
6.388640625,-2.8385978707939383,-3.9775487097203728,10.207322219723462,0.5679945349693298,-0.0295614786446094,0.0741434767842292
6.398620361328125,-2.726845468792319,-3.6540845251008864,10.191648849773406,0.6520986557006836,-0.1781072467565536,0.0956083014607429
6.408601318359375,-2.51768307839632,-3.384071067900956,10.099801756203174,0.7219089269638062,-0.3163575232028961,0.0907291248440742
6.41858154296875,-2.3463078362114724,-3.1345871885105967,9.994746806013584,0.7751591205596924,-0.4030308425426483,0.0459850989282131
6.4285615234375,-2.1907387965761123,-2.8654984449401497,9.942671750861406,0.7927623391151428,-0.4216780066490173,-0.0251537896692752
6.438541259765625,-2.111426336538792,-2.626038823696971,9.870454071390627,0.7939072847366333,-0.3900344371795654,-0.1015864163637161
6.448522216796875,-2.0034353328973054,-2.450596916595101,9.737595752996206,0.7819100022315979,-0.3480057716369629,-0.1837752908468246
6.45850244140625,-1.915959878540039,-2.4091626440532505,9.453951245328785,0.7624190449714661,-0.2782354354858398,-0.2677927017211914
6.468482666015625,-1.868945613908768,-2.42379951056242,9.09710647689402,0.7812054753303528,-0.1679121255874633,-0.362041175365448
6.478462646484375,-1.814450930394232,-2.245154715766013,9.00803469325602,0.8593719601631165,-0.0299584437161684,-0.4681637287139892
6.488443359375,-1.8227303907006975,-1.7402169426649807,8.673780526813864,0.9552833437919616,0.0770010352134704,-0.5685049295425415
6.49842333984375,-1.8537986059203744,-1.1721106926631182,8.112529622599482,1.037848711013794,0.1941966414451599,-0.6583930850028992
6.5084033203125,-1.6790213002070784,-0.7963445853330194,7.579965299165249,1.0834330320358276,0.3054075837135315,-0.7167834043502808
6.5183837890625,-1.398412068582326,-0.5893261481631547,6.7658087244182825,1.0675841569900513,0.3341748416423797,-0.7480093836784363
6.528364501953125,-0.9648528937794268,-0.2929178013168275,5.702521321502328,0.9526716470718384,0.2625270187854767,-0.7430457472801208
6.538344482421875,-0.3590424246095121,0.0418475660504773,4.264614424008131,0.6819623112678528,0.1532041877508163,-0.6568228006362915
6.548324462890625,0.2442291737325489,0.3230580515040084,2.286359125074744,0.2119340747594833,0.1189005374908447,-0.4613071382045746
6.55830419921875,0.9555718552149832,0.6433000957392155,-0.5386714081376791,-0.4602576494216919,0.1583987772464752,-0.1846039295196533
6.568285400390625,1.954566234179586,1.0942057613361629,-4.687684938022494,-1.2956117391586304,0.2514208555221557,0.1065432280302047
6.578265380859375,2.7333856842160222,1.8803820769414303,-9.338378992778065,-2.0798068046569824,0.3669134378433227,0.417518138885498
6.58824560546875,3.015494945140183,2.813770303529501,-12.576810294383764,-2.3352513313293457,0.4109141826629638,0.7192907929420471
6.5982255859375,3.0368744177773594,3.670153908631205,-12.703485540229082,-1.794162034988403,0.213531881570816,0.9634209275245668
6.608206298828125,2.890588170272112,4.771567336323857,-12.35445232232809,-0.7699318528175354,-0.3692553639411926,1.141429781913757
6.618187255859375,2.851227050742507,6.29316373989582,-13.899222096216675,0.0518450625240802,-1.0342237949371338,1.2138465642929075
6.628167236328125,3.1817312170013783,7.6746268656343215,-17.237625345659254,0.1009249910712242,-1.46570885181427,1.1788169145584106
6.6381474609375,3.7030242048367854,7.991434807235002,-20.975469811725617,-0.5669318437576294,-1.573777675628662,1.0509427785873413
6.64812841796875,3.900823781958222,6.949228770792484,-22.97776824954748,-1.3314975500106812,-1.245408296585083,0.8455736637115479
6.658108154296875,3.3826161929175256,5.650903362467885,-21.47636999987364,-1.2373325824737549,-0.2243770062923431,0.3532997369766235
6.66808837890625,2.298927514746785,4.9688423050493,-19.19451344691515,-0.3306196928024292,0.557942271232605,-0.3737706542015075
6.678068359375,1.3883578536882997,4.477983033922315,-16.422228999984263,0.8780314922332764,1.3229005336761477,-0.9706103205680848
6.688049560546875,0.5460853376559913,4.40928417622745,-14.084782077229022,1.801643133163452,1.7046103477478027,-1.310118556022644
6.698029296875,0.2087741217307746,4.173226472382248,-11.881751808226108,2.2568068504333496,1.740694880485535,-1.4277620315551758
6.70800927734375,-0.3357629635699093,4.287795393109321,-9.909979441571236,2.314694881439209,1.6021255254745483,-1.3753107786178589
6.7179892578125,-0.0475054091490805,3.4753014908775683,-7.8515335845917456,2.045238256454468,0.9224013686180116,-1.3205418586730957
6.727970458984375,0.4783358896404504,2.369474484526366,-5.278250199526548,1.503239989280701,0.2618220746517181,-1.154611110687256
6.737950439453125,1.0582869642801582,1.4670599267423152,-3.3978777671962974,0.8061029314994812,-0.1477066725492477,-0.8504206538200378
6.747930419921875,1.6460910905078052,1.013009752574563,-2.5585405739635227,0.0634109899401664,-0.2460907697677612,-0.5085525512695312
6.757910400390625,2.2608771855548024,0.6582024813167751,-1.8215204303890469,-0.3856350779533386,-0.6476451754570007,-0.3624675571918487
6.767891357421875,2.3168831504151224,0.3141894296653568,-0.396013580262661,-0.611697256565094,-0.851243257522583,-0.2716920971870422
6.777871337890625,2.0690708574987946,-0.0803380767580121,0.6938403425395488,-0.6946876049041748,-0.8153029084205627,-0.1248686909675598
6.787851318359375,1.8085199329100548,-0.4631906352177262,1.2729250096082687,-0.6964026689529419,-0.6066639423370361,0.0120457559823989
6.79783154296875,1.5516168633043763,-0.7899087801318615,1.6221639792144298,-0.6363350749015808,-0.4823859632015228,0.0787880346179008
6.8078125,1.4265163194298744,-1.062683080347255,2.3608359816491604,-0.5243324041366577,-0.4456660151481628,0.1331623196601867
6.817792236328125,1.2299623584553598,-1.2718120799303054,3.255086668330431,-0.3900652527809143,-0.4700025022029876,0.2328694760799408
6.827772216796875,0.7100776299826801,-1.7364502836078404,4.118556432300806,-0.2659403681755066,-0.4558581709861755,0.3762066662311554
6.83775244140625,0.378935604211688,-2.141927565525472,4.787746317708492,-0.1985120475292205,-0.3125152885913849,0.5005694627761841
6.8477333984375,0.264193080483377,-2.556450323686004,5.049253227847815,-0.1432900726795196,-0.1471391320228576,0.6206958889961243
6.857713134765625,0.54997620761469,-2.936413809640705,5.644780495673418,-0.0067120813764631,-0.1002871692180633,0.7063682079315186
6.867693359375,0.7067958318330347,-3.143664813457429,6.415138845226168,0.1283285617828369,-0.588939368724823,0.7131525874137878
6.87767333984375,-3.6958699491679674,-3.611592706330121,7.77741036376059,-0.0389396250247955,-2.024505853652954,-0.2169959843158722
6.887654541015625,-9.044654405122994,-4.852759764888883,9.990402639329432,-0.32917520403862,-2.802862882614136,-1.1919655799865725
6.89763427734375,-6.058536068853735,-4.512386823305487,9.93382325849533,-0.4900899827480316,-1.92880380153656,-0.8366031050682068
6.9076142578125,-1.0567555169291794,-3.571745556849241,8.241765074321627,-0.1790868639945984,-1.438442349433899,-0.1686860471963882
6.91759423828125,2.661089678812026,-4.201118687914311,9.846733004063369,0.886980414390564,-1.6913950443267822,-0.2736930549144745
6.927575439453125,1.6852343295030294,-4.573948960988223,11.345154868274928,1.7401221990585327,-1.1077760457992554,-0.4990657269954681
6.937555419921875,0.9874456877291202,-3.597150631740689,9.898286665689945,2.140401840209961,-0.3596550226211548,-0.7735726833343506
6.947535400390625,0.2373685307154431,-2.432699879246205,8.484668990799785,2.1886472702026367,0.1879353672266006,-0.8765073418617249
6.957515380859375,-0.7813796559132635,-1.5738563137717545,7.653423334085941,2.0090081691741943,0.6542524695396423,-0.8219103813171387
6.967496337890625,-0.8401167993031442,-0.7663526941079646,6.165737383422255,1.6221528053283691,0.8871278166770935,-0.8329401016235352
6.977476318359375,-0.6126603350646793,-0.7920903619546443,5.209440282672643,1.0623971223831177,0.8797217607498169,-0.8504735827445984
6.987456298828125,-1.4115046282589434,-1.58714366536811,4.101172166779637,0.4531433880329132,0.8720859885215759,-0.7648468613624573
6.997437255859375,-1.507748057091981,-1.5812889479905363,5.298813095083832,0.0776349529623985,0.9193357825279236,-0.729475736618042
7.00741748046875,-1.3574065428465605,-1.1270232313759625,6.5054200046539306,-0.1208890601992607,0.9819275140762328,-0.7726998925209045
7.017397216796875,-1.850296443018317,-1.0953927791636435,7.093747716364264,-0.185884952545166,1.1012275218963623,-0.8634935021400452
7.02737744140625,-2.186825276394188,-1.1288414597790688,6.798873374152183,-0.1625934690237045,1.178966045379639,-0.9718122482299804
7.0373583984375,-2.53159645293653,-1.2549664513304828,5.650175632715225,-0.1479349881410598,1.0330517292022705,-1.0783439874649048
7.04733837890625,-2.935253241428733,-1.4553523916833102,4.207794220155478,-0.1064586490392685,0.3548824787139892,-1.07563316822052
7.057318115234375,-4.133894871208072,-1.596193087133765,2.890506921729445,0.0832449868321418,-0.5977926254272461,-0.7857926487922668
7.06729833984375,-4.833385786855221,-1.755572917228937,2.953840452998876,0.5436288118362427,-1.600533962249756,-0.3223227560520172
7.077279296875,-4.908000590595603,-1.995532304687798,2.95239843749702,1.15435791015625,-2.383673429489136,0.2552852928638458
7.087259521484375,-4.357358466418087,-2.291126777867973,3.3464000934153795,1.8890888690948489,-2.844810009002685,0.7865355610847473
7.0972392578125,-2.537903444126248,-2.1136910666003823,4.91322855437696,2.688800096511841,-2.7537319660186768,0.8089998960494995
7.10721923828125,3.017928602027893,-0.6583690700553357,6.465814554974436,3.355942249298096,-2.18552303314209,0.0519708096981048
7.117200439453125,4.254208473066986,-1.6647160037398336,5.874084925866127,3.5347659587860107,-1.3753437995910645,-0.3398671746253967
7.127180419921875,2.9385774174153805,-4.339772540844977,-0.7152414424866438,2.844565391540528,-0.6657426357269287,-0.2053530216217041
7.137160400390625,2.942241785141825,-3.527554532945156,-4.766835047104954,1.7756719589233398,0.1633646935224533,-0.1474989205598831
7.147140380859375,1.0527679816629738,-1.3716867048725483,-8.366390401899814,0.5881229043006897,0.973992884159088,-0.005472270771861
7.157121337890625,-0.7186961129851639,0.0370351608000695,-12.043289108616111,-0.4873145818710327,1.4394609928131104,0.1603353321552276
7.167101318359375,-1.1384003654368222,0.913389540784806,-15.435322241437436,-1.0638915300369265,1.6414049863815308,0.3256020545959472
7.177081298828125,-1.698129028519988,1.210590133987367,-16.599921316361428,-0.7806703448295593,1.2273374795913696,0.5741567611694336
7.187061279296875,-0.8049486744839698,1.7374774346984925,-19.603856464350223,-0.1506980061531067,0.7792662978172302,0.6787364482879639
7.197042236328125,0.682192136452347,1.9094082649394868,-23.16315287399292,0.5186741352081299,0.3374834656715393,0.6602092981338501
7.2070224609375,1.6231863079994917,2.1623881697520613,-24.53903790733814,0.947472095489502,0.0304870456457138,0.6196946501731873
7.217002197265625,1.639027143470943,2.784084774839878,-23.26846501381397,1.085315465927124,-0.0481889024376869,0.4587683975696563
7.226982421875,1.291221713799238,3.783459969815612,-20.046140797400472,0.9844227433204652,-0.1508734673261642,0.3064987063407898
7.23696337890625,1.092252946767956,4.687608950176835,-16.353524297070503,0.7246097326278687,-0.4946150183677673,0.0885620266199112
7.246943359375,1.2841931303367018,4.954119952213764,-13.001417516446113,0.3769300580024719,-0.7334867119789124,-0.2235569804906845
7.256923095703125,0.3213350636363029,4.103614299234748,-10.24887821894884,-0.1210225895047187,-0.811628520488739,-0.4078406393527984
7.2669033203125,0.445787482332997,2.545513334608078,-8.45188900322616,-0.8655516505241394,-0.8131222724914551,-0.5430812239646912
7.27688427734375,-0.3183579475216567,1.3749544744968414,-5.697178791430592,-1.4019052982330322,-0.7096968293190002,-0.478002518415451
7.286864501953125,0.0564780393514782,1.1003257785864171,-2.638970201462507,-1.7174885272979736,-0.9753783345222472,-0.4136994183063507
7.29684423828125,0.8954563361439853,0.4250942749269306,-0.8900076422840356,-1.80858850479126,-1.3637157678604126,-0.3743693232536316
7.30682421875,1.0156902968954291,-0.1658202384062111,0.8515782506465911,-1.764712691307068,-1.6498126983642578,-0.2855760753154754
7.316805419921875,0.7013996718779206,0.0987859529227018,2.3983389060914515,-1.694617509841919,-1.6639115810394287,-0.1507118791341781
7.326785400390625,0.6245721605241298,0.3231239928796887,3.669691551816464,-1.600145936012268,-1.3192481994628906,-0.0145649556070566
7.33676513671875,1.184146655958891,-0.0020927344955503,4.802089900359511,-1.4456030130386353,-0.7026939988136292,0.1078191176056861
7.346745361328125,1.9069708086594936,-0.5086879924800247,5.891977140909433,-1.194321870803833,0.1030815690755844,0.188420221209526
7.356726318359375,2.228037138357013,-0.8579628371171653,6.855954274767637,-0.8191380500793457,0.7471169233322144,0.2503670752048492
7.36670654296875,1.2134648126408456,-0.0552302312474697,5.937653434935212,-0.3242955803871155,1.119244933128357,0.3945713937282562
7.376686279296875,0.4851557622557506,0.0997146851401776,6.680683048057555,0.2495204955339431,1.3669148683547974,0.5775241851806641
7.386666259765625,0.1761092849694192,-0.2381512785909697,7.101255315515399,0.7142671346664429,1.4175891876220703,0.7063050866127014
7.396647216796875,0.3668026468148455,0.4362738405890762,7.130799389907717,1.004607319831848,1.3102153539657593,0.7746078372001648
7.40662744140625,0.7305528472565114,0.0018498656503856,7.86773243972063,1.0576162338256836,1.0671213865280151,0.8576276302337646
7.416607177734375,0.8654629836142063,-0.2203723511964082,8.491527770653367,0.8733410239219666,0.8476616740226746,0.8620565533638
7.42658740234375,1.3347886144556105,-0.1872880469139665,9.431750519436598,0.6014367938041687,0.6228653192520142,0.7839785218238831
7.436568359375,1.3849617815092206,0.0623564298655837,10.644693061769008,0.3610476851463318,0.3301623463630676,0.6961378455162048
7.44654833984375,1.35432538183555,0.1201565116010606,10.988918002605438,0.0663819536566734,-0.0619790591299533,0.5848581790924072
7.456528076171875,1.333481185118854,-0.0114941115040332,10.931141520941257,-0.2711440026760101,-0.3759225606918335,0.4566157460212707
7.46650830078125,0.8212155533477663,-0.3090156802892684,11.275654046547412,-0.5833636522293091,-0.6094953417778015,0.3907083868980407
7.4764892578125,0.4443669845432043,-0.318048223985359,11.150260072684288,-0.8931615352630615,-0.6212546825408936,0.3254132568836212
7.486469482421875,0.1945192402765154,-0.3048915860965848,11.083776552951337,-1.0301103591918943,-0.6255780458450317,0.1893393099308014
7.496449462890625,0.3068884224696084,-0.5718143107395619,10.405348883599045,-1.131538987159729,-0.6849035620689392,0.0512628257274627
7.50643017578125,0.5453676178406923,-1.0535627122372389,8.939148788556457,-1.15533709526062,-0.7136654853820801,-0.0469771921634674
7.516410400390625,0.4083514856470748,-1.531870398696512,8.717004166990518,-1.0667320489883425,-0.7143600583076477,-0.1397682726383209
7.526390380859375,0.3384511432079598,-1.637565400355309,7.789986936739087,-0.9755120873451232,-0.7226285934448242,-0.1906868517398834
7.536370361328125,0.1350230952128767,-1.975529965622723,6.9212979768157,-0.8425883054733276,-0.7323396801948547,-0.1570972055196762
7.54635107421875,-0.4187332885276525,-2.228969450771064,6.594820289593935,-0.6617879271507263,-0.6858810782432556,-0.0450495071709156
7.556331298828125,-0.894584594810754,-2.0477784786231816,6.306578517264128,-0.4227342307567596,-0.6166982054710388,0.1077275052666664
7.5663115234375,-0.9289563816204668,-1.881055300027877,6.311185134276747,-0.0889248549938201,-0.4658980965614319,0.2415777146816253
7.57629150390625,-0.7433589912071824,-1.7811340594649314,6.3737172860354185,0.2805773913860321,-0.2892757952213287,0.3008520901203155
7.586272216796875,-0.5130017274932935,-1.6336888511829075,5.916442889124155,0.6214015483856201,-0.1526423096656799,0.3420413434505462
7.596252197265625,-0.5645777105495333,-1.655636625227332,6.16089754217565,0.8658662438392639,-0.1300181597471237,0.3734566867351532
7.606232177734375,-0.1172411356110125,-1.410593358632922,6.535648554179072,0.9840506911277772,-0.1204925552010536,0.3867269456386566
7.6162119140625,-0.1562037938749417,-1.0985184369035064,6.610758447960019,0.9918879866600036,-0.0768713802099227,0.3681813478469848
7.62619287109375,-0.2455183002276346,-0.8816958871431648,6.127635324043035,0.9554224014282228,-0.0498384311795234,0.3414109945297241
7.6361728515625,-0.1345349463697522,-0.8724381563890725,5.253249613782764,0.8831559419631958,-0.0595951043069362,0.2793063819408417
7.646153076171875,0.0474499161021783,-0.8879908225689083,4.212616525745392,0.7360823154449463,-0.0192937515676021,0.2185306251049041
7.6561328125,-0.1170986584004014,-0.9803853939540684,3.1507430812805888,0.5866987705230713,0.0767907798290252,0.1375779509544372
7.66611376953125,-0.3040806350398808,-1.0538314461760223,2.963752190682292,0.5127497315406799,0.2850449085235595,-0.0068963980302214
7.676093994140625,-0.5268112763328477,-0.3539299769666045,2.865865232425928,0.4355115592479706,0.585061252117157,-0.0927299559116363
7.686073974609375,-0.8539471717350184,1.5771493639677765,1.5767425367325545,0.1815751641988754,0.4539596736431122,-0.0457619167864322
7.69605419921875,-1.3180813714131712,3.477234212505817,-2.9937364100575445,-0.5280612707138062,-0.3489983379840851,0.0726459473371505
7.706034912109375,-1.351292882271856,4.065216471779347,-10.082163223659991,-1.6498867273330688,-1.4372663497924805,0.1680230647325515
7.716014892578125,-1.3437865982949733,2.7511969429776078,-17.757791375291347,-2.720014810562134,-2.073016166687012,0.31157386302948
7.725994873046875,-1.3563910821937024,1.7519395291626452,-23.75028874557018,-3.2409439086914062,-2.064062118530273,0.4906855821609497
7.73597509765625,-2.4144426302827893,2.010077839651704,-26.326061609363556,-2.887947797775269,-1.535181999206543,0.557121992111206
7.745955810546875,-3.2202322125703096,3.218987473206222,-23.054053032326696,-1.794055700302124,-0.4946074783802032,0.5310595035552979
7.75593603515625,-3.666391925749183,4.5075078190922735,-18.213377088463304,-0.4968640208244324,0.3133246004581451,0.5386601090431213
7.765916015625,-3.747703304518759,5.501247638529539,-14.96154269992709,0.5222629904747009,0.5766585469245911,0.6437734961509705
7.775895751953125,-2.9351661476671693,5.582869106161594,-13.447258080673215,0.8717051148414612,0.480564534664154,0.6815568208694458
7.785876953125,-1.9849384299591184,4.479336786618829,-12.3044920673728,0.849298357963562,0.1668633371591568,0.6682407855987549
7.79585693359375,-0.9906859117593616,3.260306156544387,-9.706652917721868,0.5657644867897034,-0.0459781140089035,0.5510876178741455
7.805837158203125,-0.0267131618153303,2.542547178278863,-7.596448231932521,0.1366096585988998,-0.1586913466453552,0.3498759865760803
7.815817138671875,-0.3871577083077281,1.8164723532192408,-5.5203404615342615,-0.2330910563468933,-0.0794501006603241,0.2024543285369873
7.8257978515625,-0.8947634585089981,1.6214128685861826,-3.7815024060070512,-0.5120342969894409,0.1265083849430084,0.0214709695428609
7.835778076171875,-0.6576810877911746,1.7445694387860595,-2.7360785765618085,-0.658147931098938,0.3010579645633697,-0.1491057425737381
7.845758056640625,-0.648000455449894,1.4029405057922004,-1.6310978117763997,-0.6622872948646545,0.4183110892772674,-0.2623087167739868
7.855738037109375,-0.6646640785463154,0.8964794686466455,-0.6356821680814028,-0.5829890966415405,0.5048401355743408,-0.2743869125843048
7.86571875,-0.6696320762172341,0.3268176962984725,-0.0332148718595504,-0.4716960787773132,0.5449782609939575,-0.2231407761573791
7.875698974609375,-0.5812907257456332,-0.1795948620628565,0.3629875089734792,-0.3946790695190429,0.5416139960289001,-0.1683654636144638
7.885678955078125,-0.338168417276442,-0.6414836939670145,0.61127428753376,-0.3757466673851013,0.5463322997093201,-0.1300162076950073
7.8956591796875,-0.0663444035232067,-1.072559381391108,0.8930863190770149,-0.3842625916004181,0.5721381306648254,-0.1152110174298286
7.905639892578125,0.1788777998346835,-1.3546907080166042,1.4081979879289863,-0.3901790678501129,0.5555439591407776,-0.1173101216554641
7.915619873046875,0.4422135693689808,-1.578598685993254,1.858411360412836,-0.3848440051078796,0.4920817911624908,-0.1351095885038375
7.925599853515625,0.6036075522981583,-1.874539488393068,2.2144529957711696,-0.3826309144496918,0.4952573478221893,-0.1522363722324371
7.935580078125,0.5505180228738114,-2.144706382589042,2.57812790248692,-0.3497427701950073,0.3095017075538635,-0.1745676696300506
7.945560791015625,0.6081198055582121,-2.1086485423885284,2.9255823267638683,-0.3173209130764007,0.1877044290304184,-0.1807906776666641
7.955541015625,0.4862274100752547,-2.080088510597497,3.457266360232234,-0.2699092030525207,0.1309319585561752,-0.206202283501625
7.96552099609375,0.4808759295120835,-2.213404071240127,4.057361082103848,-0.2143332660198211,0.1131513714790344,-0.2298950999975204
7.9755009765625,0.5282559587158262,-2.342589254079759,4.467397342500091,-0.1599185019731521,0.0880731046199798,-0.2444527447223663
7.98548193359375,0.5951456115642562,-2.282182277781516,4.622055404770374,-0.1235309317708015,0.0553827993571758,-0.2577616274356842
7.9954619140625,0.7048074344947933,-2.112247005271912,4.5886605001688,-0.1133657395839691,0.0285945404320955,-0.2854936718940735
8.005441162109374,0.7051965799428522,-2.121625074470043,4.587833986216784,-0.1083874925971031,0.0217147972434759,-0.3104677200317383
8.0154208984375,0.7485675196357071,-1.99692755843848,4.422727595168352,-0.0943952426314354,0.0675591677427291,-0.3181008994579315
8.02540185546875,0.6629346244052052,-1.9671537669435144,4.315491793808341,-0.086117073893547,0.0937798544764518,-0.3014683723449707
8.0353818359375,0.5832859912160784,-1.916940706270933,4.091978221976757,-0.0630607604980468,0.0690766349434852,-0.262957751750946
8.045362060546875,0.4845596595261245,-1.780825139646232,3.763720665600896,-0.0341209918260574,0.006198339164257,-0.2178938686847686
8.055342041015624,0.4077998796463012,-1.6766709376886486,3.3826094709157943,-0.0046566608361899,-0.0560152977705001,-0.1631750762462616
8.065322998046875,0.3110708592534065,-1.6027163514226674,2.926246928152442,0.0223288834095001,-0.0970072075724601,-0.0885029733180999
8.075302978515625,0.1133547591643407,-1.4761619554780423,2.4048463882893323,0.0355481170117855,-0.092666208744049,-0.0155729427933692
8.085282958984376,-0.0111121629817411,-1.3588979504480958,1.7621031957805156,0.0506208091974258,-0.0248035378754138,0.0380125232040882
8.0952626953125,0.0136397086979821,-1.2922213923610746,1.2353022581785915,0.0497297905385494,0.0565675571560859,0.0352260246872901
8.105243896484374,0.2159300213674083,-1.1018644593957811,0.7834539779692887,0.0530835092067718,0.0989206060767173,-0.0050236592069268
8.115223876953126,0.4648137429075315,-0.7050892471108585,0.2121288389861583,0.0564225055277347,0.1482876390218734,-0.0429943203926086
8.1252041015625,0.5149448243850842,-0.3366024831339717,-0.1357417648762464,0.0556624382734298,0.192704364657402,-0.0704733505845069
8.135185302734374,0.5023286135159433,-0.1342920044593513,-0.3301934928745031,0.0451748184859752,0.2044074833393097,-0.0945407375693321
8.1451650390625,0.4864587711457163,0.0350676601193845,-0.556120555588603,0.0220884084701538,0.1758392304182052,-0.1027997285127639
8.15514501953125,0.4147173308845609,0.1787027355287224,-0.8209715154588222,-0.0173471421003341,0.121028795838356,-0.0949929282069206
8.165125,0.3161117394974455,0.2000810391221195,-1.130131572654843,-0.0805263817310333,0.0877882838249206,-0.0660297200083732
8.17510595703125,0.1332153882037848,0.1245185792680829,-1.402620480057597,-0.1409197747707367,0.0872741416096687,-0.0318841375410556
8.185085693359374,-0.1016514984216541,0.0702105774320662,-1.6230664810121058,-0.1821433752775192,0.0884549841284751,-0.0061817024834454
8.195066162109375,-0.1606866383774206,0.1291262191940099,-1.949558196759224,-0.1932186335325241,0.0966643542051315,0.0220973715186119
8.205046142578125,-0.1809153335442766,0.0989559026621282,-2.182890567293763,-0.1719538271427154,0.1339304894208908,0.0545144341886043
8.215027099609374,-0.2494625078087672,-0.0274943022556602,-2.182699428635836,-0.0862493366003036,0.1682496964931488,0.0960997715592384
8.2250068359375,-0.3488394123619422,-0.0728764356404542,-1.8866630569070575,0.0853964537382125,0.1718036830425262,0.1419985592365265
8.23498681640625,-0.3337079307362437,0.0997043098766356,-1.0496575214922428,0.3008853495121002,0.1276281327009201,0.1635888367891311
8.244967041015625,-0.2147920120471157,0.3507938708979636,-0.2088303819626569,0.547450602054596,0.106699414551258,0.1502421349287033
8.254947998046875,-0.011006090525072,0.4718720273885876,0.4977782567352056,0.8113266825675964,0.0005800407379865,0.0700603052973747
8.264927978515624,0.377706646938622,0.4721027674045413,1.819384002882242,0.7470992207527161,-0.1216521263122558,0.0977377369999885
8.274907958984375,0.3429038117678836,-0.0660454936418682,0.4018921169072389,0.5480679869651794,-0.1550306230783462,0.1311950236558914
8.284887939453125,-0.0061455352840013,-0.2958456714622676,0.1811649609237909,0.2741554379463196,-0.1778576374053955,0.1526414602994918
8.294869140625,-0.1242483840245753,-0.3264594209127128,-0.076215224674344,0.0016580576775595,-0.1587729752063751,0.1545070260763168
8.304848876953125,-0.2054106001144275,-0.3208713551146909,-0.2907686604589223,-0.2394733279943466,-0.1078333482146263,0.1278967261314392
8.314828857421874,-0.1720467847708612,-0.4060015980526805,-0.3852273978322744,-0.3501160740852356,-0.0353473052382469,0.0660418644547462
8.32480908203125,-0.0640123803790658,-0.5542404409304261,-0.1149105737715959,-0.3217954933643341,-0.0264954902231693,-0.0187830124050378
