seconds_elapsed,ax,ay,az,gx,gy,gz
0.08001318359375,-0.4143055717458948,-0.510422707318142,1.0253928488075732,0.4339132905006408,0.1585671752691269,0.3142137229442596
0.089992919921875,-0.1822641178047284,-0.2404788812883198,1.2499538838654756,0.5303458571434021,0.3461318016052246,0.2883530259132385
0.09997216796875,-0.0515817186772823,-0.027370822006464,1.461650176653266,0.5282384753227234,0.6517511010169983,0.2479304820299148
0.1099521484375,-0.0069458005499094,0.2882688064672052,1.3968378050029278,0.4471538066864013,0.8491106629371643,0.2233401238918304
0.119931884765625,-0.2868278138786554,0.5163575772598386,0.8758727339476347,0.3071985840797424,0.822385311126709,0.2206759005784988
0.129912109375,-0.2676891059055924,0.5065919700488448,0.1303770229727029,0.1495993584394455,0.8196422457695007,0.2658536434173584
0.13989208984375,-0.171116152857244,0.1601416082479059,0.1037134724527597,-0.0347992442548275,0.9119396805763244,0.3547006845474243
0.1498720703125,-0.3103722825299948,-0.2064342806063592,0.3779506848275661,-0.2372741252183914,1.0320080518722534,0.4457696676254272
0.15985205078125,-0.5785249142941087,-0.1815679887667298,0.5087544087797403,-0.435447633266449,1.1188664436340332,0.5139657258987427
0.16983203125,-0.9618401218295096,0.1851743426956236,0.4858738839298486,-0.6095931529998779,1.2288053035736084,0.5422086715698242
0.17981103515625,-0.981955273619294,0.4147860852718353,0.4377782538026571,-0.7380660772323608,1.3535739183425903,0.5439362525939941
0.189791015625,-0.508393174251914,-0.0132649936340749,0.5538631320506334,-0.7716140747070312,1.332980394363403,0.5396213531494141
0.19977099609375,0.1190095335230231,-0.870808728556335,0.5374637859135866,-0.6833188533782959,1.1206388473510742,0.541344940662384
0.209751220703125,0.2990847995139658,-1.2515417375788092,0.7049649631440639,-0.4941839873790741,0.7956212162971497,0.5388527512550354
0.219731201171875,-0.1461047534584999,-0.7304391577489674,0.9344231225937604,-0.247116670012474,0.3929187953472137,0.5171599984169006
0.229711181640625,-0.4359193280629813,-0.1285846596632152,0.9543249238938092,-0.009913814254105,-0.1023899242281913,0.4778236448764801
0.239691162109375,-0.2446393619686365,-0.1138281853623688,0.6398772816836834,0.1855329126119613,-0.5942525863647461,0.4354807138442993
0.2496708984375,0.3002681640796363,-0.4464779122825711,0.3877408419579267,0.3264660835266113,-1.0500872135162354,0.3831682503223419
0.259650146484375,1.0132191575415432,-0.7491683350730687,0.1511421631038189,0.396984726190567,-1.4342074394226074,0.3283454775810241
0.269630126953125,1.3412905436955391,-0.5481701080407947,-0.2326005491286516,0.3829207718372345,-1.5448317527770996,0.3128449916839599
0.27960986328125,0.7948292123340069,0.4563868004217744,-0.7640992891579866,0.2695329487323761,-1.1689960956573486,0.3949915170669555
0.289590087890625,-0.1476263370025902,1.4177185343377292,-1.0314444039314985,0.0952877625823021,-0.3618909418582916,0.5631343722343445
0.2995703125,-0.7500652839127928,1.4479171271160245,-1.089260633084178,-0.1338745802640915,0.7487707734107971,0.7768469452857971
0.309550048828125,-0.7774899549983442,0.58170478643924,-0.7924059307098388,-0.3624444901943207,1.7209242582321167,0.921928644180298
0.319530029296875,-0.4819672318801283,-0.1725266041770577,-0.6449608685582876,-0.5266360640525818,2.371566772460937,0.886646032333374
0.329510009765625,0.0859786399282515,-0.3754934278685599,-0.1224579204112291,-0.5839093327522278,2.529096364974976,0.6578803658485413
0.339489990234375,0.6188968913666903,-0.3577072304829954,0.1317313601911068,-0.5272316932678223,2.241393566131592,0.310611367225647
0.349468994140625,0.890751154127717,-0.2839131685409695,-0.0493295558363199,-0.4316816031932831,1.8441259860992432,-0.0378520563244819
0.359448974609375,0.6042112172797321,0.0397075948797166,-0.3665250354498625,-0.4002155661582947,1.7448869943618774,-0.2778103053569793
0.369428955078125,0.0869075913414359,0.1296976624064147,-0.4386743258595466,-0.4497817456722259,1.9558098316192627,-0.37502121925354
0.3794091796875,-0.24288901116997,-0.3351510422166436,-0.4751397239476442,-0.5130733251571655,2.3862342834472656,-0.3983196020126343
0.38938916015625,0.0388987627148628,-0.623005714925006,-0.3687462186306715,-0.5040077567100525,2.7992348670959477,-0.3860692977905273
0.399369140625,-0.0019043723165988,-0.5820991195190698,-0.0136211135953664,-0.4117934107780456,3.0192837715148926,-0.405411034822464
0.40934912109375,-0.2012543937504291,-0.1350888539254665,0.3173211518198252,-0.2516578137874603,2.938692808151245,-0.4949520826339721
0.4193291015625,-0.0712722153142094,0.2674965059429407,0.3018564561843871,-0.1244015768170356,2.7367465496063232,-0.6298089623451233
0.429307861328125,0.1940256115406751,0.3635494537051767,0.1162520515084266,-0.1544194817543029,2.651219367980957,-0.7458670735359192
0.4392880859375,0.1391001353934407,0.0621860417347401,-0.1211234569370746,-0.3070564270019531,2.6522459983825684,-0.8253394961357117
0.44926806640625,-0.1421139302566647,-0.306445683670789,-0.1358984167426824,-0.1816195398569107,1.4084229469299316,-0.8435968160629272
0.459248291015625,-0.479452034188807,-0.3757504713695496,1.5475994443565606,-0.0604584962129592,0.1361081302165985,-0.8732878565788269
0.46922802734375,-0.0228954301580786,-0.2481751348793506,2.2894693660497665,-0.3054679930210113,-0.2049702107906341,-0.7346531748771667
0.4792080078125,-0.8396689094051718,0.0499665020329877,0.3368324924975633,-0.6141472458839417,-0.035789705812931,-0.381702572107315
0.489188232421875,-1.3120754089966415,-0.5168177421174943,0.1327449211478233,-0.7828827500343323,-0.0183070786297321,-0.0210728161036968
0.49916796875,-1.3496978681653735,-0.28780882427264,-0.1275210490196943,-0.8077553510665894,0.119198590517044,0.2560064494609833
0.50914697265625,-1.463121125988662,0.5051310306508093,0.2620785725474357,-0.7774796485900879,0.4578769505023956,0.525794506072998
0.519127197265625,-2.115368059901893,0.2723072306929156,0.693826898536086,-0.7334248423576355,0.8634968996047974,0.7014340162277222
0.52910693359375,-2.49668354498744,-0.1748533848905004,0.9419202003508804,-0.6665224432945251,1.0537481307983398,0.5800762176513672
0.539087158203125,-1.836717414999008,-0.3600242752537131,0.8700538185358047,-0.5135642886161804,0.8518986105918884,0.1838657408952713
0.549067138671875,-1.0662924299508332,-0.5394916384793818,1.046018288207054,-0.3117647469043731,0.5993282794952393,-0.2591598629951477
0.559046875,-1.264522507444024,-0.5793681967178359,1.4675836583554744,-0.1009728834033012,0.4410819113254547,-0.5531797409057617
0.569027099609375,-1.804883476103842,-0.3575259921645745,1.81741065698266,0.0940020009875297,0.4172026216983795,-0.6780697703361511
0.5790068359375,-2.272790618449449,-0.2921711842006072,2.2388041776955125,0.2254377901554107,0.4876666665077209,-0.6793115735054016
0.588985595703125,-2.6877047140151262,-0.4037663863465189,2.4666379508137704,0.2665165066719055,0.4012959003448486,-0.5978308916091919
0.5989658203125,-3.3293893373817203,-0.077943043980794,2.350320432853698,0.2038046568632125,0.0420535802841186,-0.4908088147640228
0.60894580078125,-4.576310137161612,0.9330190279494972,1.7845453292131424,0.0122297629714012,-0.2278109192848205,-0.3683036267757416
0.61892578125,-5.162788421612977,1.9092898992568248,1.3131740178883076,-0.1701501607894897,-0.7793494462966919,-0.2809244990348816
0.62890576171875,-5.102489143472909,1.531862507651001,1.1938117254048586,-0.3025034070014953,-1.1279386281967163,-0.2743977606296539
0.638885986328125,-4.408263016486168,1.324312667018175,1.815387042200565,-0.4544519186019897,-1.4180903434753418,-0.2383049726486206
0.648865966796875,-4.028855995370448,0.9329534153673796,1.3717676611542702,-0.5214444994926453,-1.5942848920822144,-0.0846362560987472
0.658845703125,-4.315052817869186,0.8831238010544329,1.7726666753709317,-0.4826467633247375,-1.7972105741500854,0.0704044625163078
0.66882568359375,-4.1058357746765015,1.0238971303571014,1.964743490931392,-0.4314842224121094,-1.8975365161895752,0.2150103747844696
0.6788046875,-3.544786238253117,1.5585767654448748,1.7007272283196448,-0.3786231279373169,-2.0939033031463623,0.3508470356464386
0.688784912109375,-2.744147316727042,1.8513449291579425,1.3045295236617327,-0.3483901917934418,-2.335939645767212,0.5061500072479248
0.698764892578125,-2.7554204058915377,1.9121768528699876,1.104225562503934,-0.3133594989776611,-2.625866413116455,0.6534414887428284
0.708744873046875,-2.566777948693931,2.1329612919986247,0.9949871891498564,-0.325097918510437,-2.810100793838501,0.7820026874542236
0.718724853515625,-2.115921894392371,2.276081476688385,0.6304571269094944,-0.4100474417209625,-2.8184287548065186,0.8796157836914062
0.728704833984375,-1.2316788069844244,2.3082672977611423,-0.1057686514168977,-0.5525829195976257,-2.523277521133423,0.936349630355835
0.738684814453125,-0.2305029923275112,2.205805286674201,-0.6623147389411926,-0.6678341031074524,-2.0196690559387207,0.8922514319419861
0.74866455078125,0.4901628132954239,2.0120596611186863,-0.8385323065906762,-0.7016774415969849,-1.3779841661453247,0.7106878757476807
0.758643798828125,0.9015252077288926,2.0047883549414576,-0.6190332310974598,-0.6361362338066101,-0.7547799944877625,0.4498195648193359
0.7686240234375,0.8005673175945878,2.160457055559009,-0.4643962116152048,-0.5522544980049133,-0.3054353594779968,0.2700056135654449
0.778603759765625,-0.3235376882471144,2.189582027756422,-0.9383300669044256,-0.453588604927063,-0.1043975949287414,0.2385233342647552
0.788583740234375,-1.4353804477564989,2.256841646428406,-1.4836960042446852,-0.2737357318401336,-0.0676072463393211,0.2796533703804016
0.79856396484375,-1.8109772629342973,2.312372394992411,-1.6423475200653077,0.0129117369651794,-0.1641750633716583,0.4077812433242798
0.808543701171875,-1.9782624593265357,2.1719138307273385,-1.9317244339048865,0.4431098997592926,-0.328553169965744,0.5514979362487793
0.818523681640625,-1.1247092553451656,2.294643846078217,-2.38769359343648,0.8653261065483093,-0.6273220181465149,0.5527413487434387
0.828503662109375,0.6876756824299692,2.5666280188292263,-3.4649937396138903,0.9989430904388428,-0.9575052857398988,0.2794269919395447
0.838482666015625,2.6144761039361355,2.3745846671469506,-4.964629655790329,0.6542616486549377,-1.1592596769332886,-0.1116505116224289
0.848462890625,3.383348891106248,1.00417046642825,-5.831582001179457,-0.0450018867850303,-1.2256816625595093,-0.4598594605922699
0.85844287109375,3.4330718301743266,-0.5314424432648346,-5.556126060664654,-0.8683277368545532,-1.114132523536682,-0.6386715173721313
0.868423095703125,2.543743110065162,-1.1879457559809088,-4.821103228387236,-1.5658178329467771,-0.7308273315429688,-0.6394985318183899
0.87840283203125,1.6358461753472684,-0.4138418632242828,-3.9904415090411898,-1.8621307611465452,-0.4645237922668457,-0.6340028643608093
0.8883828125,1.8396695428028704,0.6544705282468348,-2.8175141662329435,-1.7814679145812988,-0.3754321634769439,-0.6841763854026794
0.89836279296875,2.1564935587555167,0.8042183143828063,-1.7454413993149995,-1.5314916372299194,-0.3856759965419769,-0.7574157118797302
0.9083427734375,2.0023197728708384,0.3284720759093761,-1.2760042709231376,-1.3251557350158691,-0.3910765349864959,-0.8283373117446899
0.91832177734375,1.7724769980177282,-0.1156903259724378,-1.369391579672694,-1.2559486627578735,-0.3656145930290222,-0.9124902486801147
0.928302001953125,1.8066883335687216,-0.3824817523859441,-1.515875103315711,-1.2954692840576172,-0.3330678343772888,-1.0031754970550537
0.93828173828125,1.9232751699894663,-0.5582229346953332,-1.5359183589130638,-1.3556194305419922,-0.2965860068798065,-1.0750054121017456
0.948261962890625,1.940394939355552,-0.7010523197449743,-1.2851765884160995,-1.369651198387146,-0.2406775206327438,-1.1130520105361938
0.958241943359375,1.96154820202142,-0.7875907855130732,-0.9776672210365532,-1.3133080005645752,-0.1648618578910827,-1.1223160028457642
0.9682216796875,2.1215528860166666,-0.8550226920120417,-0.7627958053439855,-1.1523401737213137,-0.0888078063726425,-1.1369794607162476
0.97820166015625,2.2420659559704363,-1.1212285736225545,-0.5452069473862647,-0.9497357606887816,0.0056180348619818,-1.122004151344299
0.988181884765625,1.98492586273849,-1.3908661832474172,-0.5581143597543239,-0.7748740315437317,0.0859012752771377,-1.0731662511825562
0.998160888671875,1.8251053031384945,-1.3068494910418986,-0.6401461617529391,-0.6732166409492493,0.0932814255356788,-0.9856849312782288
1.008140869140625,1.7182481258325275,-1.086369880078733,-0.9314356312155724,-0.6633394360542297,0.0889259725809097,-0.8327444791793823
1.018120849609375,1.7237313795492053,-1.0220192807212471,-1.2136381233811375,-0.6980223059654236,0.1105662882328033,-0.6404344439506531
1.028100830078125,1.9161624153748156,-1.1874049271024762,-1.2316045727044342,-0.7404137849807739,0.1224840134382247,-0.4450536668300628
1.038080810546875,2.007327956421673,-1.2995488126397132,-1.0948989312320947,-0.7988405823707581,0.1281504184007644,-0.2708110213279724
1.048060791015625,2.173350001010298,-1.1668655585512515,-1.1231354301571843,-0.8577614426612854,0.1754441261291504,-0.1106537654995918
1.05804052734375,2.47234580706656,-1.0100047255396842,-1.2232114228904247,-0.8976367115974426,0.2574314177036285,0.0433917269110679
1.068020751953125,2.689159588998556,-0.987162486873567,-1.276511051401496,-0.905009388923645,0.3286818861961365,0.1584877967834472
1.0780009765625,2.836149893119931,-0.9743447986155748,-1.2127712774187325,-0.878638505935669,0.3793858289718628,0.2137278914451599
1.087979736328125,2.85894215516448,-0.9264151727050542,-1.223525895667076,-0.8436063528060913,0.4268327951431274,0.2370244264602661
1.097959716796875,2.716217691794037,-0.9933616337746382,-1.2650398093163966,-0.8177595734596252,0.456335037946701,0.2697632014751434
1.10793994140625,2.5530951680392024,-1.1744482687652111,-1.5239631327033043,-0.7746812105178833,0.5266911387443542,0.3024394512176513
1.117919921875,2.5666350330919028,-1.363372757774591,-1.6618091763824223,-0.6730493903160095,0.6546019911766052,0.3136923909187317
1.127899658203125,2.5164111587643623,-1.5047610041052102,-1.569448872593045,-0.5283731818199158,0.7186596989631653,0.3182779848575592
1.137879638671875,2.108350728485733,-1.478715000961721,-1.5681278531223537,-0.376799076795578,0.6748435497283936,0.3541204035282135
1.147860107421875,1.564979764354974,-1.317003805309534,-1.6357903535068037,-0.2831402420997619,0.4948088228702545,0.3684735298156738
1.15783984375,1.2647959175579249,-1.041212641490996,-1.9450719912558796,-0.2692848742008209,0.2804009020328522,0.3634790182113647
1.16781884765625,0.9311179435685276,-1.0361237939193844,-2.0769044737339017,-0.2844168543815613,0.0966181755065918,0.3804647028446197
1.177799072265625,0.737168027612567,-1.2346946476742624,-1.9235119013547897,-0.302777498960495,0.0005140108987689,0.411893755197525
1.18777880859375,0.9280056567668914,-1.3498966056078672,-1.903100981488824,-0.277189165353775,-0.0051069320179522,0.4279040694236755
1.1977587890625,1.3075633383996783,-1.3810548371985554,-1.718817596283555,-0.1931235343217849,0.0185661725699901,0.4005539417266845
1.20773876953125,1.5624625208370386,-1.4178236021474002,-1.3812386693328618,-0.0860815942287445,0.0148271350190043,0.3367271721363067
1.21771875,1.5510839254714548,-1.5239815451428294,-1.082093225672841,0.0065873535349965,0.016471903771162,0.2544842064380646
1.227698974609375,1.473851632709056,-1.5699278882816432,-0.8490963707029819,0.0904998257756233,0.0282407514750957,0.1431699395179748
1.237678955078125,1.3869265057109297,-1.5648890173316,-0.5646165812551975,0.1547690778970718,0.0354597829282283,0.0285442937165498
1.24765771484375,1.189765664884448,-1.5811132991626855,-0.2717138313770294,0.1870454400777816,0.0593647733330726,-0.0868655443191528
1.257637939453125,1.0696434939444064,-1.5562854396373034,-0.0574959111571311,0.1991862505674362,0.0957009419798851,-0.1844680160284042
1.267617919921875,0.998668654141575,-1.574348335072398,0.1465548353135585,0.1946145594120025,0.1716048717498779,-0.2596509456634521
1.27759765625,0.9980427773281932,-1.7283309822991488,0.2772030764430761,0.2018935084342956,0.2519316971302032,-0.3095106482505798
1.28757763671875,0.9030788669116796,-1.9323022337928413,0.3819768716037273,0.2439910769462585,0.2968129813671112,-0.3284260034561157
1.297557861328125,0.6688625531494617,-2.0813602840989827,0.7319330495685339,0.311541348695755,0.2991640269756317,-0.3084770441055298
1.3075380859375,0.3282609173767268,-2.2056088873192667,1.0621312186181544,0.4179323613643646,0.2932625114917755,-0.2189329117536544
1.317517822265625,0.0029356150604784,-2.4283467986032363,1.2669967886030673,0.5311587452888489,0.2837119102478027,-0.1404588669538498
1.327497802734375,-0.0968682827331125,-2.1444804648786784,1.294897771963477,0.636596143245697,0.3315863907337188,-0.0722795873880386
1.337476806640625,-0.2975184269800782,-1.6947069451168175,1.4346172082990407,0.730135440826416,0.3900976479053497,-0.0177303254604339
1.347456787109375,-0.3474696218460798,-1.391915838430822,1.7019161458432674,0.823432981967926,0.3891001939773559,0.042149394750595
1.357436767578125,-0.6885754077486693,-1.3719310350224374,2.160074339851737,0.8931961059570312,0.3201507031917572,0.1190945133566856
1.367416748046875,-1.1295517269402742,-1.2833400206387042,2.627761409705877,0.9301414489746094,0.2122927606105804,0.1906749159097671
1.377396728515625,-1.371048845360428,-0.9696101713091134,2.9286142418056724,0.923144519329071,0.0901567339897155,0.2482822835445404
1.387376953125,-1.410092131112516,-0.6024319326475263,3.128797791454196,0.8648533821105957,-0.01484717708081,0.2580263614654541
1.39735693359375,-1.2283595994338392,-0.2285723165258765,3.2622154972970483,0.759330689907074,-0.1146336942911148,0.2381668984889984
1.407336669921875,-1.1062164440602062,-0.0160831197947263,3.168630035626888,0.6130303740501404,-0.1575337499380111,0.237823411822319
1.41731591796875,-1.0662404075026513,-0.1592227398373186,3.043438306337595,0.4576977491378784,-0.1730866134166717,0.269453763961792
1.4272958984375,-1.0841872753426431,-0.571888179693371,2.9164462496280668,0.3664073944091797,-0.156533733010292,0.3349275290966034
1.437275634765625,-1.2138297004304823,-0.9711099083475768,2.941502364951372,0.3780113160610199,-0.1517946422100067,0.4160926938056946
1.447255615234375,-1.218773002051562,-1.244584611917287,2.991103723466396,0.4764042794704437,-0.1567929685115814,0.4650937616825104
1.457236083984375,-1.2858597483746708,-1.2637664283797143,3.2635464536398646,0.6165115833282471,-0.1888156235218048,0.461866557598114
1.4672158203125,-1.3753031418040391,-0.9811924725532531,3.627489071381092,0.7307961583137512,-0.1672616750001907,0.4213232100009918
1.47719580078125,-1.5330108009032903,-0.5646515064381062,3.746625153893232,0.7711094617843628,-0.1074891537427902,0.3531079292297363
1.48717578125,-1.6262513946585355,-0.2485847385935485,3.5866385900765656,0.7218011021614075,-0.0930668413639068,0.2711850702762604
1.49715478515625,-1.7112050754532218,-0.306846665687114,3.4079689530998465,0.6279667615890503,-0.1288661211729049,0.1808546334505081
1.507134765625,-1.87222419718802,-0.5533167502142489,3.4449335328817368,0.529981255531311,-0.23281329870224,0.0563723035156726
1.51711474609375,-1.803085779032111,-0.5496940296724439,3.3506630115568634,0.4712774157524109,-0.274732768535614,-0.0399369224905967
1.5270947265625,-1.7504617116950452,-0.518398727698624,3.2793080863952637,0.4662707149982452,-0.3018466532230377,-0.1121817454695701
1.537074951171875,-1.7042080561727284,-0.5695145824298262,2.934210454377532,0.5449109673500061,-0.2578094005584717,-0.2003331780433654
1.547054931640625,-1.5089781834088265,-0.4306840577580034,2.687131882563233,0.6687988638877869,-0.1710449159145355,-0.3388547599315643
1.557034912109375,-1.2523456013076006,-0.1254866205826401,2.332428217810392,0.7877321839332581,-0.0629911571741104,-0.5052636861801147
1.5670146484375,-1.0497465149499476,0.1270331193722784,1.750802634087205,0.87131667137146,0.0643978863954544,-0.6771705150604248
1.576994873046875,-0.9863742591053248,0.3550838962420821,1.0226040948718786,0.9396992325782776,0.1888934671878814,-0.8186309933662415
1.586973876953125,-1.0169050064474343,0.5124408422075212,0.4666483744561672,0.9837605953216552,0.3395633697509765,-0.9137184619903564
1.59695361328125,-1.0128820345416665,0.9049993135802448,-0.0573205545902252,0.95531564950943,0.4362545013427734,-0.9795233011245728
1.606933837890625,-0.8199762208111584,1.4437149992510676,-1.031327499553561,0.8386869430541992,0.432200163602829,-0.9629269242286682
1.6169140625,-0.740746762882173,1.8195263339623808,-2.324575166222453,0.679561197757721,0.3044198453426361,-0.8797955513000488
1.626893798828125,-0.6963023487389087,2.163383318269253,-3.8722657959938047,0.5265541672706604,0.117192156612873,-0.7815700173377991
1.636873779296875,-0.4533943406075238,2.605165254755318,-5.613061415329575,0.3964395821094513,-0.0602175071835517,-0.6941671967506409
1.646853759765625,-0.0457566657856106,3.0265698813840745,-7.288196521753072,0.3115573823451996,-0.1939769387245178,-0.6395677328109741
1.656833740234375,0.6344276379756629,3.4198560825094577,-8.771615462622046,0.2595932483673095,-0.291064590215683,-0.5920393466949463
1.666812744140625,1.2457339280828832,3.610011282357573,-10.302340929067134,0.2499529868364334,-0.3387569785118103,-0.5650189518928528
1.676792724609375,2.063282629486173,3.784394620317221,-11.487302408540248,0.2384417504072189,-0.2992795705795288,-0.5683764219284058
1.686772705078125,2.941616346719861,3.881178001245856,-12.619743427181245,0.183176651597023,-0.2642330825328827,-0.5877543687820435
1.6967529296875,3.620792204090953,3.714349900971353,-13.851712157022952,0.144765093922615,-0.2320972383022308,-0.5735509395599365
1.70673291015625,4.153373770920932,3.47317266215533,-14.607486100906131,0.1521379798650741,-0.1866036802530288,-0.5352252125740051
1.716712646484375,4.535740226364135,3.600213526442647,-14.992500148248672,0.1848112344741821,-0.1343452632427215,-0.4540720283985138
1.726692626953125,4.55468048915565,3.773529235170781,-15.23137086368799,0.1795911937952041,-0.0840191319584846,-0.3215957283973694
1.7366728515625,4.249028147819638,3.7390418591573833,-15.181331113755702,0.0994191244244575,-0.0152927991002798,-0.1701377481222152
1.746651611328125,3.927763811331987,3.610804478561878,-14.667435834956168,-0.0430863499641418,0.0256346575915813,-0.028979143127799
1.756631591796875,3.585506078915298,3.430259110841155,-13.866988052088022,-0.2202731221914291,0.0072577828541398,0.0806549414992332
1.76661181640625,3.1503146267354487,3.403831122642756,-12.975471758806703,-0.3907720446586609,-0.0650512278079986,0.1616988182067871
1.776592041015625,2.672841491404176,3.427327441303432,-12.015644730365276,-0.5176029801368713,-0.1953929811716079,0.2333756685256958
1.78657177734375,2.070657980559766,3.2977962215051053,-10.85679851987958,-0.5883257985115051,-0.3403530120849609,0.2860762178897857
1.7965517578125,1.5344319197475909,3.078346538111567,-9.407413366037607,-0.6488708853721619,-0.3299355208873749,0.3047604262828827
1.80653173828125,1.0760856558211147,2.88328106212914,-7.918653064140677,-0.6987850069999695,-0.2687579393386841,0.2498891204595565
1.81651171875,1.0985738203525544,2.44993187681511,-6.126691905713081,-0.7049347758293152,-0.2375792562961578,0.0910190418362617
1.82649072265625,0.943135713620484,1.596289533245563,-3.890620367851853,-0.7075845003128052,-0.2140887528657913,-0.118910863995552
1.836470703125,0.6810081873647869,0.6709010732397437,-1.8069862936019896,-0.7213311791419983,-0.1434369534254074,-0.353991836309433
1.84645068359375,0.4426616419300436,-0.2499310386359691,0.1850900254130363,-0.7034300565719604,-0.0334709286689758,-0.6069145202636719
1.856430908203125,0.2709437237873673,-1.2339828461430966,2.256724449789524,-0.6178989410400391,0.0932212322950363,-0.861625611782074
1.866410888671875,0.116519031881541,-2.2160127924337982,4.297464554208517,-0.4784443974494934,0.2081231325864792,-1.0976428985595703
1.876390625,-0.0313693901233375,-3.0669746647477147,5.983226268586516,-0.3053035140037536,0.3432511389255523,-1.2820351123809814
1.886370849609375,-0.2059802532285451,-3.789087162047625,7.2696788682878015,-0.1077214479446411,0.4758619666099548,-1.389368772506714
1.896350830078125,-0.5523408909194171,-4.396208129294217,8.301983103919028,0.1015196591615676,0.5411462187767029,-1.3988618850708008
1.90632958984375,-1.099259902920574,-4.776434650099278,9.178560771265625,0.3042227029800415,0.5195407867431641,-1.3296353816986084
1.916309814453125,-1.6279940005421638,-4.827019758954644,9.890651640766858,0.4584681987762451,0.4212043881416321,-1.204877495765686
1.9262900390625,-1.94797034304589,-4.664188911622762,10.336047968357802,0.5567203164100647,0.297108381986618,-1.038352608680725
1.936269775390625,-2.2528052305191757,-4.36896268723309,10.68726729812622,0.6031565070152283,0.1693288683891296,-0.8421754240989685
1.946249755859375,-2.434083734820038,-3.9361128297433257,10.953016668140888,0.6059330105781555,0.0261443182826042,-0.6490214467048645
1.956229736328125,-2.4021508655950425,-3.499674592372775,11.095866803717612,0.5730366110801697,-0.091055542230606,-0.47373166680336
1.9662099609375,-2.254483831255883,-3.132922177907824,11.239753881126642,0.5232827067375183,-0.1699443906545639,-0.3363064527511596
1.976189697265625,-1.9959806329771876,-2.7539024025440213,11.319827534794808,0.4618827104568481,-0.2039968967437744,-0.239689901471138
1.986169677734375,-1.7786762910492715,-2.439840690911561,11.398442221826317,0.3849225044250488,-0.2050638049840927,-0.1563444435596466
1.996148681640625,-1.6915249540798365,-2.2133033873446286,11.42750698826909,0.2698036432266235,-0.1862057000398636,-0.0868548452854156
2.00612890625,-1.6820666592523454,-2.077893484771252,11.208167487251758,0.125992938876152,-0.169925257563591,-0.0202268175780773
2.01610888671875,-1.7269782525159418,-2.0987328591823577,10.889572662234306,-0.0198859684169292,-0.1230333745479583,0.0541672557592392
2.0260888671875,-1.8629997111164032,-2.160712199363857,10.5939401951313,-0.1614888906478881,-0.0383461862802505,0.1151085197925567
2.036068603515625,-1.8278293212749064,-2.184743501684069,10.174635755652188,-0.2748039960861206,0.0115816900506615,0.134850800037384
2.046048828125,-1.6755151917822655,-2.380361496982723,9.87946272275448,-0.3322924971580505,0.0265049431473016,0.1188236102461814
2.05602880859375,-1.6443914469830692,-2.713232830764353,9.718260937929152,-0.3353783190250397,0.0135052539408206,0.0772370174527168
2.066008544921875,-1.5972069403514264,-3.030059477065504,9.442481756809354,-0.2844626009464264,-0.0211533531546592,0.0295489393174648
2.07598779296875,-1.634838167348504,-3.302738061821461,9.128518683245778,-0.1911571770906448,-0.0657727494835853,-0.0241710152477026
2.085968017578125,-1.655203056115657,-3.475875199112296,8.904503007110954,-0.0669171959161758,-0.0832576975226402,-0.0845109745860099
2.09594775390625,-1.5224112270861865,-3.6455826542153953,8.873279601329564,0.089462824165821,-0.0693754404783248,-0.1707539707422256
2.105927734375,-1.2962244905225933,-3.858274095520377,8.970653349366783,0.2642636299133301,-0.0118442727252841,-0.2863288521766662
2.11590771484375,-1.0420239578738808,-3.9964565315470097,9.187873958534002,0.461147129535675,0.0560772530734539,-0.4280284643173218
2.1258876953125,-0.780508864428103,-4.023910063400864,9.438922603023052,0.657820999622345,0.115149863064289,-0.5815398097038269
2.13586767578125,-0.6561759439252317,-4.005984530609846,9.6098543392241,0.8426366448402405,0.1710650473833084,-0.7164533734321594
2.145847900390625,-0.6649392422258854,-3.90696359988749,9.580466332176329,1.0058917999267578,0.2320329844951629,-0.8161641955375671
2.155827880859375,-0.6419067416846752,-3.641681262862682,9.335412544187903,1.1392738819122314,0.2831281423568725,-0.8966358304023743
2.165806884765625,-0.4439398451723158,-3.364877707131207,8.794299003595114,1.2763911485671997,0.2881093919277191,-0.9593226909637452
2.175786865234375,-0.3533993041560053,-3.217857592393458,8.197270683556795,1.433415174484253,0.2376555353403091,-0.9887863397598268
2.1857666015625,-0.2034066033482551,-2.8912457573980093,7.364459677222371,1.53152334690094,0.2060917019844055,-0.976803719997406
2.195746826171875,0.0903667918846011,-2.4620474081531167,5.861076975733042,1.5014413595199585,0.2493526339530944,-0.8763921856880188
2.205726806640625,0.6308671690151095,-2.075304345060885,3.6177573664397,1.3106085062026978,0.4310734570026397,-0.6769939661026001
2.215706787109375,1.0415144009165465,-1.5670035252675414,0.384637030723691,0.986478626728058,0.6229552626609802,-0.4233212172985077
2.225686767578125,1.2326546662792564,-0.9403761857792736,-4.068319113969802,0.7023335099220276,0.5759886503219604,-0.1056337282061576
2.235666748046875,0.9074385234259068,-0.0602808657005429,-8.814868913415074,0.6873484253883362,0.2267979383468628,0.204020008444786
2.24564599609375,0.7855375062450766,1.7289584665477276,-11.794438266432284,0.8500015735626221,-0.3600457608699798,0.3716518878936767
2.255625732421875,1.839561990775168,3.822980371560156,-13.962438138586284,0.796427845954895,-0.8202387094497681,0.3956613540649414
2.265605712890625,3.5290289894118905,4.571263082905113,-16.65935433306098,0.3673601448535919,-0.9091169238090516,0.3611775636672973
2.2755859375,4.717155362656713,2.81535844950378,-19.123983866661785,-0.125197097659111,-0.8370960354804993,0.3157570958137512
2.285565673828125,5.141882996228337,0.1347177373244427,-20.526886670792106,-0.2929243147373199,-0.6823391318321228,0.3088102340698242
2.295545654296875,5.213498618152737,-1.1781672162231058,-21.2357036331892,-0.0264907665550708,-0.4201466739177704,0.2859344780445099
2.30552587890625,5.330556140825152,-1.1112595527939495,-21.75492507544756,0.5623123645782471,-0.1579726040363311,0.1755970269441604
2.315505615234375,5.414068536770343,-0.8486433662384748,-21.7348596080184,1.2061281204223633,0.0909149795770645,-0.0333295613527298
2.32548486328125,5.465926149779558,-0.0967295775153208,-21.418785241389276,1.6505422592163086,0.3451008200645447,-0.2473228722810745
2.33546484375,5.2782572137892245,1.0070487983435392,-20.830915210318565,1.751475811004639,0.6026095747947693,-0.359268844127655
2.345444580078125,4.665643786606192,1.8974205977648493,-19.74823337110281,1.5546624660491943,0.7910155653953552,-0.330471932888031
2.3554248046875,3.973567238868773,2.6725764107272028,-18.28331162543297,1.180270433425903,0.8774111866950989,-0.192575603723526
2.36540478515625,3.220518920557201,3.280817906436324,-16.40389605543613,0.6797396540641785,0.8662955164909363,0.003529854118824
2.375384521484375,2.4654665689468382,3.875663037216663,-14.46880828257799,0.1044031009078025,0.7344951629638672,0.1919895112514495
2.38536474609375,1.739674214090407,4.353802819763124,-12.783781312215329,-0.4521962404251098,0.4849808514118194,0.3246658146381378
2.395344970703125,1.1957486848168075,4.418811298507452,-11.102273163628578,-0.8779693841934204,0.1805139183998108,0.3867020308971405
2.40532373046875,0.8942112314537167,3.8744033925443886,-9.47738180527687,-1.0429033041000366,-0.069408006966114,0.4164217412471771
2.4153037109375,0.6507502656146884,2.8935446819901465,-7.691938650441169,-0.948460340499878,-0.2388958483934402,0.4318342506885528
2.42528369140625,0.4153187308438122,2.0542278008930386,-5.691875424325466,-0.7076448798179626,-0.3956265151500702,0.4374901354312897
2.435263916015625,0.0315000307656824,1.4155470355175437,-3.66449456769526,-0.4629698693752289,-0.5229064226150513,0.4285275042057037
2.44524365234375,-0.2946647911146283,0.8771525446251034,-1.6074702679514885,-0.2921106219291687,-0.4986768066883087,0.3962105214595794
2.455223876953125,-0.5142872007265686,0.38198819671534,0.2857511245578527,-0.1844986677169799,-0.3487789034843445,0.3337255716323852
2.465203857421875,-0.7328013568356633,-0.1185883398357313,2.24727682248652,-0.0906790420413017,-0.2255142033100128,0.2579022049903869
2.475183837890625,-1.04189960084185,-0.5725867564167827,4.275179072642326,0.007329546380788,-0.1668948382139206,0.1736917346715927
2.485163818359375,-1.515238851238787,-0.8459951167520136,6.048006491532921,0.1092306226491928,-0.1639303565025329,0.0957338437438011
2.495142822265625,-1.8673413935825227,-0.9647423460770398,7.4500634924888605,0.2234125882387161,-0.1891193240880966,0.0154240895062685
2.505122802734375,-2.0578183727309107,-1.0832849927406758,8.759359792160987,0.3580989241600036,-0.1990854293107986,-0.0732652023434639
2.515102783203125,-2.035610632576048,-1.1067437558699398,10.000831678885222,0.4971817135810852,-0.1776310056447982,-0.1500047296285629
2.525082763671875,-2.021789904755354,-0.9774848502069712,10.981765792763232,0.6182796955108643,-0.1366960406303405,-0.2172350734472274
2.535062744140625,-2.0597879192382096,-0.7200016426257789,11.734995897382497,0.7161180973052979,-0.1089829206466674,-0.261557787656784
2.545042724609375,-2.104152984534949,-0.3568346854321658,12.295006446146964,0.7639375925064087,-0.1033142730593681,-0.2699906229972839
2.55502294921875,-2.147201414275169,0.0627102117393165,12.61434127587676,0.7407055497169495,-0.0990289822220802,-0.2353908419609069
2.5650029296875,-2.2883228263631463,0.4867919851554557,12.758843270313738,0.6413464546203613,-0.0806053727865219,-0.1478774845600128
2.574981689453125,-2.578524208328128,0.8523485774319618,12.756962278872727,0.4505833983421325,-0.0101192239671945,-0.0192899499088525
2.584961669921875,-2.748723538601398,1.1711726811606435,12.534672111356258,0.160028725862503,0.1187920719385147,0.1415794789791107
2.59494140625,-2.8476754957407717,1.3275909580364822,12.11798632994294,-0.1528128087520599,0.1380850821733474,0.2860802114009857
2.60492138671875,-2.8862095167964696,1.2291016499727965,11.768072822076082,-0.428104817867279,0.0581294484436512,0.4076781570911407
2.614901611328125,-3.058276394507289,0.9718832308076322,11.369778437399864,-0.6260802149772644,-0.0508332550525665,0.5074021220207214
2.6248818359375,-3.138663351908326,0.7513270474769175,10.886086573684215,-0.7367634773254395,-0.1644816398620605,0.5675315856933594
2.634861572265625,-2.993845131129026,0.4692852257657796,10.38123969373703,-0.7709009647369385,-0.2414989173412323,0.5796034336090088
2.644841552734375,-2.726235812461376,0.1295386359198019,9.933996276974677,-0.7415781617164612,-0.2732074558734894,0.5408985018730164
2.654821533203125,-2.424097324465215,-0.1816565803656354,9.516966212168334,-0.6511044502258301,-0.2369455993175506,0.4732981324195862
2.664800537109375,-2.233651471107453,-0.5245751513112336,9.19973975289464,-0.5100627541542053,-0.1853098422288894,0.4034889042377472
2.674780517578125,-2.146997562266141,-0.7205392566338181,8.952991435948014,-0.3516257107257843,-0.1480495631694793,0.34515181183815
2.684760498046875,-2.0752162283860147,-0.7898636988811194,8.774030707070231,-0.2098887860774994,-0.1734075993299484,0.3054833114147186
2.694740478515625,-2.128804902971536,-0.980808441671729,8.54363029833436,-0.1116224080324173,-0.2304908633232116,0.299469381570816
2.704720703125,-2.2574399045825,-1.1574372204706072,8.421921150463819,-0.0448427982628345,-0.2723513841629028,0.3156507909297943
2.71470068359375,-2.2854862877629696,-1.1797876570317891,8.41434516225159,0.0119448481127619,-0.3016709089279175,0.3212823271751404
2.724680419921875,-2.1246096432387827,-1.2262126505330204,8.451115680766105,0.1031350567936897,-0.3087115287780761,0.308038055896759
2.734660400390625,-1.94288397969231,-1.3562452439822257,8.550265790826082,0.2468397617340088,-0.2864355146884918,0.2468191832304
2.744640625,-1.7054546952329577,-1.3851282241173088,8.613049286997319,0.4281018674373626,-0.2473630905151367,0.1455267667770385
2.754619384765625,-1.4494208096772432,-1.2793328308239578,8.536964410704373,0.6127103567123413,-0.2182518094778061,0.0078991279006004
2.764599365234375,-1.0947685828506946,-1.2191114402256906,8.220793597963452,0.804181694984436,-0.2035816758871078,-0.1471778005361557
2.77457958984375,-0.8000218125410378,-1.3031482984364031,7.379529236060381,0.987241268157959,-0.1383158415555954,-0.2687356770038605
2.7845595703125,-0.6117565911579876,-1.3114336039617658,6.253631355452537,1.14949369430542,-0.0538863018155097,-0.3780449032783508
2.79453955078125,-0.057359644491598,-1.1261706331346184,5.063713130354881,1.2831218242645264,0.0196291953325271,-0.5324597358703613
2.80451953125,0.7395940126504749,-0.8150208634261041,3.508365263828635,1.3100935220718384,0.2274775505065918,-0.7397393584251404
2.81449951171875,1.434836696268618,-0.4271982614688575,1.0543722750544546,1.166121482849121,0.6131168603897095,-0.9385992288589478
2.8244794921875,2.341078557255864,0.044548312909156,-2.71640006262362,0.8243438005447388,1.0587847232818604,-1.0356453657150269
2.83445849609375,3.053887219637632,1.071406485028937,-8.224908047544956,0.2533484697341919,1.4380425214767456,-0.9386165738105774
2.844438232421875,3.412193292796612,3.462406061208248,-15.48408071938753,-0.5142810940742493,1.4159241914749146,-0.617867648601532
2.85441845703125,3.3932670585304496,6.490639784151315,-22.925633573162557,-1.3127902746200562,0.8438029885292053,-0.0307993795722723
2.864398681640625,2.55440566611588,7.483600435909628,-27.51612479588985,-1.8355472087860107,-0.1268329471349716,0.74415522813797
2.874378662109375,1.8355660530067976,4.634821655102074,-27.614588677251337,-2.053891897201538,-0.9477273225784302,1.4812699556350708
2.8843583984375,2.5713018558591605,0.9096990157037972,-25.99954300560951,-1.9677228927612305,-1.3088458776474,1.9921541213989256
2.89433837890625,3.5394019148662683,-2.2845438923463224,-23.70204464688301,-1.5114392042160034,-1.202074408531189,2.16346287727356
2.904318603515625,4.386166335490346,-4.474145939977467,-20.680407837986944,-0.8428140878677368,-0.7676310539245605,1.9838781356811523
2.914298583984375,5.278151999849081,-5.030977566444873,-18.53828942606449,-0.2254464626312255,-0.206858828663826,1.6337510347366333
2.924277587890625,5.386082213214039,-3.806749659988284,-17.85853255393505,0.1619229912757873,0.2121115177869796,1.2911152839660645
2.9342578125,4.67959924672246,-1.4228878997996448,-17.8366924780488,0.3108977973461151,0.3476802706718445,1.0247526168823242
2.944237548828125,3.453033837229013,0.3654201429478824,-17.05143641909361,0.2861939072608948,0.3281588554382324,0.7836726903915405
2.954217529296875,2.3731677860863507,1.491726750487089,-15.241204859960078,0.1600682139396667,0.2782869040966034,0.4912333190441131
2.964197509765625,1.7451076373159884,2.416725918914377,-13.137501226627826,-0.0497657619416713,0.25980344414711,0.1471824049949646
2.97417724609375,1.3462629252806304,3.010488222894072,-11.1559042160511,-0.3282533288002014,0.2894763648509979,-0.2274082452058792
2.984157470703125,1.0557327497527005,3.344987596268952,-9.38418738875091,-0.6623342037200928,0.2921838164329529,-0.5863437652587891
2.9941376953125,0.6983266941733658,3.4133921471923587,-7.988785754030943,-0.9676390290260316,0.1727908551692962,-0.8793271780014038
3.004116455078125,0.1777817482262849,3.09289733377248,-6.842527222439647,-1.1462682485580444,-0.0459216609597206,-1.0656285285949707
3.0140966796875,-0.274044027890265,2.408251374427229,-5.280791116181016,-1.1421104669570925,-0.3267479836940765,-1.1872849464416504
3.02407666015625,-0.4113173862479627,1.340499247187376,-3.334971521428227,-0.9648653864860536,-0.5306093096733093,-1.2785155773162842
3.034056396484375,-0.3499734213605523,-0.0510607635430991,-1.1571072578638792,-0.7099907994270325,-0.4739825427532196,-1.3226920366287231
3.044036376953125,-0.3321225612409412,-1.131452592125535,0.927963571190834,-0.4456621408462524,-0.2585048079490661,-1.3333598375320437
3.0540166015625,-0.1269441259145736,-1.84094277760908,2.594193486624956,-0.1518430411815643,-0.1654166728258133,-1.3572813272476196
3.06399658203125,0.0032201310902833,-2.475970719565451,4.351380853313208,0.1647711992263794,-0.1496824920177459,-1.3465416431427002
3.0739765625,-0.2429043548695743,-2.8546447502315044,6.120745564529299,0.4628742635250091,-0.1276504248380661,-1.2574090957641602
3.08395654296875,-0.60230363009274,-2.82885126054436,7.546986574149131,0.7261444330215454,-0.1276926547288894,-1.114953875541687
3.093935791015625,-0.898356660695374,-2.5067481351450085,8.78462282823324,0.9480289220809937,-0.185085117816925,-0.9555646777153016
3.10391552734375,-1.0872763273991644,-2.124356837521493,10.033327588820455,1.1081596612930298,-0.2931840419769287,-0.7996302247047424
3.1138955078125,-1.173382612295076,-1.7381822219669818,11.13832179760933,1.2120951414108276,-0.411141037940979,-0.6712325215339661
3.12387548828125,-1.090917606510967,-1.2717875300109385,12.065817751288414,1.2490837574005127,-0.5091366171836853,-0.580106258392334
3.13385546875,-0.9472259055435656,-0.7314272920034826,12.694931646895409,1.212216854095459,-0.5420413017272949,-0.5165355801582336
3.143835693359375,-0.7907940385337918,-0.1712618632045574,13.000462407678365,1.1090857982635498,-0.5562466979026794,-0.4678652286529541
3.153815673828125,-0.6544286618664861,0.3132668349277228,13.154654606002568,0.9143474102020264,-0.4727472960948944,-0.3954000771045685
3.16379541015625,-0.7375665254108608,0.6369355291433632,13.10274555506706,0.6412142515182495,-0.2349572032690048,-0.2812787294387817
3.173775390625,-0.8499494804009795,0.910098828676343,12.90392043429017,0.320645272731781,0.0659403204917907,-0.1240736618638038
3.183754638671875,-0.8917930643960833,1.1131367448426783,12.689523650372028,0.0412013828754425,0.2109681516885757,0.0498741529881954
3.193734375,-1.1047507554218172,1.0519430020809173,12.660801413756609,-0.1706344485282898,0.200016438961029,0.2326346486806869
3.20371435546875,-1.459937235255539,0.8227911321014165,12.490844660067555,-0.3707588911056518,0.1421185880899429,0.422304093837738
3.213694580078125,-1.618537897671759,0.6007670681752264,11.918791791331769,-0.5834317207336426,0.1009751409292221,0.5879817605018616
3.2236748046875,-1.6526947265565397,0.2975027910195291,11.179343543827532,-0.7705931067466736,0.0398460105061531,0.7120904922485352
3.233654541015625,-1.6436987885437906,-0.1113657955705188,10.583811599826811,-0.9006946682929993,-0.0116928135976195,0.776951253414154
3.243634521484375,-1.577153163360059,-0.4452743086464703,10.187384178066251,-0.9680224061012268,-0.0733560621738433,0.7971549034118652
3.25361474609375,-1.555852747308463,-0.7330553315967321,9.708666011109948,-0.9769495725631714,-0.1332976967096328,0.7909414768218994
3.263594482421875,-1.616796314701438,-1.0123289307035506,9.232271903187035,-0.9310144186019896,-0.168946772813797,0.7602261304855347
3.273573486328125,-1.5549037760205566,-1.253971156682819,8.763636738827824,-0.8470955491065979,-0.1993837654590606,0.6888627409934998
3.28355322265625,-1.352593589606881,-1.5106414404459296,8.435320145741105,-0.7338616847991943,-0.2132627516984939,0.5680986046791077
3.293533447265625,-1.1826920001711696,-1.8586282180339095,8.171087610030174,-0.6062371730804443,-0.1725361049175262,0.4396993517875671
3.303513671875,-1.0384410578858108,-2.156504664671421,7.907071931940317,-0.4551427066326141,-0.0789869800209999,0.3334847688674927
3.31349365234375,-0.9076688981156796,-2.384511602399498,7.690269255924225,-0.2558631598949432,-0.0011869855225086,0.2378351986408233
3.323473388671875,-0.883619402551651,-2.6199709019601345,7.680373300331831,-0.0317146219313144,0.0237252879887819,0.1509127765893936
3.33345361328125,-0.9061196959123016,-2.842065839165449,7.586762119698524,0.1835646778345108,-0.0210166182368993,0.0914230793714523
3.34343359375,-1.0173340455144644,-2.9762206271111964,7.400682498726248,0.3530126810073852,-0.0243202671408653,0.0695279613137245
3.353412353515625,-1.0676753356765956,-2.9116841497927903,7.251518357697129,0.4689368903636932,0.0727575421333313,0.0264894105494022
3.363392578125,-0.713853860585764,-2.659374107065797,6.900750863349438,0.5268610715866089,0.1361226290464401,-0.059744507074356
3.37337255859375,-0.3318511969536543,-2.604513512848317,6.070549747252464,0.5177269577980042,0.1214129328727722,-0.1214781776070594
3.3833525390625,-0.1212633768644183,-2.816549997375905,4.446832693377137,0.4726947546005249,0.118036538362503,-0.1705744266510009
3.39333251953125,0.3704727501623332,-2.683921103823185,2.020164933902025,0.3439889848232269,0.2208486646413803,-0.1948099881410598
3.4033125,1.1402957507293672,-1.7060092603757977,-2.0619284383982417,0.1152920201420784,0.4477741420269012,-0.1703771352767944
3.413292724609375,1.7355056962341069,0.0552875052595045,-7.571918186309933,-0.1915376782417297,0.6429295539855957,-0.0634181946516037
3.4232724609375,1.599427246749401,1.6554960477128624,-13.31813953332901,-0.349874883890152,0.5730298757553101,0.1099543794989585
3.43325244140625,0.7753986087422817,1.8619561934128404,-17.093827115577458,-0.2053187489509582,0.1753107458353042,0.2818601131439209
3.4432314453125,0.3275150674454867,1.8636831633359192,-18.99930417854786,0.1015078499913215,-0.2055319845676422,0.3654192984104156
3.453211669921875,1.0752437981694936,3.0071146548077463,-20.455991179835795,0.242097720503807,-0.291240245103836,0.3703365623950958
3.463191650390625,2.5983494372606275,4.436239403170347,-22.085077067267893,0.1839236170053482,-0.2040219753980636,0.3916965425014496
3.473171630859375,3.582295007914305,3.3276062533572315,-21.598359718251228,-0.0477176010608673,-0.0537214130163192,0.5580911636352539
3.4831513671875,3.6962414128288623,0.8079051862020045,-20.47706903917789,-0.3719621896743774,0.0723263472318649,0.8738144636154175
3.493131591796875,3.285863791649043,-0.6974016882829368,-20.67888340489864,-0.5706952214241028,0.1144040301442146,1.2660104036331177
3.503111572265625,2.836508205038309,-0.768773637644574,-21.061427262735364,-0.5121241211891174,0.0387376062572002,1.510358214378357
3.51309130859375,2.8880668351009486,-0.2875845322637818,-20.68402252135277,-0.303498238325119,-0.1206483170390129,1.477269172668457
3.523071533203125,3.289695624896884,0.0704223387529142,-19.9488436217308,0.0054886806756258,-0.1486873030662536,1.209302544593811
3.53305078125,3.5052053384929893,0.2306266004408709,-18.4835571344018,0.3061883449554443,0.0117076989263296,0.82488614320755
3.543030517578125,3.4087045738980173,0.851613541155681,-17.10395337279439,0.4955239295959472,0.2708686888217926,0.4347524046897888
3.553010498046875,2.9290467880040407,1.8161103880390523,-15.98686774419546,0.5417947173118591,0.4746764004230499,0.1458856910467147
3.56299072265625,2.151222340354323,2.496832890330255,-14.434411507457494,0.4994637668132782,0.5400741696357727,-0.0492673441767692
3.572970458984375,1.3102867720142006,2.950377745324373,-12.147632111144064,0.3991091847419739,0.5113112330436707,-0.1600780189037323
3.582951416015625,0.53723348428905,3.319136823436618,-9.621157239004969,0.256059318780899,0.3815649449825287,-0.2468987554311752
3.592931396484375,-0.0598198240600526,3.2256445930078623,-6.894877587401867,0.1166902184486389,0.2029912173748016,-0.3674656450748443
3.602911376953125,-0.4303577484130859,2.6645661227509376,-4.145809765407443,0.0147762103006243,0.0534476153552532,-0.535166323184967
3.612890380859375,-0.5337526564359665,1.982726160737127,-1.5118787271559238,-0.002350044902414,-0.0503080785274505,-0.7323129773139954
3.622870361328125,-0.477911526748538,1.3550504812397062,0.9820213245928286,0.0584561228752136,-0.1354451775550842,-0.9234123826026917
3.6328505859375,-0.4269922175027429,0.7947385383758694,3.3081390440821647,0.1659168004989624,-0.1932802498340606,-1.0748867988586426
3.642830322265625,-0.3656011986032128,0.2147981677932664,5.334743071120977,0.2756636440753937,-0.2181455045938491,-1.1568611860275269
3.652810546875,-0.4280125004611909,-0.3213211447088047,7.001583227407932,0.3620288968086242,-0.2052222490310669,-1.1611731052398682
3.66279052734375,-0.6780750565223396,-0.6615338176965713,8.348257363837957,0.4103085994720459,-0.1452127546072006,-1.08457612991333
3.672770263671875,-0.91353099508211,-0.7499971140474081,9.388024190434813,0.4422292709350586,-0.120729774236679,-0.9493515491485596
3.682750244140625,-1.1179770244807004,-0.7298122580222786,10.225948594260217,0.4753735363483429,-0.1132581681013107,-0.7647759914398193
3.692730224609375,-1.4145287983857096,-0.6590087561983615,11.107010129022598,0.5086553692817688,-0.1702330410480499,-0.5670586824417114
3.702709228515625,-1.5428268231272697,-0.5475436467055231,11.83792084980607,0.5114503502845764,-0.238075315952301,-0.368114560842514
3.712689453125,-1.692168366549909,-0.3716084761939943,12.305787367880344,0.4432075917720794,-0.2743693888187408,-0.1941584795713424
3.72266943359375,-1.6125662759162485,-0.1766001737589016,12.543814033710955,0.3181258141994476,-0.2756395637989044,-0.0459075570106506
3.7326494140625,-1.4216494440458711,-0.0955561772212386,12.693439947032928,0.1698923856019973,-0.2440102845430374,0.0733200311660766
3.74262939453125,-1.2939344798892736,-0.0124789943555369,12.734213855969903,0.0123922675848007,-0.1526631414890289,0.1425552070140838
3.752609375,-1.151053291587159,0.1384901868015527,12.652184392058848,-0.1288633942604065,-0.0525474548339843,0.2081190347671508
3.76258935546875,-1.1699287455141545,0.3061768766667693,12.41692835998535,-0.2445410639047622,0.0191271100193262,0.2959146797657013
3.7725693359375,-1.4049800487957893,0.5069610590895638,12.097805127179624,-0.3743528723716736,0.0649918019771575,0.3961677849292755
3.78254833984375,-1.6131883533373474,0.6838458950087428,11.690147870874403,-0.5330612659454346,0.0731314122676849,0.471303254365921
3.792528564453125,-1.6791593935035167,0.7005721350125969,11.207370199394225,-0.7149636745452881,0.0386389531195163,0.5074149370193481
3.80250830078125,-1.6904758834183216,0.4724816837195307,10.66221936610937,-0.8665778636932373,-0.0134459659457206,0.5252214670181274
3.812488525390625,-1.7389625586897133,0.1782602889908477,10.1013589225173,-0.9398600459098816,-0.0721998289227485,0.5470250248908997
3.822468505859375,-1.78626557713449,-0.0194424036273732,9.520825225684046,-0.9279387593269348,-0.1384162157773971,0.5725066661834717
3.8324482421875,-1.7410840808883308,-0.2557342267557047,9.028370209798217,-0.8285596966743469,-0.2241739928722381,0.5779208540916443
3.84242822265625,-1.5070391781702637,-0.5782014544934034,8.811675670331717,-0.6880375742912292,-0.2671656310558319,0.5505292415618896
3.85240869140625,-1.1539524470947682,-0.9689701929051427,8.76759921271801,-0.5402694344520569,-0.2374239712953567,0.5020767450332642
3.862388427734375,-0.9053010730057954,-1.229266192884743,8.792945835420488,-0.4053998291492462,-0.1699982285499572,0.4290372729301452
3.872367431640625,-0.667526628370583,-1.312854868936539,8.7913015753448,-0.2791748046875,-0.1140534654259681,0.3391060531139374
3.882347412109375,-0.510363451411575,-1.348707103562355,8.833050466793775,-0.1497638076543808,-0.0585606470704078,0.260382205247879
3.892327392578125,-0.4795971417479217,-1.3881228758886457,8.970762070438266,-0.014193994924426,-0.0010155923664569,0.1973265409469604
3.902307373046875,-0.503541861763224,-1.2909789910845455,9.16363149768114,0.0989364832639694,0.0210399441421031,0.172340527176857
3.912287353515625,-0.5858521884422749,-1.2040990914676335,9.091972621136904,0.2016956210136413,0.0241233520209789,0.1971808969974517
3.92226708984375,-0.6378850849531591,-1.2769836373493075,9.153937786662578,0.2824860215187073,-0.045413564890623,0.247314304113388
3.93224755859375,-0.5825142761912196,-1.4624555016867815,9.0624729704082,0.3528983891010284,-0.1387174129486084,0.3111803829669952
3.9422275390625,-0.4332486475490033,-1.6142834550976752,8.832453669944405,0.3767749369144439,-0.183337926864624,0.3639596402645111
3.95220751953125,-0.1278225892495363,-1.5273894538901744,8.063294759309292,0.3513601422309875,-0.15662881731987,0.3848835527896881
3.9621865234375,0.1641232252299785,-1.3384930219314992,6.556941517576575,0.2819164097309112,0.0269425772130489,0.3380378782749176
3.97216650390625,0.7231408904995769,-0.9155326902933418,4.168746404358744,0.1242634057998657,0.3017520308494568,0.2502267956733703
3.982146484375,0.967269599532336,-0.4698825340718031,0.3059200523614883,-0.0945266485214233,0.6890129446983337,0.2237580269575119
3.992126220703125,0.5315491550423205,0.2164430854560807,-3.926092663249373,-0.2541168630123138,0.7684808969497681,0.2931775748729706
4.002106201171875,-0.048200113414973,1.057219773440063,-7.98591867416203,-0.2901228666305542,0.4281217753887176,0.4444940090179443
4.012085205078125,-0.6820513397421687,1.8428151473522183,-11.77437747517824,-0.3695345818996429,-0.0575943365693092,0.647305965423584
4.0220654296875,-0.5453455521393566,2.757903747139871,-16.411518220877646,-0.5545647740364075,-0.4137657582759857,0.7826238870620728
4.03204541015625,0.473786994164437,3.193155697335303,-20.63670430533886,-0.7447994351387024,-0.574424684047699,0.8381404280662537
4.042025634765625,1.527358035838604,2.424189532793313,-23.125112189412118,-0.8319525122642517,-0.542037308216095,0.8298927545547485
4.05200537109375,2.2082826365731654,0.8136782897107303,-24.221918415570254,-0.7410870790481567,-0.3904432654380798,0.7299405932426453
4.0619853515625,2.6064491570860144,-0.4348764679465443,-24.3450046970129,-0.5140300393104553,-0.2271955907344818,0.5984205007553101
4.07196533203125,2.541236972463131,-1.2496569467455148,-23.557443283724783,-0.2662631571292877,-0.0855510979890823,0.4382563829421997
4.0819453125,2.369439559343457,-1.65487557772696,-22.56672778054476,-0.0764209032058715,-0.0119256153702735,0.2700955271720886
4.09192431640625,2.162247007715702,-1.4771639721274374,-22.342954096472265,0.1128488853573799,0.0186333581805229,0.1027624532580375
4.101904541015625,1.8550874766871333,-0.8621616039812564,-22.227389442706105,0.3923155963420868,0.0974311232566833,-0.0733397006988525
4.11188427734375,1.766570988844335,-0.2026675119513645,-21.265649858641623,0.7396493554115295,0.1484519690275192,-0.3290841281414032
4.121864501953125,1.9238585228353735,0.1702408495937473,-19.443139832693337,0.997696340084076,0.2801578044891357,-0.6086527705192566
4.131844482421875,1.8609660133317112,0.5140821066085249,-17.440932580286262,1.1208946704864502,0.4170842170715332,-0.8454986214637756
4.14182421875,1.5200290081247687,0.8680038272034376,-15.438338374388216,1.137312889099121,0.4782322347164154,-0.9731191396713256
4.15180419921875,0.7541008230391889,1.2136178843107073,-13.314345986264945,1.0420713424682615,0.4076606035232544,-0.961818516254425
4.16178466796875,-0.1120804649122059,1.733134875449538,-11.388082155853509,0.8669841289520264,0.2227654159069061,-0.8859599232673645
4.171763427734375,-0.7338542999546974,2.279622510296106,-9.378038218471408,0.6582087874412537,-0.0173007082194089,-0.8275509476661682
4.181743408203125,-1.0121854305796325,2.62643162240684,-7.016941540059447,0.4869216084480285,-0.2556666731834411,-0.8434853553771973
4.191723388671875,-0.9790609404172748,2.6558368728503585,-4.186736819079518,0.3757047951221466,-0.4614640474319458,-0.9448937773704528
4.201703369140625,-0.6947985931124537,2.4155599438749253,-1.255619070020318,0.2999220788478851,-0.6332892179489136,-1.094685673713684
4.211683349609375,-0.3918775764364749,1.9111624151304365,1.3374766844958066,0.2210227251052856,-0.7328493595123291,-1.225533962249756
4.221663330078125,-0.2691752528101205,1.1308619327560063,3.435147467404604,0.1391345858573913,-0.7080619931221008,-1.277989149093628
4.231643310546875,-0.2986980652187019,0.3372941186599433,5.130713951960206,0.1038487702608108,-0.5825448036193848,-1.2392092943191528
4.24162353515625,-0.2652361597955227,-0.3561463378418237,6.748455438557267,0.1657972931861877,-0.5156866908073425,-1.1601370573043823
4.251603515625,-0.1832096915591508,-1.050543437481299,8.485717038547993,0.2939683198928833,-0.4818924963474273,-1.0478060245513916
4.26158251953125,-0.1134273494765162,-1.424631236335635,9.81118355177641,0.4138005077838897,-0.4491041600704193,-0.9067946076393129
4.2715625,-0.1182597380690276,-1.492870367564261,10.611609122812748,0.5271320939064026,-0.4462561905384063,-0.7339301705360413
4.28154248046875,-0.2373406563278287,-1.5930819693759082,11.447309420847892,0.6304465532302856,-0.4937779307365417,-0.552433967590332
4.2915224609375,-0.1664213461045175,-1.456756267131865,12.148225985383986,0.7082212567329407,-0.5145537853240967,-0.3906523287296295
4.301502197265625,0.0556044348547235,-1.0710304182581605,12.616589347064494,0.7375483512878418,-0.4618027210235595,-0.2558918297290802
4.311482177734375,0.3100513069473207,-0.5963699291948229,12.81290686893463,0.7074724435806274,-0.3909999132156372,-0.0946294590830802
4.321462646484375,0.3210077313780784,-0.1224465952996164,12.755654118883609,0.6299473643302917,-0.375688761472702,0.0990836173295974
4.3314423828125,0.1608657212713733,0.415253848914057,12.59177522380352,0.4990005195140838,-0.3967490494251251,0.3300936818122864
4.34142138671875,-0.0814206478303298,0.8960304097048938,12.401864061844348,0.3233880996704101,-0.3797490894794464,0.5659719705581665
4.351401611328125,-0.303307495242916,1.2180963448990136,12.11752455765009,0.1186357662081718,-0.3378344178199768,0.7636794447898865
4.36138134765625,-0.2989009308470413,1.3379158065654335,11.724552829301356,-0.0864985808730125,-0.2768084108829498,0.8895980715751648
4.371361328125,-0.3261169641505926,1.3098331830278038,11.285554678314924,-0.2621537446975708,-0.2255603969097137,0.9346334338188172
4.38134130859375,-0.2859434139932506,1.2766603967443109,10.86727899736166,-0.3920014202594757,-0.1927447766065597,0.8906283974647522
4.3913212890625,-0.2330861406885087,1.0943033764917405,10.391148508810996,-0.459782600402832,-0.1600930839776992,0.7872071862220764
4.401301513671875,-0.241037282356061,0.8068507817782461,9.894750308257342,-0.4530532658100128,-0.132419541478157,0.6494922041893005
4.411281494140625,-0.2833334872231818,0.5445111471418291,9.397211705496908,-0.3761100172996521,-0.1142322793602943,0.5055986642837524
4.421261474609375,-0.3574175998866558,0.3144107807984575,9.002100042510031,-0.2536365091800689,-0.1209641024470329,0.3699744343757629
4.431240478515625,-0.3943833852449431,0.0343706908311694,8.76672242988348,-0.1248806864023208,-0.1420475393533706,0.2597528398036957
4.441220458984375,-0.4408316134912893,-0.2569575397392735,8.654387259557843,-0.0165534894913434,-0.1628345549106598,0.1748843193054199
4.451200439453125,-0.4197084171701222,-0.4922136083453893,8.60789672653973,0.0820934623479843,-0.1836777776479721,0.1186593919992446
4.46118017578125,-0.3679587945800274,-0.6712951871238648,8.623030582785606,0.1978466361761093,-0.2210966497659683,0.1010989770293235
4.47116064453125,-0.3562249560359865,-0.748138407503441,8.727320393821596,0.3215542137622833,-0.2614624500274658,0.116300567984581
4.481140625,-0.3175293146777898,-0.6688399029262364,8.87024768628776,0.4246887564659118,-0.2762812972068786,0.1319510340690612
4.491120361328125,-0.1624531000606715,-0.5654084622852504,9.007129268848896,0.4943589270114898,-0.2761108577251434,0.1378208994865417
4.501100341796875,-0.0067188279601978,-0.5920077153973281,9.09421426258385,0.5408965349197388,-0.2881317734718323,0.1614862978458404
4.511080322265625,0.0846047851586248,-0.6077195907268673,9.04164002573788,0.5704293847084045,-0.2993718981742859,0.1763550043106079
4.521059326171875,0.1903244554677978,-0.6590817483693361,8.923983952650428,0.6170654296875,-0.331002801656723,0.1448729187250137
4.531039306640625,0.3227224994067103,-0.8358929710630327,8.58494021384418,0.6785801649093628,-0.2901864051818847,0.0782238543033599
4.541019287109375,0.3601440657084807,-0.8338958058964461,7.92194801403284,0.7064523696899414,-0.1973424553871154,-0.0216264594346284
4.55099951171875,0.5103728768270462,-0.5821701389286666,6.745394297420978,0.6865756511688232,-0.1333765238523483,-0.1760242879390716
4.5609794921875,0.6873368058644235,-0.591305193151161,5.377434211856127,0.6144558191299438,-0.0415603183209896,-0.3534595966339111
4.57095947265625,0.8209916083987802,-0.7896146194908767,3.6009336574107405,0.4685313105583191,0.1418097615242004,-0.5069359540939331
4.5809384765625,0.961160249806568,-0.816939775724709,0.7396955002635717,0.2417293339967727,0.3097678124904632,-0.5784105062484741
4.590918701171875,0.7439872791733593,-0.7076271680906414,-3.3030402596384283,0.004166318103671,0.3960582315921783,-0.5035583972930908
4.600897705078125,0.0800734801382292,-0.6406685781918465,-7.7144748918980355,-0.1421540826559066,0.4372552335262298,-0.2373308986425399
4.61087744140625,-0.4561170070370658,-0.5365498128738254,-11.613290256643294,-0.1677832901477813,0.3464528918266296,0.1711572557687759
4.62085791015625,-0.7016297543067485,-0.5560950558211654,-14.751777667462823,-0.120921604335308,0.1463875621557235,0.6228097677230835
4.630837890625,-0.6775413149718195,-1.1226165208496153,-16.940524559569358,-0.1555365771055221,-0.0924993231892585,1.0552600622177124
4.640817626953125,-0.2470648172835819,-1.2326280705332755,-19.42602736985087,-0.3587168455123901,-0.2764113545417785,1.4533767700195312
4.650797607421875,0.2243404876423999,-0.698198903075233,-22.194013242805003,-0.5678220391273499,-0.4882382154464721,1.7404364347457886
4.66077783203125,0.7367526517447084,-0.8333717820223421,-23.664859702348707,-0.657145082950592,-0.6296005845069885,1.8982956409454343
4.6707578125,1.0949058724295346,-1.8090657302245496,-23.92804419031143,-0.6255069971084595,-0.6256913542747498,1.8473024368286133
4.680737548828125,1.139173176440224,-2.9389573566436766,-23.927158055126664,-0.4936133325099945,-0.3850143849849701,1.5269834995269775
4.6907177734375,1.3491226986259222,-3.3687107094228264,-23.67077974004745,-0.2262942641973495,-0.0303729493170976,0.9199654459953308
4.70069775390625,1.8032056060194968,-2.731865050520003,-23.079463367915157,0.1588994264602661,0.2688083946704864,0.1483070999383926
4.710677734375,1.7286895864784717,-1.7854855326727033,-22.510910616254804,0.6003625988960266,0.5444279909133911,-0.542813777923584
4.72065673828125,1.097923539750278,-1.097662258465588,-21.243003142547607,0.994392991065979,0.7990515232086182,-1.0302269458770752
4.73063671875,0.5093109832165762,-0.3376373060744255,-19.10513420476317,1.2094027996063232,0.9628041982650756,-1.31280517578125
4.74061669921875,0.1230453101114369,0.5789543186873197,-16.68852080631256,1.2211660146713257,0.9839336276054382,-1.3679980039596558
4.7505966796875,-0.4213532617677002,1.5858065715454517,-14.284737663340568,1.0896754264831543,0.8548467755317688,-1.1981849670410156
4.76057666015625,-1.0875653734736144,2.541768010599911,-11.536267807239293,0.8775488138198853,0.60431969165802,-0.8939066529273987
4.770556640625,-1.4389504151977597,3.3090193340480325,-8.494308925804495,0.5944435596466064,0.2879358828067779,-0.5687376260757446
4.78053662109375,-1.4682107042126358,3.7613673804730174,-5.615512900134921,0.2746265232563019,-0.0396719872951507,-0.2906560897827148
4.790516845703125,-1.272940061046928,3.7464723014190793,-2.9221389083117244,-0.0043388050980865,-0.3502658307552337,-0.0960663408041
4.80049658203125,-0.8838035269469022,3.3467893849939108,-0.2839905446261167,-0.1797254830598831,-0.5627409815788269,-0.0062098801136016
4.8104755859375,-0.291054455130361,2.709946648700535,2.4770956319421527,-0.2413686066865921,-0.6585301160812378,-0.0275255553424358
4.820455810546875,0.3518030479405075,1.9782333793625235,4.996078687021136,-0.2128370553255081,-0.6566756963729858,-0.1183022633194923
4.830435546875,0.8504961544983088,1.1900247542120514,7.083319261330366,-0.1282428056001663,-0.5492810606956482,-0.2181907892227172
4.840415771484375,0.9991270654335618,0.4840884618178009,8.75713334828317,-0.0522015653550624,-0.3018361330032348,-0.2491904944181442
4.850395751953125,0.7994150788195431,0.1398699507221579,9.834094471764564,0.0097622042521834,-0.0858716294169426,-0.2442079931497573
4.8603759765625,0.6807116155710071,-0.1133048921406269,10.677432132810354,0.0716157704591751,-0.0041285227052867,-0.2002729326486587
4.870355712890625,0.371403564739041,-0.4770701074883341,11.40117310809493,0.116772323846817,0.0372351631522178,-0.1024017632007598
4.880335693359375,0.0729019399744691,-0.449127038551867,11.795839949923751,0.130435511469841,0.0553930141031742,-0.003442401997745
4.890314453125,0.0249688503150944,-0.0849981044583022,11.902328147786855,0.1338057518005371,0.052919466048479,0.0678898394107818
4.900294677734375,0.0768896990029606,0.4150253008551895,12.07528232972622,0.1232964918017387,0.0500324144959449,0.1091426238417625
4.910274658203125,0.1346911415784619,0.8477455406159162,12.21407354530096,0.0701885297894477,0.0661293566226959,0.1331449002027511
4.9202548828125,0.1465473735263105,1.152546671950072,12.21901509335637,-0.0424611717462539,0.0746812224388122,0.1725242137908935
4.930234619140625,-0.0154420408456353,1.2923938263185322,12.066597503489255,-0.1883288919925689,0.0488685332238674,0.2412726432085037
4.94021484375,-0.2917998484038748,1.3038066162146629,11.730302186608316,-0.3457657694816589,0.0227345936000347,0.3445696830749511
4.95019482421875,-0.5870782961711287,1.3228633449926972,11.178048243319989,-0.4855202138423919,0.0120396055281162,0.4634159207344055
4.960174560546875,-0.8143216291155666,1.3585155270017684,10.629940898317098,-0.5738359093666077,-0.0180714633315801,0.5638761520385742
4.970154541015625,-0.9395599740255623,1.2014867900773882,10.228409431415797,-0.6050007343292236,-0.079480230808258,0.6142099499702454
4.9801337890625,-1.024859618713707,0.947976723910868,9.905954423838851,-0.592558741569519,-0.1287613362073898,0.6087348461151123
4.990113525390625,-1.093858263072744,0.8695581439733505,9.49944341495931,-0.5542734265327454,-0.1652604937553405,0.5445822477340698
5.00009375,-1.0671508734110742,0.9325131973192096,9.09171893863678,-0.4984263479709625,-0.2092180997133255,0.4180048704147339
5.01007373046875,-1.019075774615258,0.93518190507181,8.790075832942128,-0.4323322772979736,-0.2524939179420471,0.2559073269367218
5.0200537109375,-0.8927357520736754,0.8347023730389773,8.678722659391164,-0.3567175269126892,-0.2840436995029449,0.0447377748787403
5.03003369140625,-0.7250680591698736,0.7497380977850407,8.63550018825829,-0.290611207485199,-0.2807717323303222,-0.1781181991100311
5.040013671875,-0.5647119313884527,0.7419122995302081,8.626482769066095,-0.2334199249744415,-0.2583337724208832,-0.3959982097148895
5.04999365234375,-0.4571385686371475,0.7572595793310553,8.621585644674301,-0.2081915438175201,-0.2437747865915298,-0.5882472395896912
5.05997265625,-0.4346648710224777,0.6814386146713047,8.567478791433572,-0.2189898937940597,-0.2389591038227081,-0.7387921214103699
5.06995263671875,-0.5331082941178232,0.464542561283335,8.469470837146043,-0.2488487213850021,-0.2893722355365753,-0.8228052854537964
5.0799326171875,-0.7638008176680654,0.2237682772450148,8.21408211762607,-0.2775063514709472,-0.3696215152740478,-0.8792959451675415
5.08991259765625,-1.0251663465753198,0.0254645499937236,7.992353091123699,-0.2849136590957641,-0.420713722705841,-0.930824100971222
5.099892822265625,-1.0741329873833805,-0.2907283284485339,7.834898676133156,-0.2633547782897949,-0.451215922832489,-0.9956750273704528
5.109872802734375,-1.0857337010670454,-0.7129698442928493,7.736005171182751,-0.1910896301269531,-0.4555566012859344,-1.1129264831542969
5.1198525390625,-0.9084510614693164,-0.8866472990054637,7.649349801036715,-0.0857844576239585,-0.4097315073013305,-1.301469326019287
5.12983251953125,-0.3342720308924093,-0.6722349521920085,7.194731471592188,0.0247329957783222,-0.2844193875789642,-1.5094749927520752
5.139811767578125,0.3738992905449122,-0.5624561883509159,6.690477296841144,0.1053981855511665,-0.1645161062479019,-1.664946436882019
5.149791748046875,0.7495765505477786,-0.9212162888877092,5.93180003273189,0.1313613355159759,-0.0106740789487957,-1.7156282663345337
5.159771728515625,0.8916318824850022,-1.392999249753356,4.803748773482441,0.0348342172801494,0.1742869466543197,-1.6582238674163818
5.169751953125,1.073138496453315,-1.6982397954180837,2.6775381247878074,-0.1166045740246772,0.2667891979217529,-1.5615482330322266
5.179731689453125,1.179608354942128,-2.2395783769384026,-0.1360474698245525,-0.1864536851644516,0.3541642427444458,-1.4327690601348877
5.189711669921875,1.224554508062452,-2.436794308952987,-2.954557076835632,-0.1324144303798675,0.5040498971939087,-1.2677124738693235
5.199691650390625,1.82692316621542,-1.4981474311843517,-6.437472842109203,-0.0765165612101554,0.7634600400924683,-0.9991307854652404
5.20967138671875,2.470255264528096,-0.0118570265322923,-10.47874262111187,-0.1533852368593216,0.9568986892700196,-0.5384001731872559
5.21965185546875,2.6527856685861946,0.9292033421188592,-14.14758077096939,-0.4257908761501312,0.9005263447761536,0.1043333113193512
5.229630859375,2.571124161204696,1.1022648568902165,-17.269411646020412,-0.8234890103340149,0.7343589663505554,0.8907437324523926
5.239610595703125,2.507101770888269,1.383131351211667,-20.31182937713861,-1.2120016813278198,0.4702963829040527,1.686778903007507
5.2495908203125,2.5909140265628694,1.8579680005595087,-23.13787580939531,-1.421986103057861,0.2357280850410461,2.35242223739624
5.25957080078125,2.6662074602171777,1.618132385610789,-24.542685323929785,-1.3909510374069214,0.1764063239097595,2.769021511077881
5.269550537109375,2.934642708314955,0.9417372449994088,-24.86173607602119,-1.205668807029724,0.2011936902999878,2.897249698638916
5.279530517578125,3.112380325138569,0.1602897662806324,-24.51934185774326,-0.9548373222351074,0.2736717462539673,2.795694589614868
5.2895107421875,2.862657376295328,-0.68574624873735,-23.49551669664383,-0.6790035963058472,0.3679535090923309,2.483928918838501
5.299490966796875,2.4986282493144274,-1.0386959824949502,-21.61479881187677,-0.4154310822486877,0.5126482248306274,1.929341197013855
5.3094697265625,2.331390545325726,-0.8646613118425012,-19.125055879807476,-0.2633262276649475,0.670569896697998,1.1962696313858032
5.31944970703125,2.085327288033813,-0.6223609142154455,-17.33260313847065,-0.2003687769174575,0.7870911955833435,0.5112124085426331
5.329429931640625,1.2974796051502226,-0.5573714689651503,-15.733346572113035,-0.0957400873303413,0.8015108704566956,-0.0234438069164752
5.33940966796875,0.5162965312549844,-0.3377402915248647,-13.567448640674352,0.0023542293347418,0.7778639197349548,-0.3721143305301666
5.3493896484375,-0.0635259120363742,0.0666002368812216,-11.39447799437046,0.0171219892799854,0.720009446144104,-0.5552405118942261
5.35936962890625,-0.535647530271858,0.2940240637919865,-9.191430189710855,-0.0563586317002773,0.5851794481277466,-0.6360611915588379
5.369349609375,-0.8910832356262952,0.2678903640987351,-6.735128923994302,-0.1649098694324493,0.4309715330600738,-0.6595843434333801
5.379329833984375,-1.0475967895701528,0.0791158140872139,-4.010821449247002,-0.2319458723068237,0.2474785596132278,-0.6648895740509033
5.389309814453125,-1.0950785986479372,-0.3374826635019853,-1.1760481051772833,-0.2149538397789001,0.0855634361505508,-0.6657077074050903
5.39928857421875,-1.1009348503954708,-1.0138541675094517,1.730175441122055,-0.0994282662868499,-0.0081086922436952,-0.6342321634292603
5.409268798828125,-1.2179771754987536,-1.5563316168665886,4.56549648220241,0.0808826461434364,-0.0677744224667549,-0.6149271726608276
5.419248779296875,-1.1213997654709964,-1.691572300352901,6.901183994069695,0.2731616199016571,-0.0899750217795372,-0.5918434262275696
5.429228515625,-1.1030421979382634,-1.7604986831933258,8.658632642042637,0.4554624557495117,-0.055215448141098,-0.525093138217926
5.43920849609375,-1.2593226007133722,-1.8311039590314029,9.998529831683635,0.6192982196807861,-0.0108458530157804,-0.4072254002094269
5.44918896484375,-1.5309937619924543,-1.6489100934512912,10.96353104789257,0.7402006983757019,-0.0292517580091953,-0.2398915290832519
5.4591689453125,-1.8665341688528656,-1.0653840098690242,11.587889273405075,0.7942476272583008,-0.0611336417496204,-0.0444705486297607
5.469148681640625,-2.1814500130966303,-0.2875588133006356,12.08777239346504,0.7583365440368652,-0.0791672319173812,0.151644617319107
5.4791279296875,-2.2497055109381674,0.3620465383289382,12.60269993792176,0.6011119484901428,-0.085860326886177,0.333489716053009
5.489107666015625,-2.226549822408706,0.7129901564285158,12.912738531517984,0.3323055505752563,-0.1053496152162551,0.4835063815116882
5.499087646484375,-2.176170026867092,0.9615869507860392,12.869357654953005,-0.0065324730239808,-0.11081213504076,0.612510621547699
5.509067626953125,-2.1090525931447743,1.145414920374006,12.689421943563222,-0.3585930168628692,-0.0966558381915092,0.7010026574134827
5.519047607421875,-1.973094555169344,1.0311115917805582,12.478317186927796,-0.696410596370697,-0.0796098187565803,0.7454932928085327
5.52902783203125,-1.8418302279680967,0.6266313580762595,12.125717216455936,-0.9848439693450928,-0.0665235742926597,0.7424613237380981
5.5390078125,-1.755226003487408,0.223298011118453,11.54569380723238,-1.2055202722549438,-0.0271216072142124,0.6921460628509521
5.54898779296875,-1.7196173683591185,-0.1911848168904893,10.706724862790107,-1.3120824098587036,0.0334085822105407,0.6037914156913757
5.558967529296875,-1.6437185161575674,-0.6998479123912751,9.979843835914137,-1.2981737852096558,0.1224804297089576,0.515874445438385
5.56894677734375,-1.6952207398578525,-1.148277689393982,9.450081710419058,-1.159160017967224,0.146241158246994,0.4205452501773834
5.578926025390625,-1.686562217105925,-1.4441780867181715,9.006409137880802,-0.9571093320846558,0.0699228048324585,0.3463461995124817
5.58890625,-1.8198703250944608,-1.730304328198731,8.65903596214652,-0.7601656317710876,-0.0160112809389829,0.2939620912075043
5.598886474609375,-1.989284057947993,-1.997702634464204,8.43019798042178,-0.6144644021987915,-0.0764616131782531,0.2413411438465118
5.608866455078125,-1.973005561711639,-2.176458196158707,8.268924883925914,-0.5095289349555969,-0.1023065224289894,0.1774963736534118
5.61884619140625,-1.955529380123317,-2.2515087609678504,8.247793833091855,-0.412281334400177,-0.1273433566093444,0.0903806984424591
5.628826171875,-1.85454781685248,-2.252308386912942,8.30330353886783,-0.2898859083652496,-0.1959399878978729,-0.0092553487047553
5.638806396484375,-1.847541152960807,-2.276351087410003,8.252816045168041,-0.1284776329994201,-0.2517142593860626,-0.1037622392177581
5.64878515625,-1.8566173166029156,-2.301887825857103,8.357784486117959,0.0810473561286926,-0.2884185016155243,-0.2074319124221801
5.65876513671875,-1.739657262955606,-2.287819845277071,8.461668054440617,0.3090456128120422,-0.3074046969413757,-0.3100199699401855
5.668745361328125,-1.4768667427465318,-2.337993158461153,8.806199869269133,0.5080484747886658,-0.2777333557605743,-0.3847858011722564
5.678725341796875,-1.3072078029602765,-2.5519799002736807,9.263381327199935,0.6273428797721863,-0.1911248117685318,-0.392130434513092
5.688705322265625,-1.251609542118013,-2.817112015172839,9.522221063956618,0.6627634763717651,-0.0335418470203876,-0.3225686848163605
5.698685302734375,-1.1871474452100694,-2.953612197200954,9.643187284505366,0.6364244818687439,0.1156789511442184,-0.2074490934610366
5.7086650390625,-0.9887496099345384,-3.090295626841485,9.366512031328677,0.5774639248847961,0.2388075441122055,-0.0740774422883987
5.718645263671875,-0.8981177373729645,-3.0028821318045256,8.466535952737926,0.4762236177921295,0.3288186490535736,0.1150368154048919
5.728624267578125,-0.6275749956019222,-2.439924862063676,6.746037856021523,0.2919470071792602,0.338130921125412,0.3597008883953094
5.73860400390625,-0.4482174494262784,-1.6899869308575988,3.907195655077696,-0.0041735060513019,0.3771422505378723,0.5922536253929138
5.748584228515625,0.0131893711145967,-0.6554063477922231,-0.3073264120280742,-0.4821086525917053,0.452332079410553,0.7917091846466064
5.758564453125,0.4374925687290728,0.8975308773957192,-6.526708291876315,-0.9856550693511964,0.476203441619873,0.9720285534858704
5.76854443359375,0.700347970867902,3.0192735868960616,-13.198912265402075,-1.1237763166427612,0.1490631252527237,1.0424199104309082
5.778524169921875,1.1544452721130103,4.9759027449548245,-17.802289857709408,-0.7426106333732605,-0.3167567551136017,1.0103578567504885
5.788504150390625,1.802477584005892,5.992214461684227,-19.67947255408764,-0.1865987777709961,-0.542549192905426,0.9103288054466248
5.798484375,2.997275105577707,5.867770920413732,-20.57866128169298,0.060054562985897,-0.4539149701595306,0.7195776104927063
5.80846435546875,4.324555682490765,5.440877633240818,-21.728745509052278,0.0002495548687875,-0.2611583173274994,0.5034266710281372
5.818443359375,4.749308158242703,5.260868272092938,-22.181497460103035,-0.1186524704098701,-0.1875565946102142,0.328961431980133
5.828423583984375,4.710441836492717,5.182700159785151,-21.505416061615943,-0.2227514386177063,-0.1463862508535385,0.216226652264595
5.8384033203125,4.6934278655886645,5.128739437016844,-20.776711326444147,-0.3269916772842407,-0.0775341466069221,0.1251828372478485
5.84838330078125,4.991316587185859,5.08945196724534,-20.249928509020805,-0.4183476865291595,0.0588439330458641,0.0692958682775497
5.85836328125,5.06699638980925,4.525729119959474,-19.251819972980023,-0.5182815194129944,0.2263517826795578,0.0595771446824073
5.868343017578125,4.966780696344375,3.7764129739135504,-18.323414503240585,-0.6150900721549988,0.3705480992794037,0.1124334335327148
5.8783232421875,4.382474495235085,3.0602091161355376,-17.32600037920475,-0.6723777651786804,0.4872919619083404,0.2017499506473541
5.888303466796875,3.5649782546713946,2.58118670553565,-15.736856041538717,-0.7205878496170044,0.5358611345291138,0.2710669934749603
5.8982822265625,2.88564896030426,2.495603933057189,-13.926805684190988,-0.8257169723510742,0.5510081648826599,0.3020976185798645
5.908262451171875,2.335825459033251,2.738386268982291,-12.230212194675206,-1.003495216369629,0.530168354511261,0.2806698083877563
5.918242431640625,1.7817260340087115,2.892520015117526,-10.805814182573556,-1.1811225414276123,0.441955417394638,0.2413817942142486
5.92822216796875,1.0161883095454425,2.5776111851364374,-9.336917103531956,-1.2159332036972046,0.3314765691757202,0.2347896844148636
5.9382021484375,0.2361901711184531,1.805241641891748,-7.101131396874785,-1.1143158674240112,0.2389286011457443,0.2408621162176132
5.948182373046875,-0.4045753646418452,0.9391402142435312,-4.64617745411396,-0.9392019510269164,0.1637992262840271,0.2248354852199554
5.958162353515625,-0.8240182627435774,0.1167906884297728,-2.380068505385518,-0.7371876835823059,0.0818233266472816,0.1710341274738311
5.968142333984375,-1.1442742259062826,-0.7834761898010969,-0.1984521958112716,-0.5087957382202148,-0.0030502863228321,0.0842140242457389
5.978121337890625,-1.4026780554637313,-1.6282865537479518,2.0516952136754987,-0.2423616796731948,-0.0635593235492706,-0.050500463694334
5.988101318359375,-1.4622756150752303,-2.240795059251785,4.198372896337509,0.0409539230167865,-0.0598194450139999,-0.2077145874500274
5.998081298828125,-1.5346422014974055,-2.68270792864114,6.036738078543544,0.3125861883163452,-0.0197900421917438,-0.3646652698516845
6.008061279296875,-1.6145441518604755,-2.917827767114341,7.551599620902538,0.5507902503013611,0.0294808335602283,-0.4869402945041656
6.018041259765625,-1.7732912370100615,-2.945304972104728,8.774016094022988,0.7401927709579468,0.0536964237689971,-0.5749510526657104
6.028021240234375,-1.9035607079550625,-2.780445833815634,9.71336089092791,0.8861539959907532,0.0300315748900175,-0.6126134991645813
6.03800146484375,-2.036199538379908,-2.483067399828136,10.471510916292669,0.9769564270973206,-0.0224455185234546,-0.5997552275657654
6.0479814453125,-2.1397937683671717,-2.1436635955378414,11.12330893739462,1.0107324123382568,-0.1063345596194267,-0.5390426516532898
6.057961181640625,-2.226403984197229,-1.7372931641727685,11.62316633849144,0.9732069373130798,-0.1999227553606033,-0.44992196559906
6.0679404296875,-2.2265610744550823,-1.2978323641106486,12.03764262716174,0.8525041937828064,-0.2703287601470947,-0.3494267761707306
6.07792041015625,-2.1556644144549963,-0.9831330121617764,12.310097632294893,0.6599114537239075,-0.2930455207824707,-0.248170405626297
6.087900146484375,-2.100231134916097,-0.7390536952286958,12.465048540031908,0.3910980820655823,-0.2232869416475296,-0.1376470923423767
6.097880126953125,-2.1000626464813945,-0.4958353790391236,12.384940984094142,0.0541323237121105,-0.0696579590439796,-0.0240106489509344
6.1078603515625,-2.0838024165540934,-0.3590316840197891,12.10412965402603,-0.2893374264240265,0.0767525136470794,0.0423092506825923
6.11784033203125,-1.9673865527860817,-0.4922717682734132,11.811466558122634,-0.5821453928947449,0.1218482106924057,0.0473323613405227
6.1278203125,-1.9009126776643095,-0.8456818860843777,11.594120276749134,-0.7842457890510559,0.1030350923538208,0.0198514703661203
6.13780029296875,-1.9243926297120748,-1.3264154845163223,11.336210514318942,-0.8960365653038025,0.077756866812706,-0.0319801196455955
6.147779296875,-2.0060066446900366,-1.7326254646226762,10.916161393952368,-0.9479564428329468,0.0848872140049934,-0.1219630017876625
6.15775927734375,-1.977374132184684,-1.9849470516569911,10.34585741471052,-0.9297084808349608,0.1101965680718422,-0.2375884056091308
6.1677392578125,-1.8601839230433104,-2.213281175512821,9.8278751588583,-0.8491774201393127,0.1087310314178466,-0.3663229346275329
6.177718994140625,-1.6265245125114918,-2.5716888093501327,9.422428564339876,-0.709403932094574,0.0663481950759887,-0.4846765995025635
6.18769921875,-1.472504163622856,-2.994343728300929,9.160176388791204,-0.5271185636520386,0.0272676348686218,-0.5693608522415161
6.197679443359375,-1.306649000033736,-3.310411080667376,9.033769438493252,-0.3520842790603637,-0.0156735125929117,-0.6131354570388794
6.207659423828125,-1.2306643692448735,-3.6022856565415857,8.810439406535028,-0.210197702050209,-0.0190988704562187,-0.6192578077316284
6.21763916015625,-1.1448692691899836,-3.834121651038527,8.6588670353204,-0.095731221139431,0.0409250110387802,-0.6303686499595642
6.227619384765625,-0.9164604726627468,-3.935555780382454,8.478052787530421,0.0367980599403381,0.0905793830752372,-0.662430465221405
6.237598388671875,-0.6480819231882691,-4.112398494192957,8.407586920163036,0.1997558027505874,0.1487846970558166,-0.6795392632484436
6.247578125,-0.5908242047011852,-4.287730511179566,8.437486383864282,0.3679395020008087,0.1591422706842422,-0.6871495246887207
6.257558349609375,-0.5649558231469244,-4.150826716786622,8.209506480273603,0.4929114878177643,0.1779932677745819,-0.6492178440093994
6.267538330078125,-0.6828210820056497,-3.865408769705891,7.728515107688307,0.5709275007247925,0.1312396079301834,-0.5780030488967896
6.277518310546875,-0.6310671485666185,-3.613967326506972,7.000955450898409,0.6040369272232056,-0.0703277885913848,-0.4965905249118805
6.287498291015625,-0.6080168931730091,-3.4399542831644414,6.117818278905749,0.6087576746940613,-0.2808575928211212,-0.4077144563198089
6.297478271484375,-0.4678320312827825,-3.277650966838002,5.104060338312388,0.5788861513137817,-0.3221897780895233,-0.3605100214481354
6.307458251953125,-0.0136244015309959,-2.9689100118368863,3.4825644676178693,0.4792389273643493,-0.1447090059518814,-0.3838126957416534
6.317437255859375,0.6469788573171943,-2.425396424365044,0.6752028620868921,0.3101484477519989,0.0868119150400161,-0.4193954765796661
6.327417236328125,0.9080995446179062,-1.439821060552448,-3.42086876668334,0.1337486207485199,0.3161436319351196,-0.3862622678279876
6.337397216796875,0.9044311583034692,0.3187272192254662,-7.93946087436974,0.0468849241733551,0.3503733873367309,-0.281026691198349
6.34737744140625,1.2806053349778057,2.5463363414287565,-12.142947752720117,0.0886310338973999,0.1968009024858474,-0.1905415207147598
6.357357421875,1.9627151999741792,4.372035518807173,-15.27148893906474,0.1247541457414627,0.0904647931456565,-0.1233517006039619
6.367337158203125,2.860025274226069,4.961874219602346,-17.614319308423994,0.0361566320061683,0.1961233168840408,-0.0534285455942153
6.377317138671875,3.708602589491009,4.429676975914836,-19.580316598808764,-0.156859278678894,0.4366457164287567,0.017622547224164
6.38729736328125,4.2857828842431305,4.006899307367205,-21.415577385258672,-0.2645815014839172,0.5775253176689148,0.1314284652471542
6.39727734375,4.3988063290938735,3.687478552919626,-22.354583743989465,-0.2120119035243988,0.5129368305206299,0.2728965580463409
6.407256103515625,4.317121440836787,3.2535520061090586,-22.60700367683172,-0.0601201131939888,0.4013418555259704,0.3990776538848877
6.417236328125,4.42468866610825,3.3473993335857983,-22.64030038175583,0.1053305864334106,0.3974942862987518,0.4126368165016174
6.427216552734375,4.818019583158195,3.703302729517221,-22.412771729063987,0.3354564607143402,0.4013151228427887,0.2997057139873504
6.4371962890625,5.050078572756052,3.694213998654485,-21.40885772161484,0.6106221675872803,0.4673349857330322,0.1762763261795044
6.44717626953125,4.680965274378657,3.395037283073365,-19.783720864069466,0.8400667905807495,0.5424014925956726,0.1072165593504905
6.45715625,3.809118142685294,3.0292642350345846,-18.048156131124497,0.955182671546936,0.5630342960357666,0.1411546915769577
6.46713623046875,2.413218056923896,2.906411177825928,-16.262586719560623,0.9204161763191224,0.4366760551929474,0.2945623695850372
6.4771162109375,0.8314332882404327,3.110327484261989,-14.638929871439933,0.8060653209686279,0.1587516516447067,0.4982894361019134
6.48709521484375,-0.5162327818363904,3.302774302178621,-12.691249158990384,0.6399248242378235,-0.1244097352027893,0.6425257325172424
6.4970751953125,-1.293633889507502,3.404832993161678,-10.581983215355873,0.4700669944286346,-0.3597138524055481,0.6464120149612427
6.507055419921875,-1.4623463422238825,3.2308255027771,-8.230890044564008,0.3539135158061981,-0.4903571009635925,0.4833927452564239
6.517035400390625,-1.381350313013792,2.65845406961143,-5.559716194111108,0.2883021235466003,-0.5073999166488647,0.1856049299240112
6.52701513671875,-1.13183486944139,1.8943901440277693,-2.784191157823801,0.2799712419509887,-0.4283354580402374,-0.175733283162117
6.536995361328125,-0.94618976742886,1.1289911704480646,0.1553407838374376,0.3258572220802307,-0.3765309751033783,-0.5313293933868408
6.546975341796875,-0.8908999149486422,0.526002115374431,2.9015304200470444,0.3832398056983948,-0.3449685275554657,-0.8314545750617981
6.556955078125,-0.7698002042133361,0.0302803527776151,5.316728691002727,0.3811981678009033,-0.2866157591342926,-1.0283628702163696
6.566934326171875,-0.6183615423809736,-0.5113954613404348,7.257196403333544,0.3020583689212799,-0.2172457426786422,-1.109930396080017
6.576914306640625,-0.5867508177824318,-0.9953387060012668,8.858530945008992,0.164546325802803,-0.1308465600013733,-1.0594334602355957
6.586894287109375,-0.8722103389825672,-1.3376274911433457,10.096932922768591,-0.0039633368141949,-0.0343796722590923,-0.8154290318489075
6.596874267578125,-1.681282523137331,-1.4752417718932032,11.103133579850196,-0.1764297634363174,0.1044687554240226,-0.3781814873218536
6.6068544921875,-2.5536083782583474,-1.4486037942059338,12.067042909169196,-0.2805511057376861,0.0943154543638229,0.0760834738612175
6.616834716796875,-2.5266139883488417,-1.5236843157619238,12.89505791339874,-0.3043175041675567,0.0051454771310091,0.4652450978755951
6.626814453125,-2.283071773967147,-1.7812692301519215,13.232083882641792,-0.2729047238826751,-0.0515364445745945,0.7591670155525208
6.63679443359375,-2.0129412662588058,-1.9657856934607028,12.765859871077536,-0.1775165200233459,-0.1068473309278488,0.9739825129508972
6.6467744140625,-1.7175323787786063,-1.8946181075647472,12.093642162281274,-0.0316469259560108,-0.1400718539953231,1.148726224899292
6.65675341796875,-1.5035776395395395,-1.6838645024545489,11.722992155855891,0.126164972782135,-0.1172342672944068,1.3045847415924072
6.6667333984375,-1.4825409889906644,-1.5629777768827977,11.463750852560995,0.2363452762365341,-0.1967751681804657,1.4098789691925049
6.676713623046875,-1.4216779394879937,-1.0468498436603697,10.775903028434517,0.250517338514328,-0.4492417275905609,1.3461076021194458
6.686693359375,-1.036233172577992,-0.0904272168349474,9.894964243268966,0.192234605550766,-0.5470420718193054,1.1747968196868896
6.696673583984375,-0.9359802158426492,0.0606089286111295,9.923755453467368,0.1015490591526031,-0.5300086140632629,1.0382707118988037
6.706653564453125,-1.3450345525294545,-0.5977207958145067,9.922415729296208,-0.0052753868512809,-0.5121023058891296,0.9397857189178468
6.71663330078125,-1.6402375421740114,-0.9210553261723368,9.413778809416293,-0.0942184478044509,-0.5014621615409851,0.8305315375328064
6.72661328125,-1.7191760543324053,-0.6047840852642431,8.964366816443205,-0.1673355400562286,-0.4165485501289367,0.7057624459266663
6.736592529296875,-1.6029253179982303,-0.1880447105001658,8.57356015717387,-0.2239823639392852,-0.2860516607761383,0.5582289695739746
6.746572265625,-1.356647687303275,-0.0610585355421528,8.296010459250212,-0.2196294218301773,-0.2128006219863891,0.3974217176437378
6.756552490234375,-1.0925607706081122,-0.3527304284511134,8.513055711850523,-0.1523876786231994,-0.2312216311693191,0.212929680943489
6.766532470703125,-0.959064227375388,-0.71379358176589,8.778439755684136,-0.0322016179561615,-0.2520110607147217,0.0136402789503335
6.7765126953125,-0.7938880590263754,-0.8881503239795565,8.82681420275271,0.1037109792232513,-0.2157318443059921,-0.2060024142265319
6.786492431640625,-0.4923239368520676,-0.9199519680403172,8.796572209224104,0.2533633112907409,-0.1302070915699005,-0.4316278100013733
6.796472412109375,-0.2339465569101274,-0.90447916216366,8.703481253072619,0.3964738249778747,-0.0360248573124408,-0.6238517761230469
6.806452392578125,-0.2292929589506238,-0.911389891400188,8.517707921570539,0.5196493268013,-0.0149997333064675,-0.7513375282287598
6.816432373046875,-0.3206131060373038,-0.9446591237954794,8.362963350060582,0.6147941946983337,-0.0202447567135095,-0.825952410697937
6.826411376953125,-0.3796426565025002,-1.0506094153895973,8.225876015794277,0.6811292767524719,-0.0236115232110023,-0.8771522045135498
6.8363916015625,-0.199680933888629,-1.1391235651448368,8.113437969616054,0.7044442892074585,0.0072244917973876,-0.9143396019935608
6.846371337890625,0.0054538084264844,-1.2013315264504405,7.800410131075978,0.6976923942565918,0.0522415041923522,-0.9604543447494508
6.8563515625,0.2290371575586497,-1.093293395731598,7.30810183018446,0.6211959719657898,0.1562732458114624,-0.9795781970024108
6.86633154296875,0.1948977912653237,-0.9771305568765848,6.302735285839438,0.4532882273197174,0.3279075920581817,-0.9289951920509338
6.876311279296875,0.0683066435068845,-0.9186655814915896,4.644605090230703,0.2259860783815384,0.4284154772758484,-0.8495447039604187
6.886291259765625,0.103187475817278,-1.0404219295047223,2.5221359661519527,-0.0401614345610141,0.4077972769737243,-0.7720485329627991
6.896271728515625,0.0568052254792302,-1.3732026623934506,-0.3514969776660204,-0.339011013507843,0.3486502468585968,-0.6800889372825623
6.90625146484375,0.0643274376776069,-1.327862614584714,-4.107518905457854,-0.5720391869544983,0.4609991610050201,-0.5839704275131226
6.91623046875,0.7196957184817642,-0.3601219269419088,-7.721754527512192,-0.6287022233009338,0.7644719481468201,-0.5500810742378235
6.926210693359375,1.7433287910751998,1.1824420439980925,-10.524316623806952,-0.4696579277515411,1.0153473615646362,-0.5720793008804321
6.9361904296875,2.6370024085208774,2.8386235897570846,-12.91203242907524,-0.2072062045335769,1.1664749383926392,-0.514780580997467
6.94617041015625,3.238928145211935,4.762643732894957,-15.090914929771422,-0.0275381878018379,1.0672863721847534,-0.3074910342693329
6.956150390625,3.449579897382855,5.956551612150669,-17.34556081972122,-0.0819623842835426,0.7736383080482483,0.0441274046897888
6.966130126953125,3.349228010317683,5.929086682119965,-19.44329063934088,-0.4211638867855072,0.4478932321071625,0.4913083612918854
6.976110595703125,3.24264921156168,5.492996527534723,-21.44570130536556,-0.953094720840454,0.154683917760849,0.9049466848373412
6.986090576171875,3.396888171637058,5.120788770273328,-22.866299925184247,-1.4613608121871948,-0.0657469928264617,1.1247005462646484
6.9960693359375,3.785635560289025,4.658603220444918,-23.079954366302488,-1.7020739316940308,-0.2822096645832062,1.0942236185073853
7.006049560546875,4.231010845091939,3.938769481731951,-22.4070410764575,-1.5524975061416626,-0.3605252504348755,0.8539310097694397
7.016029541015625,4.401130095866322,3.0451439412117,-20.98460238173008,-1.0193336009979248,-0.2455398887395858,0.4973539113998413
7.026009521484375,4.407477126805484,2.200786289468408,-18.82767452321053,-0.2809439897537231,0.0398577637970447,0.1477362662553787
7.0359892578125,3.991903398287296,1.4277256952196358,-16.33862600314617,0.3380492627620697,0.4242441058158874,-0.0768424272537231
7.045969482421875,3.059177142739296,0.7843453007858247,-14.21593476074934,0.6410240530967712,0.5940661430358887,-0.1523036360740661
7.05594970703125,1.940617934456468,0.5756220324594528,-12.798054167717694,0.6751102209091187,0.5473612546920776,-0.1013266742229461
7.065929443359375,0.7652858685940503,0.4759776360765099,-11.054868438374996,0.5471258759498596,0.3079537153244018,0.0495999902486801
7.075908447265625,-0.1863048080302775,0.3088999449551105,-9.123129975944757,0.3933803737163543,0.0006163539364933,0.2030253559350967
7.085888671875,-0.7268349957771599,0.1687158867824822,-6.9292720244348045,0.3040904402732849,-0.245899423956871,0.2622396647930145
7.095868408203125,-0.7233619128391147,0.1217767332140356,-4.5614247027188535,0.3003143072128296,-0.320762038230896,0.1732905656099319
7.105848388671875,-0.4405051945485174,0.1390694479942321,-2.1046505587935447,0.3909275829792022,-0.2934659719467163,-0.0384150184690952
7.115828369140625,-0.3168682934857905,0.1964897731645032,0.309803615796566,0.5256109237670898,-0.2374072819948196,-0.3168895244598388
7.125808349609375,-0.344943172108382,0.1880217680159956,2.516633277082443,0.6450076103210449,-0.1983794569969177,-0.6038715243339539
7.13578857421875,-0.4907208855696022,0.0266203324327245,4.404828950384259,0.7294975519180298,-0.2097264230251312,-0.8471647500991821
7.1457685546875,-0.682481182526797,-0.1783818695439025,6.02943389301002,0.7826324105262756,-0.2737450897693634,-1.0128445625305176
7.155747314453125,-0.8298968724533915,-0.3815821731977165,7.467025148683786,0.8095006942749023,-0.3568726480007171,-1.0780316591262815
7.1657275390625,-0.9754133046299218,-0.5064114258501679,8.732541927862167,0.8088898062705994,-0.387446790933609,-1.0223603248596191
7.17570751953125,-1.1449607468657197,-0.4409105970116332,9.760053668519854,0.7779693603515625,-0.3473801910877228,-0.8495221138000488
7.185687255859375,-1.163951351604983,-0.2760081493037752,10.610860934793948,0.7172093391418457,-0.3414104580879211,-0.5952165722846985
7.195667236328125,-1.0589894865263252,-0.2491015290092676,11.314997045898435,0.6109579801559448,-0.3587697148323059,-0.314155638217926
7.2056474609375,-0.981402096715942,-0.1257219271758571,11.826727255618572,0.4319486618041992,-0.3689325749874115,-0.0271450970321893
7.215627685546875,-0.857134788795188,0.0973029295570217,11.998658524250985,0.1710565090179443,-0.3582520484924316,0.2482641041278839
7.225607421875,-0.7999005242489278,0.1433955492987297,11.904624149769544,-0.1121115386486053,-0.3461748957633972,0.4934203326702118
7.23558740234375,-0.8216426927186549,0.0955516928423661,11.814487367248535,-0.369645893573761,-0.3725937008857727,0.6650252342224121
7.24556640625,-0.7953293438758701,0.2244176262655295,11.60518644516468,-0.5684167742729187,-0.4290338158607483,0.7558283805847168
7.25554638671875,-0.7608492013208568,0.350355954404734,11.244061807453631,-0.6894584894180298,-0.4936440587043762,0.7970377802848816
7.2655263671875,-0.8964619329899549,0.2430678931345231,10.80026823888421,-0.7493612766265869,-0.5466521382331848,0.7965139150619507
7.27550634765625,-0.9437673625875264,-0.0623214133511297,10.42213518322706,-0.7566368579864502,-0.573240339756012,0.7503636479377747
7.285486572265625,-0.948980713321641,-0.3434072312453761,10.104273348659277,-0.7313035130500793,-0.5835433006286621,0.6773898601531982
7.295466552734375,-1.042788877831772,-0.5975349543862044,9.863297185373304,-0.6779485940933228,-0.5328401327133179,0.6038907170295715
7.305446533203125,-1.2853234495408832,-0.7936958974551409,9.693281979495286,-0.6165965795516968,-0.4294959306716919,0.5333302617073059
7.31542626953125,-1.3825265171863137,-0.8461500881180166,9.438118300902843,-0.5533000826835632,-0.3416385948657989,0.4316399693489074
7.325405517578125,-1.2946724387750028,-0.902916808217764,9.214337602567673,-0.4905046224594116,-0.2899013757705688,0.3064681887626648
7.335385498046875,-1.3195406303107735,-1.0934824154976754,9.069141780647636,-0.4407204687595367,-0.2528037428855896,0.1583587825298309
7.345365234375,-1.2798949947513638,-1.3134385140433906,8.948239857506751,-0.3965258300304413,-0.2422877103090286,-0.0052509191446006
7.355345458984375,-1.1655189662478864,-1.5843085880726575,8.769943730017543,-0.3556813895702362,-0.2571887969970703,-0.1674406826496124
7.36532568359375,-1.070488274205476,-1.84135311197564,8.538712715676427,-0.3127182126045227,-0.2792006134986877,-0.3229322433471679
7.375305419921875,-0.9052670246057212,-2.08875097887218,8.326714225071669,-0.2597413063049316,-0.2785379588603973,-0.4543372094631195
7.385285400390625,-0.6287358560748398,-2.4112355048045515,8.180738650950788,-0.2126300036907196,-0.2720896303653717,-0.5803526639938354
7.395265380859375,-0.3634904535269364,-2.7290590531885623,7.770518266159295,-0.1918385177850723,-0.2069198340177536,-0.7320219278335571
7.40524560546875,0.0053069838343188,-2.8688468785852197,7.24166857933402,-0.2129406034946441,-0.0456614382565021,-0.8650338053703308
7.415224365234375,0.1583445322306826,-2.9515573104977606,6.521974249091744,-0.2426455616950988,0.1309545785188675,-0.9981789588928224
7.425204345703125,0.1814104235848412,-3.153764767189324,5.790081531533598,-0.2307982146739959,0.3056834936141968,-1.156574010848999
7.435184326171875,0.321394684869051,-3.403045817483961,5.264135164934396,-0.1688735038042068,0.5169755816459656,-1.340519905090332
7.44516455078125,0.4814915041271597,-3.3757813784614203,4.583986078616976,-0.1188303008675575,0.7592625021934509,-1.562505841255188
7.45514453125,0.8924068123802542,-2.8510592929601666,3.1557921813637018,-0.2173211425542831,0.8923260569572449,-1.8448290824890137
7.46512451171875,1.7063002061463892,-1.7475544459462165,0.4134826014578342,-0.6112484335899353,0.8816936612129211,-2.1792151927948
7.475104248046875,2.5248551619827744,-0.1822156390205025,-3.8147120171695943,-1.530193328857422,1.136798620223999,-2.4773507118225098
7.48508447265625,3.4626232110902664,1.5114005882501602,-10.059224246621133,-2.4993741512298584,2.1616573333740234,-2.3938305377960205
7.4950634765625,2.5266625036656856,1.0933046477779746,-13.417721020543574,-3.433997869491577,2.248485803604126,-2.1396353244781494
7.505043212890625,2.875001601822674,0.9470243916220964,-20.349968261396885,-3.892086982727051,1.7147817611694336,-1.6163110733032229
7.5150234375,1.0976302558921276,1.5670087859645483,-23.53322303470373,-3.44166111946106,1.7249876260757446,-0.850884735584259
7.525003662109375,-0.5660178263552487,1.7039166720107195,-21.71066507796049,-2.4121735095977783,1.6381549835205078,-0.0358520075678825
7.5349833984375,-0.1760718755684792,4.079965420360863,-21.407529687881468,-1.5952173471450806,0.8997688889503479,0.7621310353279114
7.54496337890625,0.701527682171762,5.152403805720806,-21.784041279816627,-0.6761288046836853,0.4062473475933075,1.549435019493103
7.554943603515625,0.9186429312683642,4.025534157471358,-16.007279248583316,0.1819871962070465,1.0030590295791626,2.0051791667938232
7.56492333984375,3.349159621256589,3.129504478418827,-11.817429850441217,0.7830392718315125,1.442133903503418,2.2323899269104004
7.57490234375,4.207674977689981,4.374160255876183,-14.055864610302448,0.7836757302284241,1.444649338722229,2.10066556930542
7.5848828125,4.69584311003685,6.091285661289096,-16.500068610990045,0.4537593126296997,1.5849404335021973,1.8822226524353027
7.59486328125,3.278883431242406,4.544430605559051,-14.498010996186732,0.2185967415571212,1.6085972785949707,1.6497526168823242
7.604843017578125,2.465896192535758,3.366082699006796,-11.494968997645378,0.105239026248455,1.8268611431121824,1.263743877410889
7.614822998046875,2.5034090538501736,3.932481487503648,-9.259181537422537,-0.0409736968576908,2.404224395751953,0.8189935684204102
7.624802978515625,2.990233078111708,4.165761835590005,-8.229915062052012,-0.2324898540973663,3.0240535736083984,0.3888157904148102
7.63478271484375,3.3842446709021923,3.862074949108064,-8.141456441876292,-0.3880147933959961,3.4387006759643555,-0.011886853724718
7.644762939453125,3.2634225349992514,3.8063276351839295,-7.788905571243166,-0.4458179175853729,3.636041402816773,-0.3512172400951385
7.654741943359375,2.932292345796525,3.2189158692747357,-7.181963175433873,-0.3950321078300476,3.5901153087615967,-0.5940291285514832
7.664721923828125,2.6375743631899358,2.2446105258867144,-6.449498795467615,-0.2435349822044372,3.4181230068206787,-0.672260046005249
7.6747021484375,2.4605296970665456,1.129507011015713,-5.48039365107119,0.0022828863002359,3.1573612689971924,-0.5643872022628784
7.68468212890625,2.746670405463874,-0.2106689955666661,-4.480414060461521,0.3063618242740631,2.9755172729492188,-0.3902484178543091
7.694661865234375,3.877713540005684,-1.38790046530962,-2.952820462301373,0.6217653155326843,2.7610652446746826,-0.0044426717795431
7.704641845703125,3.2130887705564497,-2.753561334021389,-1.358359898048639,0.8696424961090088,2.4369351863861084,0.5005462169647217
7.714621826171875,2.208094566655159,-3.418565165916085,-0.2176169150084257,0.9977823495864868,2.1075117588043213,0.9824247360229492
7.724601806640625,1.5728092889368532,-3.720237205444276,0.8340478546530008,0.9980356693267822,1.962775468826294,1.470431923866272
7.734580810546875,0.5724912601530552,-3.923656960535049,1.70392573210001,1.0135565996170044,1.8314181566238403,1.899405837059021
7.74456103515625,-0.2355593989342451,-4.234108226585388,2.36665548158288,1.1059051752090454,1.8109186887741089,2.156514883041382
7.754541015625,-0.7495359262764454,-4.664880108757317,3.0868489935189483,1.3016263246536257,1.72789466381073,2.3532536029815674
7.76452099609375,-1.4227934995144604,-4.674194757330417,3.8473090493917455,1.6020727157592771,1.644311785697937,2.418773651123047
7.7745009765625,-1.4501473703861236,-4.2484179069668055,4.865013097262382,1.9279919862747192,1.6014851331710815,2.374706506729126
7.784480712890625,-1.4800900887072086,-3.3368624497413637,5.724831937509775,2.108227014541626,1.3249413967132568,2.425410270690918
7.7944609375,-2.9042127909988165,-2.9097905911311504,4.9072003801286215,2.1441962718963623,0.7155212163925171,2.754770517349243
7.80444091796875,-5.188459453964233,-3.1935555103078483,5.00142413970232,2.0367674827575684,1.0544573068618774,3.0868120193481445
7.814419677734375,-4.881495445507764,-2.8501261037632823,7.65340521390736,1.8057104349136357,1.0842305421829224,2.8932530879974365
7.82439990234375,-3.634750586816669,-0.1425622950786724,6.099626204133034,1.603258728981018,0.9622008204460144,2.575669050216675
7.834380126953125,-2.683229614427685,0.3101209381174296,5.568509741419553,1.4297176599502563,0.7421817183494568,2.443487882614136
7.844360107421875,-1.849242550051212,-1.031410940053314,5.254988566404581,1.3410016298294067,0.2154883295297622,2.596473455429077
7.85433984375,-1.4312322420358656,-2.128531054466217,4.251354544940591,1.337026834487915,-0.4458877742290497,2.9106740951538086
7.86431982421875,-2.19861888230145,-2.247303564362973,4.1204222261726855,1.4343209266662598,-1.044393539428711,3.2001352310180664
7.874300048828125,-3.27019480561316,-1.3420318635821342,4.667157113778591,1.5650160312652588,-1.5754293203353882,3.3820385932922363
7.884280029296875,-4.188326134097576,0.1587136212714016,5.112293913650513,1.666922688484192,-1.8784617185592647,3.393241167068481
7.8942587890625,-4.344034582203626,1.4144532489314674,5.580203686344623,1.6908471584320068,-1.87998366355896,3.308799266815185
7.9042392578125,-4.351482560122013,1.90508484878242,6.100834410879015,1.5900771617889404,-1.6699310541152954,3.136049509048462
7.914218994140625,-4.137835717788338,2.285924825310707,6.266901171392202,1.430747628211975,-1.41009259223938,2.9327502250671387
7.924198974609375,-4.064035737562179,2.5707173339694736,6.205960672739148,1.253383994102478,-1.203577995300293,2.736631155014038
7.934178955078125,-3.83769834048152,2.6955896220460533,5.915562599158287,1.09678316116333,-1.1185826063156128,2.5988268852233887
7.94415869140625,-3.3542040451645847,2.599684485256672,5.442141369566321,0.974656105041504,-1.1960395574569702,2.539434671401977
7.954138916015625,-2.695445537400245,2.330037231020629,4.740651973578333,0.8401842713356018,-1.2940174341201782,2.508092164993286
7.964119140625,-2.080182472491264,2.2998811622098088,4.456771903589368,0.6246716976165771,-1.2506673336029053,2.463890790939331
7.974097900390625,-1.52675919316262,2.5327441616669297,4.320421651425957,0.2604768574237823,-1.0331056118011477,2.4008493423461914
7.984078125,-0.9434010865584016,2.898170295964181,3.883458805659413,-0.2188694775104522,-0.7170190215110779,2.335313081741333
7.99405810546875,-0.6203372994333505,3.3409725154086947,3.4357080238968134,-0.7484667301177979,-0.3749383985996246,2.3027379512786865
8.004037841796874,-0.7615709397241472,3.782784262511134,3.39520708668232,-1.2391639947891235,-0.1854965686798095,2.276049852371216
8.01401708984375,-1.0407537918075918,4.244380906535685,3.252406050944328,-1.571681261062622,-0.3686207830905914,2.3037800788879395
8.0239970703125,-1.7283949874460696,4.348574855981767,3.254457722777128,-1.7628791332244873,-0.9406331777572632,2.292308807373047
8.033976806640625,-1.428665898679197,4.349432057332992,2.8073440698742864,-1.7395994663238523,-2.353103876113892,2.194478988647461
8.043956787109375,0.2883849801927804,4.092506045243144,0.6465969453275203,-1.2290315628051758,-4.681335926055908,2.1297409534454346
8.05393701171875,1.296841307246685,3.093310006226599,-1.1698258696615695,-0.1729394644498825,-5.83529806137085,2.1819019317626958
8.063917236328125,1.8792093799002467,1.944092332568765,0.783224260866642,1.1565285921096802,-5.340240955352783,2.032391309738159
8.07389697265625,2.948975477311015,2.663711259487271,3.771304252597689,2.0706746578216557,-4.4322190284729,1.5339728593826294
8.083876953125,3.2140380341053008,4.100920822367072,4.852043725574016,2.866067409515381,-2.683687448501587,1.0363240242004397
8.09385693359375,3.6510908962428568,3.820254453727603,6.213423848226666,3.532405138015747,-1.658831238746643,0.4576857686042785
8.1038359375,4.183901595653594,5.448750558573007,2.614408591657877,2.251746416091919,-5.339372634887695,-1.1245006322860718
8.11381591796875,10.761019932079314,8.031642314460873,-18.45048020970821,1.0416136980056765,-5.923797130584717,-1.93814754486084
8.123795654296876,7.238948214459419,3.2257389932930467,-9.149519970220329,0.5868467688560486,-3.212317705154419,-2.0210561752319336
8.13377587890625,0.896424888915196,1.1472738461136818,1.451612182241678,-0.1069604679942131,-2.415878295898437,-1.5758143663406372
8.143756103515624,-3.5835713114604357,2.3227117104381323,-5.928882683980465,-1.564918875694275,-1.7256264686584473,-0.9181746244430542
8.153736083984375,-4.514940307180583,3.2033833691000937,-8.32913531473875,-2.581315040588379,-0.504648745059967,-0.5315451622009277
8.1637158203125,-2.3700348948881027,3.559544246923924,-4.194065554532409,-3.329456329345703,0.376608282327652,-0.3525514602661133
8.17369580078125,-0.8164948815014212,2.4940496893525124,-5.357634701886773,-3.6042442321777344,0.6576910614967346,-0.1271582692861557
8.183675048828125,-1.589321593929082,1.8597835255488755,-5.436041883647442,-3.568523406982422,0.391851395368576,0.072468563914299
8.19365478515625,-2.0455060036465524,2.8963918881148096,-5.298069583240151,-3.3623743057250977,0.0212990343570709,0.2172133773565292
8.203634765625,-2.4987135895103214,3.9565848321467634,-3.9439275951474895,-3.125174760818481,-0.2318152487277984,0.2817420363426208
8.213615234375,-3.085482381340861,4.141357169912755,-2.616657247367501,-2.987098932266236,-0.4661527276039123,0.2634207904338836
8.223594970703125,-3.6368706477105617,3.719108493675291,-2.028845083963871,-2.9600961208343506,-0.6047854423522949,0.165223628282547
8.233574951171875,-4.095639374832809,3.2102021092042325,-1.439723007005453,-2.996310234069824,-0.7070761322975159,-0.0891756266355514
8.243554931640626,-4.040454955488444,2.9637916459098457,-1.0592442650049925,-3.029082536697388,-0.7831509709358215,-0.4280534982681274
8.25353466796875,-3.301476371322572,2.7507825169578197,-0.497438064995408,-3.101592302322388,-0.9415551424026488,-0.7229762673377991
8.263513916015626,-2.797425317928195,2.4931743678227067,-0.5348913050770759,-3.1001434326171875,-1.1515384912490845,-0.853813111782074
8.273493896484375,-2.890249732097983,2.266273491640389,-0.2333019753962755,-2.993699312210083,-1.367047905921936,-0.8331791758537292
8.2834736328125,-3.1077102875009177,2.2988934663467107,0.2250438501387834,-2.860077142715454,-1.5538828372955322,-0.7553176879882812
8.2934541015625,-3.1873318134874102,2.3610364726573225,0.4287397918224334,-2.7785630226135254,-1.5574228763580322,-0.6958531737327576
8.30343408203125,-3.1036580895006654,2.3499045455291867,0.6954150445103645,-2.792688131332397,-1.192776441574097,-0.7379207015037537
8.3134140625,-2.801077995216846,1.884973350254446,1.002513493001461,-2.861603260040283,-0.7276613116264343,-0.811793863773346
8.323393798828125,-2.919144110409915,1.3022649397306143,1.0308809248298405,-2.9593734741210938,-0.4041852355003357,-0.9041994214057922
8.3333740234375,-2.502645668262243,0.8848453641500323,0.7823983314365148,-3.011584520339966,-0.2520483136177063,-1.0110290050506592
8.343352783203125,-1.5384887939229606,0.2653898342535831,0.7674497686296701,-3.004889726638794,-0.2139989286661148,-1.1128909587860107
8.353332763671874,-0.7474995981432497,-0.0424357777345925,0.915024010118842,-2.9508657455444336,-0.2660641968250274,-1.1797102689743042
8.36331298828125,-0.234548760586977,-0.1587283804491162,0.9850082314491272,-2.799996852874756,-0.3042195737361908,-1.166187047958374
8.373293212890625,0.0210125390209257,-0.4622949284870177,1.3417109610646962,-2.5521974563598637,-0.3045536875724792,-1.071202516555786
8.38327294921875,0.2681848535332828,-0.9123998721603304,1.6899410458892583,-2.242037296295166,-0.2856931686401367,-0.9576733708381652
8.3932529296875,0.4960002142120152,-1.3731731440380217,1.872052347752452,-1.880059003829956,-0.2584071755409241,-0.7673046588897705
8.40323291015625,0.1272396017298102,-1.8270427009418608,2.185387644806504,-1.5606248378753662,-0.1759370863437652,-0.5883775353431702
8.413212890625,0.1299972298748791,-2.0750763815239077,2.413933950108289,-1.293763279914856,-0.0595242157578468,-0.4469218254089355
8.42319189453125,0.3713079588774591,-2.280094365591556,2.686259775903821,-1.0681018829345703,-0.0020350897684693,-0.3479744791984558
8.433171875,0.7267772742405534,-2.392282820922881,2.9090555548548696,-0.8911769986152649,-0.0021113725379109,-0.3513475954532623
8.44315185546875,1.355033091713488,-2.5885265469044447,2.912369209447503,-0.7544766664505005,0.0479970648884773,-0.4437949955463409
8.453132080078126,1.7248939935877918,-2.8168384589284656,3.2399691786974665,-0.6590030193328857,0.172688141465187,-0.5717566013336182
8.463112060546875,1.7703041840232907,-2.912812861561775,3.688595574250817,-0.624914824962616,0.3214307427406311,-0.6754238605499268
8.473091796875,1.5489282087422906,-2.9263942276686428,3.9942970154255626,-0.6283833384513855,0.4400423467159271,-0.7190166115760803
8.48307177734375,1.2916831938311455,-3.074102324670553,4.292331282973289,-0.6193860769271851,0.5327792167663574,-0.7079695463180542
8.493052001953124,1.2454532114453614,-3.228417564852536,4.70445954721272,-0.5889680981636047,0.5498536229133606,-0.6726117730140686
8.50303076171875,1.3621563677221535,-3.3429441077426074,4.903463531687856,-0.4760066866874695,0.5484448075294495,-0.6391288638114929
8.5130107421875,1.5929571739524602,-3.535187804302573,5.075328164824843,-0.2579914927482605,0.5162152051925659,-0.6303087472915649
8.5229912109375,1.587172160810232,-3.547531153047085,5.118609088146687,0.0133971227332949,0.4554783403873443,-0.6629939675331116
8.53297119140625,1.6398346604615448,-3.33879020293355,5.106424144834279,0.2499019652605056,0.3904254138469696,-0.7195745706558228
8.542950927734376,1.6410042887628078,-3.1562112835586067,5.067600785443187,0.3809566795825958,0.2871477603912353,-0.7364640831947327
8.552930908203125,1.4352641279004514,-3.0986244792476296,4.7653135366261,0.3930683135986328,0.2164973616600036,-0.6777912378311157
8.562910888671874,1.281578271663189,-3.1162802551865574,4.604793888846039,0.3114072680473327,0.2415822148323059,-0.5499634742736816
8.572890869140625,1.0969938576847311,-3.143902713866532,4.305020084154606,0.2020928561687469,0.1961773335933685,-0.3989831507205963
8.582869873046874,0.9269269946847112,-2.950024694103002,3.4477947675317524,0.1276090443134308,0.0390119440853595,-0.2518344521522522
8.592849609375,0.9344598744075744,-2.700401406241953,2.379866845333576,0.1370532661676406,-0.2637361288070678,-0.1250924617052078
8.602830078125,1.0526546574816107,-2.404469663931429,1.0221008215248584,0.2415951192378997,-0.5927177667617798,-0.0998560711741447
8.61281005859375,1.1307068883247673,-1.845261079199612,-0.3032487873256206,0.3513534069061279,-0.8369263410568237,-0.220725879073143
8.6227900390625,0.3834055892325937,-0.5695891089707613,-1.305288233074546,0.350636214017868,-1.0861353874206543,-0.3762978911399841
8.632769775390624,-0.8990288608685135,1.0240731445111333,-2.6791771241664883,0.1797565519809723,-1.154068112373352,-0.4731328189373016
8.64275,-1.5400594042405484,1.225740795237571,-4.24971554556191,0.0177703108638525,-0.8344136476516724,-0.4780498147010803
8.65272998046875,-1.811026801164448,0.856172008177638,-4.962976043364406,-0.0935721695423126,-0.4514199793338775,-0.4916585087776184
8.6627099609375,-1.5345513083435594,1.6140020078077912,-6.233158476266264,-0.2081434726715088,-0.2550097107887268,-0.524869978427887
8.67268994140625,-1.1756335330270231,2.5728192746847864,-8.026367588928341,-0.3073741495609283,-0.2413356006145477,-0.4788351058959961
8.682669921875,-1.3302069857537746,2.9064161462619897,-9.224047095677255,-0.3563640713691711,-0.4692350625991821,-0.3356829881668091
8.692650146484375,-1.582299732468277,2.9376746233567594,-10.30544590934515,-0.3347681760787964,-0.990395724773407,-0.1511038392782211
8.7026298828125,-1.5728269707240163,2.655259657484293,-11.718398982846736,-0.2447780817747116,-1.6217271089553833,-0.0183319486677646
8.71260986328125,-1.5182295574873683,2.282001075995713,-13.22811731709838,-0.1219224259257316,-2.0968732833862305,-0.0234677754342556
8.72258984375,-1.7096267202205957,2.0571137315928936,-14.47938228356242,-0.0347656868398189,-2.1757125854492188,-0.1842776983976364
8.73256884765625,-2.1058739631086585,1.8741015353672208,-15.269561185872554,-0.0552233979105949,-1.7123425006866455,-0.4639446437358856
8.742549072265625,-2.565496384450793,1.623056105748564,-15.201939017498493,-0.1311857998371124,-0.7420040965080261,-0.7446221113204956
8.752529052734374,-3.1754531596452,1.780854219610244,-13.891073861074446,-0.3084676861763,0.3970398902893066,-0.9673349261283876
8.7625087890625,-3.235328659415245,2.2922448221124707,-12.728167561542987,-0.5478779077529907,1.354285717010498,-1.079651117324829
8.772489013671875,-2.765779302820563,2.8543384607613085,-11.761031671392915,-0.7543381452560425,1.932767391204834,-1.0323089361190796
8.782468994140626,-2.2417492912366983,3.2344565527558324,-10.211341392236948,-0.4348762929439544,1.9122315645217896,-1.023752212524414
8.79244873046875,-0.1867370619677007,3.4807790455058214,-7.225284430766105,-0.4555124938488006,0.5636570453643799,-0.8251753449440002
8.802428955078126,1.1206349916435778,1.4151912078171969,-10.067958172696828,-0.3708830773830414,-0.5343331098556519,-0.5182673335075378
8.812407958984375,1.5572702128909528,0.3056163932397961,-7.699731496274471,-0.3017429113388061,-1.1172157526016235,-0.1227291747927665
8.822387939453124,0.6608642478719353,0.8429524611204862,-6.70204907669127,-0.2951481342315674,-1.2066574096679688,0.2267457246780395
8.832367919921875,0.6200253108747303,1.0266432872600852,-6.0420741788744925,-0.3034378886222839,-0.9566417932510376,0.4811893999576568
8.842347900390624,0.8815665616750716,0.2314367660462856,-5.2248307440280914,-0.2779825925827026,-0.629359245300293,0.5982271432876587
8.852327880859375,1.3189485096365212,-0.4155576541662216,-4.717772033250332,-0.2027390599250793,-0.3298965990543365,0.6244232654571533
8.862307861328125,1.5283230814784765,-0.9516155188046396,-3.989223949944973,-0.0912168025970459,-0.0324542447924613,0.6305813193321228
8.872287841796876,1.6233977587930857,-1.4214910386137662,-2.8118893120884896,0.0160412490367889,0.2280212044715881,0.6420276165008545
8.88226806640625,1.7445165395550428,-1.7745780619502067,-1.4464175362080334,0.096861258149147,0.3545660972595215,0.6692048907279968
8.8922470703125,1.8920972107850011,-2.169439403437823,-0.1317202542752027,0.2026254087686538,0.3213526606559753,0.6761524081230164
8.90222705078125,2.182205361508578,-2.3185772409819063,1.4095271907061335,0.3639857769012451,0.0952753275632858,0.6174376606941223
