seconds_elapsed,ax,ay,az,gx,gy,gz
0.068754638671875,2.110923647713661,1.3773663579441606,14.759072500646113,-0.9607611298561096,0.5972995758056641,0.2696992754936218
0.078781005859375,1.9795237114340063,1.5355020331971347,13.834758684134483,-0.7168734669685364,0.6218439340591431,0.199345201253891
0.088806884765625,1.6260180242940785,1.4648828749641776,12.776066792315245,-0.3699823319911957,0.6108344197273254,0.1081297993659973
0.0988330078125,1.4340078442290425,1.4110434404879808,11.82454581992626,-0.0342435985803604,0.5597600936889648,0.0299230832606554
0.10885888671875,1.451519243261218,1.2534421643726528,11.165911230802536,0.2179436385631561,0.4598252177238464,-0.0379124246537685
0.1188837890625,1.459048469722271,1.1269997774351388,10.689863744360208,0.3518144786357879,0.3258245587348938,-0.1137285605072975
0.128909912109375,1.4154123032219708,1.2046442311950027,10.335534758138657,0.3458045125007629,0.1692836582660675,-0.1911173611879348
0.138935791015625,1.57700717901811,1.079206272059679,10.007688120651244,0.2566770315170288,0.0395728088915348,-0.212775781750679
0.1489619140625,1.7627198663741348,0.7982044609207659,9.520358777216076,0.1693229526281356,-0.0261622630059719,-0.1387968957424163
0.15898779296875,1.8593863429248327,0.5704447028867901,8.98138400221765,0.1318687498569488,-0.0521123744547367,0.0096732573583722
0.169013916015625,1.7927214752756058,0.0193199645577929,8.251732341584562,0.1660253852605819,-0.0354540348052978,0.1842610538005828
0.179039794921875,1.7183210449382662,-0.4619377856124192,7.671023872706294,0.2219510972499847,0.0169145558029413,0.3652712702751159
0.189065673828125,1.5446198440238832,-0.8158766034726053,7.209108956512808,0.2351382672786712,0.1391922682523727,0.558796226978302
0.199091796875,1.4443553429812193,-0.9982750517141074,6.841969588556886,0.1679091602563858,0.2802375257015228,0.7733919024467468
0.20911669921875,1.5253775295458734,-1.0848194357663392,6.4876838569551705,0.0164871588349342,0.3903621733188629,0.9725252389907836
0.219142822265625,1.3933803580254316,-1.263020140057057,6.05923691059947,-0.1840680092573166,0.3992737233638763,1.08746600151062
0.2291689453125,0.8863293921627103,-1.2172440389186143,5.534494659093022,-0.3269372880458832,0.3952779173851013,1.0845510959625244
0.23919482421875,0.5558637312833219,-1.203026128473878,4.51366809528768,-0.3564436733722687,0.365578293800354,1.0406839847564695
0.249220947265625,0.7775943652208894,-1.391454650659859,3.081407679247856,-0.2645467519760132,0.3065530657768249,1.0387377738952637
0.259246826171875,1.3962886466875672,-1.7239339163839815,1.5448054297238587,-0.0956537202000618,0.2715215384960174,1.1112903356552124
0.26927294921875,1.881792382130772,-2.034623082843422,0.0625555326342582,0.0334504693746566,0.3519657850265503,1.233978509902954
0.279298828125,1.8906135480985045,-1.985983262836933,-1.577938468518853,0.0947819873690605,0.604356586933136,1.3013036251068115
0.289324951171875,1.283827511894703,-1.669936514867097,-3.70962784088552,0.0526981875300407,0.962766408920288,1.3105592727661133
0.299350830078125,1.0214772827990353,-0.9456735615350306,-6.083806119188666,-0.1206157431006431,1.3899948596954346,1.3237708806991575
0.309375732421875,0.7402559836905449,0.1747348365447484,-8.851341910287738,-0.4738475978374481,1.7562150955200195,1.2802428007125854
0.31940185546875,0.0156811879303306,1.0435716257072984,-11.771848833483457,-0.8746095895767212,1.912479877471924,1.0528292655944824
0.329427734375,-0.9786932030834256,1.1318820695839822,-15.29252821996212,-1.0578573942184448,1.7742999792099,0.5994718670845032
0.339453857421875,-1.0042053916111588,0.549809472745657,-19.41780431590676,-0.8357784748077393,1.2202341556549072,0.1514987051486969
0.349479736328125,0.02533369015567,0.8271954314749688,-23.07487837821245,-0.2237795889377594,0.3371523320674896,-0.1718553751707077
0.359506103515625,-0.7795414807006716,2.4351621777065096,-25.14642161717415,0.5533894300460815,-0.3800989985466003,-0.5612148642539978
0.369531982421875,-2.4736013600856066,2.7857360491782424,-25.37668583230972,1.3159343004226685,-0.978238046169281,-1.1480770111083984
0.379557861328125,-3.875938054765761,1.8293816652834411,-23.83083820005655,1.8936983346939087,-1.4250881671905518,-1.7427105903625488
0.389583984375,-4.6436339071109884,0.4036302292788401,-22.064728691244124,2.13177752494812,-1.483731031417847,-2.0237863063812256
0.39960888671875,-3.351693815909326,-1.4518182262077928,-19.60088124793172,1.8891509771347048,-1.385828137397766,-1.7578949928283691
0.409634765625,-0.8506317635767161,-4.145868217596411,-16.05520302927494,1.168420433998108,-1.3011343479156494,-1.046200394630432
0.419660888671875,0.8946267534520477,-5.939442071917653,-12.558444616609812,0.3411115407943725,-1.085156798362732,-0.2253641337156295
0.429686767578125,0.895641629583016,-5.266677835154533,-9.721909523564577,-0.294495016336441,-0.6930246949195862,0.4517861306667328
0.439712890625,0.1527743034834507,-3.150344145090878,-7.068948206150531,-0.6956159472465515,-0.2991943657398224,0.7863286733627319
0.44973876953125,-0.6300814985301345,-1.28073232235834,-4.523891967660188,-0.8383480310440063,-0.092454507946968,0.7752270102500916
0.459764892578125,-1.3157144961513578,0.4363629436446353,-2.262202588939666,-0.7198697328567505,-0.0931628346443176,0.5777512192726135
0.469790771484375,-1.3033122568264603,1.382011261140555,-0.5927852756410836,-0.4105795323848724,-0.3617538213729858,0.2843720912933349
0.479816650390625,-1.4490775491975247,1.8128480252422392,1.5131033005148171,-0.0100426105782389,-0.6942940950393677,-0.0952363535761833
0.489843017578125,-1.4833677952036262,2.34272384024486,3.843298644706607,0.3858008682727813,-0.885324239730835,-0.4702334105968475
0.49986767578125,-1.1928968025170266,2.6130755894884468,6.273963949385285,0.6760170459747314,-0.9479076266288756,-0.7806933522224426
0.50989404296875,-1.0624378734145312,2.567398710940778,8.594461490905285,0.8432278633117676,-0.8413958549499512,-0.9968813061714172
0.519919921875,-0.8688439312893896,2.4399187245838343,10.526086556088924,0.8858470916748047,-0.5628517270088196,-1.0560721158981323
0.52994580078125,-0.4247466670656576,2.03082369056046,11.920571075963974,0.7500490546226501,-0.1858045756816864,-0.9289623498916626
0.539971923828125,0.4353405052617192,1.3183012977741655,12.981249173164366,0.4235698282718658,0.2156760990619659,-0.6362559199333191
0.549997802734375,1.3345023448601363,0.6381269308850169,13.530873936992885,0.00610919483006,0.5532668828964233,-0.2364486157894134
0.56002392578125,1.8601356999874117,0.6490217613216489,13.345317463111876,-0.3934776484966278,0.7683283686637878,0.1785757392644882
0.5700498046875,2.061048879084736,1.093143611997366,12.53022974499464,-0.6766452193260193,0.8087791204452515,0.4550858736038208
0.580075927734375,1.346794401808828,1.7275367631815373,11.532857706534864,-0.7690538763999939,0.7596651315689087,0.4890709221363067
0.590100830078125,0.4544670844055712,2.643066530865431,10.571073698806762,-0.6878557205200195,0.6698100566864014,0.3554494678974151
0.600126708984375,0.154211432747636,3.4202813221842048,9.862443783414363,-0.5063531994819641,0.5073837637901306,0.1136449128389358
0.61015283203125,-0.2262958046949468,3.603831716939807,9.285104498708248,-0.2472303062677383,0.2353956699371338,-0.1874057352542877
0.6201787109375,-0.5666624444017186,3.345285702432692,8.755788363415002,0.0495110228657722,-0.0688546001911163,-0.4480002820491791
0.630204833984375,-0.5359838495541364,2.8400360869035124,8.451092884412407,0.311842530965805,-0.301369309425354,-0.5798376798629761
0.64023095703125,-0.263538415966928,2.303116490869224,8.454884677910805,0.4764650762081146,-0.4256550371646881,-0.5796481966972351
0.650257080078125,0.0626237298991065,1.7289657730713486,8.732582259872554,0.505238950252533,-0.4183893799781799,-0.4668627679347992
0.660282958984375,0.3404505368642508,1.1831307569146157,9.162880387052892,0.373374730348587,-0.2854872345924377,-0.2943289577960968
0.670308837890625,0.4487342398419976,0.8629219938945024,9.394528750023245,0.1219789683818817,-0.0513261333107948,-0.091353453695774
0.6803349609375,0.5193408308543265,0.736208023473993,9.253870571532843,-0.1817154139280319,0.2013830840587616,0.1084265038371086
0.69035986328125,0.4837975525798276,0.8732483767934143,8.946164804798364,-0.45777228474617,0.4086768925189972,0.2449864745140075
0.700384765625,0.2581025815885513,0.9341305693879725,8.208277815261482,-0.650873064994812,0.5224044919013977,0.3152032792568207
0.710410888671875,0.2305823046414181,0.9428354885648936,7.217227965560555,-0.7293159365653992,0.4982842206954956,0.3448490500450134
0.720436767578125,0.4681882608419284,0.8435733694978058,6.262144332253933,-0.6843941807746887,0.3378596901893616,0.3533500134944916
0.730462890625,1.0132610969871283,0.5046556682240217,5.314997337165474,-0.5297574996948242,0.1546094417572021,0.370170533657074
0.740489013671875,1.7485085318006577,0.2448033203586936,4.755301261177658,-0.3712276220321655,0.0224432405084371,0.4097275137901306
0.750514892578125,2.573548173481226,-0.0895525711585767,4.655380166745186,-0.3246103227138519,-0.0061015854589641,0.4931364059448242
0.760541015625,3.4844884214177725,-0.465613113124296,4.724603340575099,-0.3911561965942383,0.0230920631438493,0.5893052816390991
0.77056689453125,3.643672728940844,-0.8686256854288279,4.575314111861586,-0.4986925423145294,0.0981263592839241,0.6341593265533447
0.780593017578125,3.429016709564626,-1.3173796528846025,3.625122926771641,-0.5438477396965027,0.1923071295022964,0.6423383355140686
0.790617919921875,3.213621854519844,-1.5701311557687818,2.0932517974227665,-0.4791738986968994,0.2699475884437561,0.579544723033905
0.800643798828125,2.3589492911197243,-1.9815704148307445,-0.0013046528577804,-0.3016142547130584,0.4405289590358734,0.4625152051448822
0.810669921875,1.5245391790255904,-2.010824274104833,-2.566652568748593,-0.1162942051887512,0.7961025238037109,0.4104543924331665
0.82069580078125,1.306373397962749,-1.1183205772213638,-5.500039431783557,-0.1016175299882888,1.3758337497711182,0.5235563516616821
0.830721923828125,0.950627238419652,0.334116292341426,-8.527803199127316,-0.364109069108963,2.000579357147217,0.6406587362289429
0.840747802734375,0.4694954344503581,1.1220831446252764,-11.82182779313922,-0.7725144624710083,2.3466477394104004,0.6184378266334534
0.85077392578125,0.4379146665986627,0.8574601482920348,-15.53978565547466,-1.0267714262008667,2.2427210807800293,0.4168588519096374
0.8607998046875,0.5155594856847078,0.2479180183131247,-19.307934074389934,-1.0284721851348877,1.570244312286377,0.1197274327278137
0.870825927734375,0.4187615647740662,0.2095110942358151,-21.923784097027777,-0.7496306896209717,0.432185560464859,-0.1589705199003219
0.880850830078125,0.5615743640150874,0.4072315051738172,-23.54816341420412,-0.225247710943222,-0.6814680099487305,-0.3041265308856964
0.890876953125,1.2374065369814633,0.3653944239847362,-23.107186072099207,0.2140220701694488,-1.5756573677062988,-0.4016709327697754
0.900903076171875,-0.0884484641078859,0.4623071303814649,-20.305612402319905,0.4602338075637817,-1.854400396347046,-0.668908417224884
0.910928955078125,-3.041198126195371,0.8540216252107172,-17.744999698257445,0.5368896722793579,-1.5137568712234497,-1.136440992355347
0.920954833984375,-4.887397070766985,1.2203966577306389,-15.661268008852003,0.5065389275550842,-0.9747564196586608,-1.4941743612289429
0.93098095703125,-3.4326369458884,0.709425011292845,-14.08473063930273,0.4556293785572052,-0.6531152725219727,-1.5179656744003296
0.9410068359375,-1.3602284683994947,-0.6634589405402541,-12.265988441455365,0.363438069820404,-0.5735058188438416,-1.3089359998703003
0.951032958984375,0.1708708363266661,-1.7934123801492154,-9.891066651308536,0.1953513473272323,-0.6977484226226807,-0.9790104627609252
0.961058837890625,1.1360753565553574,-2.001355311752856,-6.960213690665364,-0.0056103058159351,-0.9244115352630616,-0.6627383232116699
0.9710849609375,0.9053669047836214,-1.4868804794996977,-4.084434382468462,-0.1393462717533111,-1.0957045555114746,-0.5139570832252502
0.98111083984375,-0.0262915023371577,-1.0037941804617645,-1.969929369136691,-0.0959152057766914,-1.1504861116409302,-0.5771279335021973
0.9911357421875,-0.6311980084046721,-0.795531734580174,-0.2248252389520406,0.0709448829293251,-1.181810736656189,-0.7272148728370667
1.001161865234375,-0.5742872036591172,-0.6332146089240909,1.3932120157212018,0.318499892950058,-1.115851640701294,-0.8147417902946472
1.011187744140625,0.2415911899117752,-0.7272396310552954,2.817338809666037,0.5786891579627991,-0.9388853311538696,-0.7624136209487915
1.021214111328125,1.0938099669516086,-0.9264324161008,4.53123590068221,0.7228448390960693,-0.6549010872840881,-0.5874274969100952
1.031239990234375,1.7661035174630582,-0.9829648159880192,6.413057947298884,0.6935476660728455,-0.3068629801273346,-0.3573516607284546
1.041265869140625,2.0302803774639964,-0.9271683291599154,8.048924873173236,0.5429808497428894,0.0397638715803623,-0.1232366636395454
1.0512919921875,2.20484754755795,-0.7842514119572938,8.996008739897608,0.3297719359397888,0.3398081064224243,0.1090530306100845
1.06131787109375,2.335805877549946,-0.4492018573537468,9.389387880003452,0.1087794229388237,0.535452127456665,0.3265975415706634
1.071343994140625,2.182579455517977,-0.0264771063034422,9.636119245815276,-0.0912197157740593,0.6048229336738586,0.4782477915287018
1.081368896484375,1.629366165678203,0.3898100494474172,9.71700070873499,-0.2436100840568542,0.5814278721809387,0.5442230701446533
1.091394775390625,0.9757941937062888,0.8050617064043879,9.595682606008648,-0.3038574457168579,0.4835367202758789,0.5296808481216431
1.1014208984375,0.3416064289011061,1.2148255065348,9.478315871256587,-0.2496778815984726,0.3631589114665985,0.4307601153850555
1.11144677734375,-0.1757717053118161,1.4894139435000715,9.282366598176957,-0.0916474908590316,0.2778802216053009,0.2851709425449371
1.121472900390625,-0.3206806913807988,1.5931582494825125,9.125819945681094,0.1214759573340416,0.2134977579116821,0.1554157584905624
1.131498779296875,-0.2713669176355004,1.60122845095247,9.218082634314896,0.2784589231014251,0.1687257587909698,0.0553666576743125
1.14152490234375,-0.252532014914602,1.6062427719831465,9.47440015911758,0.3191055059432983,0.150956854224205,-0.0183450616896152
1.151551025390625,-0.1835075602608732,1.4596232008703052,9.739276253429054,0.2677181959152221,0.1387691646814346,-0.0532287433743476
1.161576904296875,-0.1512808043895289,1.244088645093888,9.793696994924543,0.1849283725023269,0.1477171927690506,-0.0492896288633346
1.17160302734375,-0.0392804372425191,1.1226135251749303,9.60465384797156,0.0984486117959022,0.1651598364114761,-0.0220135301351547
1.1816279296875,-0.1203031626632902,1.0544592226855456,9.353534476333856,0.0272127296775579,0.183795541524887,-0.010607891716063
1.191654052734375,-0.3416039446830749,0.9333269248548894,9.006364129695296,-0.0307544339448213,0.1880994737148285,-0.0127368224784731
1.201679931640625,-0.3894667159024625,0.7472405818808824,8.511206869113444,-0.0586756058037281,0.1531776040792465,-0.0161384604871273
1.211705810546875,-0.3902039441358297,0.6428250255733728,8.032053233349323,-0.043764304369688,0.1070625782012939,-0.0046027121134102
1.22173193359375,-0.3074121540827677,0.6291173296730965,7.555721084746718,0.0056463214568793,0.0957557633519172,0.0178552102297544
1.2317578125,-0.2251847381805069,0.6041731868242844,7.098787464097142,0.0649109780788421,0.1182671934366226,0.0419219322502613
1.241783935546875,-0.1840435485674068,0.5416165947441012,6.7317141471147535,0.0612804926931858,0.1905703246593475,0.0656813383102417
1.251809814453125,0.0835179123705252,0.5794898138035088,6.494020074239373,-0.0615506209433078,0.2658400535583496,0.1164347976446151
1.2618359375,0.4757650527717545,0.5623796890486031,6.233301684129238,-0.2988291084766388,0.2667296230792999,0.1938276290893554
1.27186181640625,0.6779005036730319,0.4352481142705306,5.689217018771172,-0.5622833371162415,0.1826933026313781,0.2440644353628158
1.28188671875,0.4780407060861587,0.3754134579675272,4.407125536888837,-0.710576593875885,0.0841177105903625,0.2844992578029632
1.291912841796875,0.5101089651938527,0.6196362384919076,2.4851117651373147,-0.6896311044692993,0.0485099181532859,0.3266951739788055
1.30193896484375,0.6065067078057677,0.8119128144081682,0.2276969949960708,-0.5505204796791077,0.1062620356678962,0.3727099597454071
1.311965087890625,1.0308036218099297,0.776604404335469,-1.640649483975768,-0.4400312602519989,0.2860198020935058,0.4505616128444671
1.321990966796875,1.8596065615467725,0.8917918222870678,-3.2666648779213427,-0.4735940396785736,0.6905947923660278,0.5427707433700562
1.332016845703125,2.6984464727818964,1.169408959423751,-4.8428515343368055,-0.734070360660553,1.1224799156188965,0.604651927947998
1.34204296875,2.6415754155248403,1.7900448034122585,-6.457256569987536,-1.1712429523468018,1.4225925207138062,0.524685263633728
1.35206884765625,1.0880294838540256,2.850870200128853,-8.767892058184742,-1.5226683616638184,1.4810353517532349,0.2063739001750946
1.362094970703125,-1.103689848192036,3.501938737912476,-12.52523091379404,-1.427371859550476,1.4068632125854492,-0.3267034292221069
1.372120849609375,-1.8868249694705008,2.5553727575823664,-17.079467750835416,-0.8883467316627502,1.1096208095550537,-0.8059957027435303
1.382145751953125,0.6657688979830593,-0.2943273027885705,-19.671494999337195,-0.2063513249158859,0.3639111518859863,-0.8686208724975586
1.392171875,4.0074323913306,-2.620278944995999,-19.15798550498485,0.1920858025550842,-0.4920413196086883,-0.4452877044677734
1.40219775390625,4.588156057778001,-2.070620863419771,-16.55739851793051,0.1508955657482147,-0.7488062381744385,0.0336972028017044
1.412223876953125,2.8505133495151997,-1.582239380583167,-13.646909715402126,-0.0642982199788093,-0.7799394130706787,0.2437819987535476
1.422249755859375,1.028160852216184,-1.5174822462514042,-11.2541915718019,-0.1737282574176788,-0.4476867020130157,0.18463896214962
1.432276123046875,-1.43582161565274,-0.1928383745174854,-10.902986270558834,-0.0578511841595172,0.2790380120277405,-0.0415382459759712
1.442302001953125,-2.542735978849232,0.5234652903731912,-11.449698946332932,0.2171311676502227,0.8632751107215881,-0.2436925321817398
1.452327880859375,-1.339626263745129,-0.0602338847536593,-11.326271304106712,0.4464280009269714,0.9754509329795836,-0.2925316989421844
1.46235400390625,0.0078924337502568,-0.7615035735763609,-10.311335551905632,0.5478442311286926,0.837534487247467,-0.2687650024890899
1.4723798828125,0.5648658067759126,-1.243542117127031,-8.866073030951618,0.5745525360107422,0.4934250712394714,-0.2124481946229934
1.482405029296875,1.2234813258729875,-1.6466151143819092,-7.101822301748395,0.6313053965568542,0.0338486097753047,-0.170215830206871
1.492430908203125,1.170772868188098,-1.5405474800184369,-5.200324079281091,0.7527860403060913,-0.4416926205158233,-0.1717969477176666
1.502456787109375,0.6339196884535253,-1.2029536477595566,-3.1210698275506497,0.9140655398368835,-0.8465315699577332,-0.217231199145317
1.51248291015625,-0.0275304695475846,-0.7362094117134809,-0.8937146801084279,1.043306827545166,-1.1288918256759644,-0.3230548202991485
1.5225087890625,-1.0382328219626098,-0.094546086863242,1.3309230250686406,1.0945173501968384,-1.1782766580581665,-0.5074369311332703
1.532534912109375,-2.073076732139289,0.621698797044903,3.1651825255215167,1.0585471391677856,-1.0197166204452517,-0.7121288180351257
1.542560791015625,-2.4561446138501166,1.017458329481259,4.517185163497925,0.9845075011253356,-0.7589627504348755,-0.8594449162483215
1.5525869140625,-2.4756676449656485,1.0476888517677785,5.353681580346822,0.9192280769348145,-0.5240666270256042,-0.9373234510421752
1.562613037109375,-2.5906337483167645,1.0940602884508668,5.943927692899107,0.8271068930625916,-0.3745433688163757,-0.9578309655189514
1.57263916015625,-2.3118381419852376,0.9081183954488484,6.271710617500543,0.704389214515686,-0.324462354183197,-0.8968634605407715
1.5826640625,-1.5732330673068762,0.3862505303349345,6.4587745733350514,0.5662679076194763,-0.3355797529220581,-0.7298244833946228
1.59268994140625,-0.6934248936064541,0.0117808742898516,6.658227470621466,0.4152597188949585,-0.318548321723938,-0.434814453125
1.602716064453125,0.159748626874946,0.0545572456230409,7.0177534409642215,0.2338207811117172,-0.2731603384017944,-0.0973293036222457
1.612741943359375,0.0866730336668901,0.4635486914077773,7.686879613485932,0.0412042029201984,-0.2100500911474228,0.1237247884273529
1.622767822265625,-0.6355092957325279,0.9766999834395944,8.202471759331226,-0.1012566909193992,-0.1200524270534515,0.1676550805568695
1.6327939453125,-1.079177484356612,1.6080042286977172,8.355162320920824,-0.1493352651596069,-0.0279560536146163,0.1107159107923507
1.64281982421875,-0.9384748822025956,2.0569643862500784,8.25727536266446,-0.1221353858709335,0.0527960509061813,0.0383101403713226
1.652845947265625,-0.538333116094023,2.257432451928407,8.309172723162174,-0.0818486809730529,0.1262593418359756,-0.0186711177229881
1.662871826171875,-0.0899994564095512,2.3562061298914254,8.451102236762642,-0.0897086933255195,0.1502847969532013,-0.0600752755999565
1.67289794921875,0.2460422693028114,2.4080852240800854,8.736306248831749,-0.1668351590633392,0.1140372976660728,-0.1088430806994438
1.6829228515625,0.3803947535114362,2.268175379738957,8.821171228429675,-0.2678930461406708,0.0179778225719928,-0.1745955497026443
1.69294873046875,0.532139887477085,2.026496767272055,8.558105982932448,-0.312776118516922,-0.1227955371141433,-0.2276846021413803
1.70297607421875,0.7324088503867388,1.8353220151178535,8.088744257864356,-0.268825501203537,-0.2865372896194458,-0.2578325569629669
1.713001953125,0.6525826686736196,1.665716997475922,7.841663932484388,-0.1895261406898498,-0.4341256618499756,-0.2992359101772308
1.723028076171875,0.4093477666754275,1.350805975537747,7.924546798354386,-0.1279906630516052,-0.5180008411407471,-0.3340036571025848
1.733053955078125,0.4164262536942958,0.9718297470547258,8.207439026349782,-0.1112484261393547,-0.5227239727973938,-0.3212921321392059
1.743080078125,0.5126094402400776,0.6561570200290531,8.463816172385215,-0.1409561336040496,-0.4223390817642212,-0.2622517645359039
1.75310595703125,0.6710407739713787,0.2792535426994785,8.515330671045184,-0.2208030372858047,-0.2587935626506805,-0.1445653587579727
1.763132080078125,0.9537120526924728,-0.05884783722274,8.457837682497502,-0.3663029968738556,-0.0417622029781341,0.047468401491642
1.773157958984375,1.4082051483221352,-0.2471405494009144,8.131148982873558,-0.5828808546066284,0.2125619500875473,0.2873659431934356
1.783183837890625,1.683543307676166,-0.3217688154110685,7.50228409359157,-0.8310840129852295,0.3931136727333069,0.5161305069923401
1.793208984375,1.5802037831023334,-0.5088575038280337,6.493313387274742,-1.0398271083831787,0.4793683886528015,0.6700247526168823
1.80323486328125,1.0963666656970976,-0.6980451007530093,4.817144261628389,-1.1396896839141846,0.4450830221176147,0.7141121625900269
1.8132607421875,0.6432268113072961,-0.693950963307172,2.81617794919312,-1.1023415327072144,0.2423019409179687,0.6500533223152161
1.823287109375,0.1145563169738277,-0.8900820226944982,0.5376660304874181,-0.8856365084648132,-0.0205817036330699,0.5638038516044617
1.83331298828125,0.2198515787253156,-1.3525903747364878,-2.0469629244565963,-0.4956530034542084,-0.1551504284143448,0.5977367758750916
1.843339111328125,1.0405083656791596,-1.201253127451986,-4.396878868162632,-0.1238135695457458,0.0628167986869812,0.7982721924781799
1.853364990234375,2.286930787482857,-0.2186132325693965,-6.115453303340077,-0.0781400874257087,0.8536494374275208,1.130308985710144
1.86339111328125,2.8733593875736,1.4844482839167117,-7.025274484118818,-0.722331702709198,2.042846441268921,1.4465458393096924
1.8734169921875,2.4750483440235254,3.2201860353410243,-7.792792641809582,-1.9403986930847168,3.207778215408325,1.5005632638931274
1.883443115234375,2.1378167692057786,3.561261279974877,-10.651881511968371,-3.0655980110168457,3.715852022171021,1.1960619688034058
1.893468017578125,2.2899198862962424,2.6057307796835896,-15.733050804036855,-3.4334757328033447,3.265341758728028,0.6430704593658447
1.903493896484375,2.678552854788303,1.4561087630085647,-21.47321591975689,-2.843938112258911,1.752493143081665,0.049391821026802
1.91352001953125,2.0441845457844434,1.4902463026709851,-25.30141811761856,-1.47201669216156,-0.1694431453943252,-0.4876079559326172
1.9235458984375,0.1529411753498017,2.6413790161699056,-26.85662979054451,0.198879599571228,-1.5243165493011477,-1.082409143447876
1.933572021484375,-2.0836524866893886,2.9584616830587387,-25.2636018894434,1.5339787006378174,-2.4222257137298584,-1.6581015586853027
1.943597900390625,-2.4515245528340337,2.1118677966959774,-20.411060151219367,2.198556900024414,-2.8363070487976074,-2.047238349914551
1.9536240234375,-1.8747455323591824,0.7782236761003732,-15.091059891200064,2.2395565509796143,-2.4635913372039795,-2.129900455474853
1.963650146484375,-0.791120567074418,-0.99661727456972,-10.899661510050295,1.8537150621414185,-1.5373400449752808,-1.7491683959960938
1.973676025390625,1.7585741448715329,-2.632625800871849,-7.779865355697273,1.2221400737762451,-0.4108812510967254,-0.9732679128646852
1.9837021484375,3.5719200366333124,-3.631510581982136,-5.410070407044887,0.4698325097560882,0.5297204256057739,-0.1227580979466438
1.99372802734375,3.980508436308801,-3.6619334850355982,-3.4775305651038884,-0.2788465321063995,1.1453471183776855,0.5406478643417358
2.0037529296875,3.388633845771849,-2.639405670270324,-2.441578328359127,-0.820753812789917,1.262578010559082,0.8528664112091064
2.013779052734375,2.186929905812442,-1.2608195612728594,-2.40582078627944,-0.9330135583877563,0.8154897689819336,0.7607255578041077
2.023804931640625,0.7510626974523067,-0.290688142568618,-2.8217449356704947,-0.5499507188796997,0.0041483137756586,0.3950137794017792
2.0338310546875,-0.2436384412977844,0.4357673523716628,-2.502208445888757,0.1962558329105377,-0.8245195746421814,-0.0710942670702934
2.04385693359375,-0.9001652444873005,1.0775852467291056,-1.0954776079028845,1.0229697227478027,-1.4357917308807373,-0.5150910019874573
2.053883056640625,-1.054884973816946,1.242232057441771,1.7933751168787475,1.6299954652786257,-1.772645115852356,-0.9012970328330994
2.063908935546875,-0.880558845937252,1.0601765774190426,5.420295448461174,1.8526020050048828,-1.7883198261260986,-1.1448278427124023
2.073934814453125,-0.1276349029240198,0.6217304342921823,8.709649128052591,1.7361845970153809,-1.473812460899353,-1.146572232246399
2.083961181640625,0.810208640838787,-0.3374701328139752,11.16787873148322,1.3709484338760376,-0.9435358047485352,-0.8810706734657288
2.093987060546875,1.6437556332975625,-1.3116490002781152,12.810349001145362,0.8347727060317993,-0.3385111391544342,-0.3946844935417175
2.10401318359375,1.9641689059138296,-1.6770632980071007,13.546717987334729,0.2485594004392624,0.1590202003717422,0.1329813003540039
2.1140380859375,1.3474893983356653,-1.717626486802846,13.332196115732192,-0.1864434629678726,0.4493968784809112,0.4988722205162048
2.12406396484375,0.1309763223064132,-1.27808385367617,12.026177814817428,-0.3123128712177276,0.5709438920021057,0.6638303995132446
2.134090087890625,-0.8013313607696443,-0.5248880166526884,10.183591800045969,-0.1391309946775436,0.5364498496055603,0.6697143912315369
2.144115966796875,-1.2717051124244927,0.1459090847559273,8.805877213186026,0.1984100937843322,0.3855480253696441,0.5939791798591614
2.15414208984375,-1.2566238631486892,0.4987611668253317,8.230451068624854,0.5007364153862,0.1939194649457931,0.517505407333374
2.16416796875,-0.9028472501128912,0.6075991792175919,8.389799334537983,0.6399350166320801,0.0431308709084987,0.4811758399009704
2.174194091796875,-0.697998558197543,0.6813928758334368,8.884431694462895,0.6173729300498962,-0.0342874899506568,0.4812213778495788
2.184219970703125,-0.5640576321981847,0.682487758398056,9.172954037299752,0.5044844746589661,-0.0497210808098316,0.5149205923080444
2.194245849609375,-0.3189159467305988,0.5696782485589384,9.148746647760271,0.3714861869812011,-0.0568865798413753,0.5835265517234802
2.20427197265625,-0.1083043621732853,0.3621655981313437,8.890247102743388,0.2474997788667678,-0.0890392512083053,0.6730645895004272
2.214296875,0.008250161146745,0.2187417908525094,8.49238058809042,0.1333417743444442,-0.1638090908527374,0.7512872219085693
2.224322998046875,0.0939014140178449,0.2007088156316429,8.081905351755022,0.0736871436238288,-0.2592804133892059,0.7990518808364868
2.23434912109375,0.1171979175237938,0.1973473946408368,7.701869092825055,0.1066506877541542,-0.3206306099891662,0.8223886489868164
2.244375,0.0539563936530612,0.3505686107747257,7.464289586240053,0.1780719608068466,-0.2734606266021728,0.8079480528831482
2.254401123046875,0.0066763359587639,0.5165013331120833,7.418740717986226,0.2273170053958892,-0.1743817329406738,0.7760723829269409
2.264427001953125,0.1469724762037396,0.525255242529884,7.626668598151206,0.2118435353040695,-0.092052087187767,0.7486957311630249
2.274453125,0.4800433511454611,0.366830557735078,7.732400424689054,0.1516401171684265,-0.0762867033481597,0.7361524701118469
2.28447900390625,0.9029755526676774,0.0522508957762736,7.543141589158773,0.0886039584875106,-0.1615116596221923,0.7718707919120789
2.294505126953125,1.3508894160374998,-0.3781119032712653,7.144255083808303,0.0670957341790199,-0.2927200198173523,0.8648297786712646
2.304531005859375,1.5946671927407383,-0.7008341469496489,6.628336774748563,0.1138469576835632,-0.3997126519680023,0.962409734725952
2.314556884765625,1.4335083702743052,-0.7986305773783474,6.114699854624271,0.1827447861433029,-0.4328650236129761,1.021158218383789
2.32458203125,1.1160334891974926,-0.7826501873057335,5.848840009972453,0.1950102299451828,-0.3463780879974365,1.01685631275177
2.33460791015625,0.8642612066090106,-0.5809869570260867,5.5737949883461,0.140709176659584,-0.1468934863805771,0.9534576535224916
2.344634033203125,0.5848844028560445,-0.2593141493353992,4.698652906760573,0.0670860707759857,-0.0035152365453541,0.8151810765266418
2.354659912109375,-0.0095433975613676,-0.3233796846738085,2.910184851145744,0.074742391705513,-0.001536508090794,0.6138852834701538
2.36468603515625,-0.3116360188554972,-0.7849585373133421,0.0904617766916751,0.2655181288719177,-0.1651622802019119,0.4820372462272644
2.374712158203125,-0.4268170070663094,-0.5975468640197068,-3.280269040381908,0.5397350192070007,-0.2664987742900848,0.4727321565151214
2.384738037109375,-1.4694288478307425,0.6032197220243514,-6.812395703548193,0.7293358445167542,0.0196511261165142,0.4925653338432312
2.39476416015625,-3.129392250216007,2.2382588187724357,-10.520755716454982,0.6599019169807434,0.6510142087936401,0.4879655241966247
2.4047900390625,-3.2122017585888503,3.1012150802627203,-14.01706872344017,0.2237357497215271,1.162620186805725,0.4623872935771942
2.414816162109375,-1.687679530698061,2.4748379161432386,-17.075793446236847,-0.4401913583278656,1.1424262523651123,0.3503382503986358
2.424842041015625,-0.3069278411645442,1.109126486288011,-19.789007280039787,-0.9518442749977112,0.3546459674835205,0.1546142101287841
2.434866943359375,-0.5725904827438295,1.7052106573440131,-22.379054168379305,-0.9763581156730652,-0.5636050701141357,-0.1196708753705024
2.44489306640625,-2.097623582766205,3.072039254660904,-24.72269000890255,-0.5370517373085022,-1.2527945041656494,-0.6285318732261658
2.4549189453125,-3.3578862408086656,1.5992095123454928,-24.60420508377552,0.106294997036457,-1.81484854221344,-1.276490569114685
2.464945068359375,-4.451651784096658,-0.3910490166578441,-22.79597258950472,0.6879035830497742,-2.0256597995758057,-1.6919302940368652
2.474970947265625,-3.694788291411101,-2.0589950152948497,-20.412633684146403,1.032429575920105,-1.9938323497772217,-1.602487564086914
2.484996826171875,-0.5504381991032511,-4.6337207081228495,-17.499554280602933,1.078785061836243,-1.8930768966674805,-1.0525716543197632
2.495023193359375,1.524519013020396,-6.18713906789124,-13.831805679547786,0.8076798319816589,-1.597914457321167,-0.3198396563529968
2.505049072265625,1.9337325588569043,-5.64326599945724,-10.021733012616634,0.354931503534317,-1.0758477449417114,0.304397314786911
2.5150751953125,1.265725161232054,-3.8527582547083497,-6.844713918828964,-0.1125129088759422,-0.3691111803054809,0.6327651143074036
2.52510107421875,0.6758701668892055,-1.8492993948049845,-4.485045227393508,-0.4769512414932251,0.3936526477336883,0.7068188786506653
2.5351259765625,0.6369158745948225,-0.1646129997746087,-2.892193267381191,-0.7108713388442993,1.017909288406372,0.6358616352081299
2.545152099609375,0.7956356333460658,1.0600302277509122,-2.046868231910467,-0.7962145805358887,1.2730731964111328,0.4690068960189819
2.555177978515625,0.9245267286099492,1.4013310247689486,-2.043350579178333,-0.6732000112533569,1.0657951831817627,0.2277042418718338
2.5652041015625,1.1424491293709724,1.022082409085333,-2.142113735747337,-0.3421267569065094,0.4383799433708191,-0.0159825962036848
2.57522998046875,1.515308555474132,0.7186199790090322,-1.7355214783251285,0.1011369600892067,-0.3150549530982971,-0.2083347290754318
2.585256103515625,2.041750158244372,0.510163471860066,-0.1759463494926691,0.5202010273933411,-0.9786257147789,-0.3141199052333832
2.595281982421875,2.1592129007168115,0.2715652897518128,2.443150692242384,0.7841043472290039,-1.3938755989074707,-0.3466362953186035
2.605307861328125,2.0560764974996446,0.2272540735341608,5.44613306955099,0.842471182346344,-1.458132028579712,-0.2628113925457001
2.615333984375,2.01794579654783,0.3763265542244538,8.30908796748817,0.70814448595047,-1.1855164766311646,-0.0673191025853157
2.62535986328125,1.8768924812600016,0.5921285652980208,10.713870058369636,0.4516292214393616,-0.6560219526290894,0.1502414345741272
2.635385986328125,1.438498579777032,0.9066850747101008,12.331779887270926,0.1396407037973404,-0.0912685245275497,0.3346147239208221
2.6454111328125,1.084240905226022,1.2663370095200837,12.95872871379852,-0.1339413523674011,0.3573381900787353,0.4345688223838806
2.65543701171875,0.7076938766513019,1.6189532004743814,12.589400895887612,-0.2727905511856079,0.6256242394447327,0.4589876234531402
2.665463134765625,0.5347027237024158,1.9565897028312087,11.700893721294404,-0.2658143937587738,0.7340776324272156,0.4459650814533233
2.675489013671875,0.5593807994935661,2.159421721161902,10.70327150746584,-0.1818960905075073,0.6650484800338745,0.3978526890277862
2.68551513671875,0.589350186625868,2.105651114138216,10.046294622421264,-0.0903699919581413,0.4739242494106293,0.2843151688575744
2.695541015625,0.3331258199993521,1.9438934489957984,9.567619710084797,-0.0020976504310965,0.2759837508201599,0.13314750790596
2.705566162109375,0.1174054593272507,1.888708591260016,9.08477891024053,0.1005517914891243,0.120820365846157,-0.0026822895742952
2.71559228515625,0.2442754240270704,1.641836063411832,8.710877208542824,0.2143766283988952,0.03041004948318,-0.0878877341747284
2.7256181640625,0.2959963319793343,1.2350364468492567,8.51453513675332,0.2764236032962799,-0.0157207138836383,-0.1039015278220176
2.73564453125,0.4901951811950653,0.9261706964246929,8.568736098018288,0.2291442304849624,-0.0043032094836235,-0.0442938581109046
2.74567041015625,0.7237110185377299,0.6651423635825514,8.669903977641463,0.0998248904943466,0.007986195385456,0.0741465464234352
2.7556953125,0.8625006997425109,0.4005018315926194,8.644178584754467,-0.0714139714837074,0.0096828956156969,0.2122522294521331
2.765721435546875,0.7738521830178797,0.3614902561530471,8.40144125701487,-0.2299239784479141,0.0248244516551494,0.3231438994407654
2.775747314453125,0.7162915360614657,0.5465905837643891,8.03246941293478,-0.3328759372234344,0.0276402104645967,0.408753901720047
2.7857734375,0.7495861951589584,0.7835308425977826,7.582218046528101,-0.3777015805244446,0.0199464708566665,0.4567753672599792
2.79579931640625,0.8696010332670062,1.0077133266668763,7.300850836142897,-0.4026985168457031,-0.0378664918243885,0.4480937421321869
2.805825439453125,0.9874339242260902,1.1881158518508077,7.222493338742852,-0.3938449621200561,-0.1515778601169586,0.3858973979949951
2.815851318359375,1.015806543686241,1.1864869354747236,7.104363218402862,-0.3434968292713165,-0.2544201016426086,0.330619752407074
2.825877197265625,1.3744124765746295,0.9580880758196116,6.996220239070057,-0.2909559309482574,-0.3227914571762085,0.3329852819442749
2.8359033203125,1.6235390669599177,0.6508120788045227,6.96135935356915,-0.2908605933189392,-0.3330459594726562,0.3693326413631439
2.84592919921875,1.7329400835298,0.2927062043927609,6.7892118118375535,-0.3558500111103058,-0.2741272747516632,0.4145846664905548
2.855955322265625,1.583382705399394,-0.0311282725605531,6.209976922643184,-0.4614656567573547,-0.1404965370893478,0.4864884316921234
2.865980224609375,1.39912255493924,-0.1759079537110403,5.210070981791615,-0.6172803640365601,0.0697531774640083,0.5591275691986084
2.876006103515625,1.0159317775011063,-0.2129687604090198,3.6579619510561225,-0.7770258188247681,0.293433129787445,0.6186659932136536
2.886032470703125,0.8232909713823348,-0.3425706342907622,1.4587819277405738,-0.8745825290679932,0.3800570666790008,0.7342935800552368
2.896058349609375,1.070114326326549,-0.3775041466364637,-0.9956827701985836,-0.8932262659072876,0.3269765377044678,0.8671248555183411
2.90608447265625,0.6839392723806202,0.1153583540717139,-3.404774540972709,-0.8249045014381409,0.2640308439731598,0.912180244922638
2.9161103515625,-0.5157024012867361,1.622769543892145,-5.659007758468389,-0.7598429322242737,0.4869728684425354,0.7636991143226624
2.926136474609375,-1.8773305804163216,3.320030265145004,-7.928947663661837,-0.8317031860351562,0.8723350763320923,0.467930793762207
2.936162353515625,-2.280740408410132,3.612279811811447,-10.054068763554096,-1.041595697402954,1.0913186073303225,0.1738576292991638
2.946188232421875,-1.742408315229416,2.4433172809809447,-12.462932570791244,-1.2315129041671753,0.8902268409729004,-0.0666605979204177
2.95621435546875,-1.008281189682707,0.4724976850062608,-14.95479147210121,-1.201116681098938,0.1535844802856445,-0.1113833263516426
2.966240234375,-0.7956909437298775,-0.0216071439132094,-16.73404570916891,-0.9231127500534058,-0.4392014145851135,0.0119627369567751
2.976266357421875,-2.115052125820517,1.144781444776058,-17.757066568148137,-0.5431627631187439,-0.5962067246437073,0.0164411086589097
2.986291259765625,-3.664010583570599,0.9733246617875992,-16.977140179783106,-0.1832358837127685,-0.5972743034362793,-0.17805115878582
2.996317138671875,-4.6173903355687855,0.2930747454442083,-15.574136837887764,0.0663558393716812,-0.2581103444099426,-0.5568988919258118
3.00634326171875,-6.267446530315279,0.4592920934092253,-14.875990907108784,0.2565965056419372,0.2529303133487701,-0.8900467753410339
3.016369384765625,-5.4084828455924985,-0.5216952850259841,-15.377674354588985,0.501619815826416,0.63074791431427,-0.8683090209960938
3.0263955078125,-2.750012409368157,-1.587065047173947,-16.20143754659295,0.623365581035614,0.8341817855834961,-0.5245333313941956
3.03642138671875,-0.4334142499068751,-2.162750865584612,-15.616234104382992,0.4167676270008087,0.7603634595870972,0.0087968558073043
3.046447509765625,1.0268072456501425,-2.3546759977146983,-13.999247820067405,0.0132805118337273,0.4463553726673126,0.4996009171009063
3.056473388671875,0.6428706913460046,-1.4487731594234703,-12.551085486018655,-0.2133246660232544,0.077614888548851,0.7407115697860718
3.06649951171875,-0.1955094568902626,0.1105194261405616,-11.656557735961677,-0.1058961153030395,-0.3276568651199341,0.7062385678291321
3.076525390625,-0.6701635527454316,1.2410144983455538,-10.103121840536591,0.2027155309915542,-0.6936111450195312,0.4243274629116058
3.08655126953125,-0.8513255179945379,1.5595657764822244,-7.358630824938416,0.5463191270828247,-0.9171966314315796,0.0823193788528442
3.096576416015625,0.1655138028055429,1.0697222582690418,-4.061381423661112,0.7815308570861816,-0.9485252499580384,-0.0832805037498474
3.106602294921875,1.77943953050673,0.5296466824218631,-0.5114151524215936,0.8345061540603638,-0.7221623659133911,-0.0783937722444534
3.116628173828125,2.615766143746674,0.2107144421435892,2.8963959797680374,0.7318165302276611,-0.3355661928653717,-0.0451356843113899
3.126654296875,2.698641410832107,-0.0515702839678153,5.573275932908058,0.589871883392334,0.0599820576608181,-0.0773959532380104
3.13668017578125,2.496684714031219,0.0342008872222155,7.134682368820905,0.4776777029037475,0.3768457472324371,-0.1635382920503616
3.14670654296875,2.266024631445855,0.1207040990138426,7.938115889501571,0.3766344785690307,0.5407912731170654,-0.2316792607307434
3.156732421875,2.265659013003856,0.0298817819140851,8.550504860278963,0.2657713294029236,0.5471381545066833,-0.2320004403591156
3.166758544921875,1.897133012995124,0.0524239051224663,8.97884659269452,0.165579155087471,0.4228141605854034,-0.2086408734321594
3.176784423828125,1.2756038734287023,0.089699962006323,9.219531079557536,0.152393564581871,0.2702483236789703,-0.2046136409044265
3.18681005859375,0.535557075509429,0.2645802531700581,9.479008529695868,0.2247610390186309,0.1782551109790802,-0.2254702150821685
3.196836181640625,-0.0371735463574528,0.4862392101109027,9.926199924010035,0.3156890571117401,0.1652905791997909,-0.2489710003137588
3.206861328125,-0.273856907820329,0.598609159488976,10.577365492427347,0.3722482621669769,0.2185922414064407,-0.2448625564575195
3.216887451171875,-0.4807961422741413,0.6143802907250822,11.285434266805648,0.3612182438373565,0.3051010370254516,-0.22625532746315
3.226913330078125,-0.6664673285759986,0.535853391574882,11.64914249126911,0.306911826133728,0.4135633409023285,-0.1797357946634292
3.236939208984375,-0.7960980632260442,0.5970940422182902,11.739347078329324,0.219603031873703,0.5361918210983276,-0.1153485625982284
3.24696533203125,-1.0597805638387798,0.6490021067731082,11.4938116443038,0.106988288462162,0.6576128602027893,-0.0567399226129055
3.2569912109375,-1.2764552295610307,0.6281735460169613,10.949348208761217,-0.0075406897813081,0.7366541624069214,-0.02699507586658
3.267017333984375,-1.349900697261095,0.58820649648346,10.02160909397602,-0.0971196293830871,0.7947802543640137,-0.0089674489572644
3.277043212890625,-1.1634301042098552,0.5670268937999382,9.012747108730672,-0.1661484986543655,0.742364227771759,0.0034801664296537
3.2870693359375,-0.9352972750797868,0.550555322676897,8.183855321666599,-0.198222666978836,0.5684609413146973,-0.0062439632602036
3.29709521484375,-0.7709137914784252,0.4993525933798402,7.438336814337968,-0.1732443422079086,0.3166899979114532,-0.0355682969093322
3.307121337890625,-0.6698331517472863,0.5175804701182991,6.949862977042794,-0.1072307676076889,0.0477301850914955,-0.0784409791231155
3.317147216796875,-0.5095384352969006,0.4299821930989623,6.902264775043726,-0.0441878885030746,-0.1864367723464965,-0.1125297024846077
3.32717236328125,-0.2326563344364985,0.2076073795063421,7.156081715202332,-0.0083854831755161,-0.3298856317996979,-0.1064387783408165
3.337198486328125,0.1301221166298724,0.0963238736581057,7.532732423347234,-0.0207454804331064,-0.3368726968765259,-0.0628130063414573
3.347224365234375,0.2563362660357728,0.1084858379537239,7.909329940000176,-0.0803960710763931,-0.1640453189611435,-0.0141433477401733
3.35725048828125,0.5860246223997324,0.0829857417225837,8.049715731289982,-0.2092962563037872,0.048659760504961,0.0700476989150047
3.3672763671875,1.208129150701314,-0.0625835896849632,8.088150383624434,-0.3826631307601928,0.1974184811115265,0.1778959929943084
3.37730224609375,1.401620655365288,-0.3384237802769989,7.632204020446538,-0.5241552591323853,0.2375786751508712,0.2682658433914184
3.387328369140625,1.486956175084412,-0.5215083110865205,6.777287565287947,-0.5944631099700928,0.1616247147321701,0.3373764455318451
3.39735400390625,1.6992307061515748,-0.6139948716040701,5.80829990979135,-0.5825675129890442,0.0478321090340614,0.3792780637741089
3.40738037109375,1.5257107070229947,-0.569602187648043,4.667711825051904,-0.5268096923828125,-0.0189988333731889,0.3908566236495971
3.41740625,1.3977990512505172,-0.3792494194012135,3.497649808546901,-0.4700081944465637,-0.0120056383311748,0.3664879202842712
3.427432373046875,1.324963824403286,-0.2574317696548998,2.0637065539866684,-0.4356125891208648,0.2172495871782302,0.3534638881683349
3.43745751953125,1.3017987835235894,-0.0702856884948909,0.3724760528087615,-0.4800929725170135,0.6453282833099365,0.4405740201473236
3.4474833984375,1.6087557777173815,0.1640606083225458,-1.7243839982390403,-0.6134364604949951,1.117682933807373,0.6398225426673889
3.457509521484375,1.714875726789981,0.7289801180470734,-4.113367631486058,-0.8257087469100952,1.409056305885315,0.7901824712753296
3.467535400390625,1.157854422969371,1.8180837339386344,-6.989719771134853,-1.0355830192565918,1.5417368412017822,0.7628927826881409
3.4775615234375,0.3910126301702111,2.885624410384893,-10.616722520303725,-1.105488896369934,1.5089894533157349,0.5197927951812744
3.487587158203125,-0.3664570482475683,2.9814383617594835,-14.669586875510214,-0.9171239137649536,1.1966702938079834,0.07761712372303
3.497613037109375,-1.0738263325870037,1.84934074972868,-18.28322277810573,-0.4493745863437652,0.5079322457313538,-0.4048368632793426
3.50763916015625,-1.2689777332872152,0.7055471469461917,-20.48744079558849,0.148305594921112,-0.2653397917747497,-0.6803635358810425
3.5176650390625,-1.14076117628403,0.8109575595099479,-21.021443627393243,0.6413461565971375,-0.7818800806999207,-0.7653130292892456
3.527691162109375,-1.432934662039578,0.525965363560617,-20.00576670143604,0.9201544523239136,-0.9389420747756958,-0.913593292236328
3.53771728515625,-2.800118794795871,-0.6613038083329796,-18.65752253921032,0.996246576309204,-0.7035396695137024,-1.0469008684158323
3.547743408203125,-2.945114710229635,-1.638036671128869,-18.120426417565344,0.8718892335891724,-0.3162167966365814,-0.8721489906311035
3.5577685546875,-1.150734800222516,-3.0790470875963565,-17.70690874479413,0.5825367569923401,-0.0521997772157192,-0.371688574552536
3.56779443359375,0.6504942450270056,-4.573792016860843,-16.729261982023715,0.2004421949386596,0.1201828569173812,0.2655069530010223
3.5778203125,1.2478596880652009,-4.47235934882164,-14.9271739818573,-0.1490495055913925,0.3077844381332397,0.8151794075965881
3.58784619140625,1.207410919429362,-2.8131051176190374,-12.359013931155204,-0.4152513146400451,0.3817625045776367,1.0933564901351929
3.5978720703125,0.9043087740328164,-1.0567170115496962,-9.769898186185957,-0.5070778727531433,0.2717047333717346,1.0030351877212524
3.607898193359375,0.7701825545944273,0.2212569520112127,-7.469854819151759,-0.3539386391639709,-0.0045968596823513,0.6625028848648071
3.617924072265625,1.187844999020174,0.8235480148833244,-5.349610385385155,-0.0608519166707992,-0.3520706593990326,0.2656179070472717
3.6279501953125,2.0701947469621897,0.795623577582091,-2.700289470300078,0.2422658056020736,-0.7274919748306274,-0.0319569483399391
3.63797607421875,2.888726175792515,0.6329796311244368,0.361943552878499,0.4382044076919555,-0.9164807796478271,-0.1731236577033996
3.648002197265625,3.269386996361613,0.5662900674253701,3.4601743566334244,0.4748924076557159,-0.8873128890991211,-0.2367019355297088
3.658028076171875,2.908223487944901,0.5749751859232783,6.3137862566858525,0.3884944021701813,-0.6938675045967102,-0.3190210163593292
3.668054443359375,2.2047768204092977,0.4234558600701391,8.37408095640242,0.2335204631090164,-0.3891195356845855,-0.4011629521846771
3.678079345703125,1.5095714731268584,0.2015064688153564,9.591973814618587,0.0602783784270286,-0.0530645623803138,-0.4224826395511627
3.688105224609375,1.172295036254078,-0.1132906444195658,10.02448026549816,-0.0637822449207305,0.1706651896238327,-0.3581909537315368
3.69813134765625,0.6960238240584731,-0.3145621354352683,10.019020831048488,-0.1316180229187011,0.2467985600233078,-0.2750611901283264
3.7081572265625,-0.157890998043213,-0.4225499972715973,9.877077873444556,-0.1647620499134063,0.1995414644479751,-0.2195975631475448
3.718183349609375,-0.8200487745907157,-0.5903479654915631,9.825321967244149,-0.1515620946884155,0.1036263778805732,-0.1735160797834396
3.728209228515625,-1.1558771315470338,-0.6733204093411564,9.79022025872469,-0.1032407283782959,0.0168114565312862,-0.1088866144418716
3.738235107421875,-1.1554327487803997,-0.7494129574839026,9.937732540893554,-0.0565571188926696,-0.050984900444746,-0.0379434712231159
3.74826123046875,-1.200680149869621,-0.6777658444426954,10.251363606023787,-0.0410898327827453,-0.0549357421696186,0.0201798677444458
3.758287109375,-1.2709881963267922,-0.5650192437719553,10.538714566993711,-0.0690450370311737,-0.0132804391905665,0.0720233619213104
3.768313232421875,-1.2486862020172178,-0.5042876386292279,10.589979474806784,-0.1145909056067466,0.0721528604626655,0.1185856163501739
3.778339111328125,-1.2278918357916175,-0.5097982918094843,10.300295102453232,-0.1543090194463729,0.1849251985549926,0.1649238169193267
3.788365234375,-1.3082862458467484,-0.4508136764645576,9.773668936896325,-0.1833707243204116,0.2826740145683288,0.1775581985712051
3.79839013671875,-1.5334234733574093,-0.4309563718933611,9.186163062962889,-0.1975949257612228,0.3235319554805755,0.1537404805421829
3.808416015625,-1.5082497230038046,-0.4245512540914118,8.591745217683911,-0.1929367333650589,0.2854688465595245,0.1262691468000412
3.8184423828125,-1.218074352262914,-0.4153849279478192,8.105826910090446,-0.1769806742668151,0.1830042451620102,0.1180562376976013
3.82846826171875,-0.9351332436244936,-0.4750416704006492,7.843172583481669,-0.1807841956615448,0.0531313605606555,0.1209857761859893
3.838494384765625,-0.6016678164072334,-0.5360799303397535,7.767502717730403,-0.2209632992744445,-0.0642005950212478,0.1360068023204803
3.848520263671875,-0.2964844990887679,-0.5334114417828619,7.835645695108175,-0.2779723405838012,-0.1411268264055252,0.1457375735044479
3.858546142578125,-0.092909553436283,-0.4052602781660854,7.873243896618485,-0.335713654756546,-0.2081319689750671,0.1412344425916671
3.868572265625,0.0551805103542283,-0.2411191519532352,7.955927440524101,-0.3795143961906433,-0.2500701248645782,0.0939324498176574
3.87859814453125,0.0939861331592313,-0.1677966530457139,7.875321871936321,-0.3720782995223999,-0.2573706209659576,0.0539528056979179
3.888624267578125,0.3414632575707509,-0.1198142740346491,7.768929535663127,-0.3531531095504761,-0.2066655158996582,0.0407194793224334
3.898650146484375,0.5294303362574428,-0.1911931645937263,7.66832630418539,-0.3611282110214233,-0.1413972973823547,0.0618798919022083
3.90867626953125,0.7720795473221689,-0.3363783189892769,7.5693872065275905,-0.4099976122379303,-0.0718835070729255,0.1155144646763801
3.918701171875,1.002782153875008,-0.4301606184057891,7.200667875903845,-0.4786118268966675,-0.017056742683053,0.1761221587657928
3.92872705078125,0.9536946631662548,-0.4770449730470776,6.367510248088836,-0.5231689214706421,0.0127130802720785,0.1873984038829803
3.938753173828125,0.597644333044812,-0.4190924041636288,5.034373054102063,-0.5342079997062683,0.0417447313666343,0.1861163675785064
3.948779296875,0.6352063672631979,-0.3082709994018077,3.2167887941181657,-0.5018213987350464,0.0909287109971046,0.2218900322914123
3.958805419921875,0.9051726243205368,0.1216834289073944,0.8148182535260915,-0.4096193313598633,0.3485277593135834,0.3092544972896576
3.968831298828125,1.0993122176297008,1.090358949714899,-2.1484511220753197,-0.3265397250652313,0.8313121795654297,0.4344359636306762
3.978857177734375,1.2345908950388431,2.408353227366507,-5.022444715899229,-0.3555048108100891,1.4309933185577393,0.5425938963890076
3.98888330078125,1.2103195003524423,3.5790205162882804,-8.229437507668138,-0.5414149761199951,1.9490057229995728,0.550338625907898
3.9989091796875,0.9426885543748736,4.188287263391912,-11.514579707044362,-0.7749866843223572,2.1729516983032227,0.4637834727764129
4.008935302734375,1.2311252647548914,3.496647353506088,-14.789430229508875,-0.8736734986305237,1.950201749801636,0.3288421332836151
4.018961181640625,1.2344871424034236,1.8027900109559296,-17.684667686891554,-0.6511645317077637,1.303881049156189,0.1827464401721954
4.0289873046875,1.0191912907537073,0.8047745600260794,-20.07630680308342,-0.1394727528095245,0.5959066152572632,0.1910462826490402
4.03901318359375,0.9711595927082002,1.6416642139762638,-21.442535534811014,0.33449187874794,0.0343143790960311,0.2109198570251464
4.0490380859375,0.2751088806428015,1.5386235262185337,-21.15364143605232,0.588600218296051,-0.3838799893856048,0.073974885046482
4.059064208984375,-1.3416929870165883,0.7485482304133474,-20.12311765409708,0.6042273640632629,-0.5705971717834473,-0.0227828100323677
4.069090087890625,-1.8355048243388528,0.8183858828797936,-19.163772271692757,0.4828680157661438,-0.5474778413772583,0.0982302501797676
4.079116455078125,-1.1621010475631803,0.376178998979926,-18.259481837034222,0.374589204788208,-0.5232166647911072,0.289883553981781
4.089142333984375,-0.9782762197803704,-0.3464551841065287,-16.923702019584177,0.3128283023834228,-0.4826372861862182,0.4208133518695831
4.099168212890625,-1.236097792470455,0.1237824470132589,-15.04173793414831,0.2507050335407257,-0.3764064610004425,0.4593202471733093
4.1091943359375,-1.3476985110417008,1.0209496056631209,-12.621714434993269,0.1665980219841003,-0.2877303957939148,0.3575319051742553
4.11922021484375,-1.2395783280625938,1.266684653913975,-10.368735601472856,0.1024829521775245,-0.3671788871288299,0.127701923251152
4.129246337890625,-0.7001194958742708,1.0403336666993797,-8.45444570197165,0.1660422384738922,-0.6363065838813782,-0.1469918042421341
4.139272216796875,-0.0371798299677669,0.6209111537985503,-6.772859811973572,0.3803902268409729,-0.9444718956947328,-0.394039124250412
4.14929833984375,0.4824909634932875,0.1774818884968757,-4.871664371845126,0.6398304104804993,-1.1693307161331177,-0.5754124522209167
4.15932421875,1.002746278844029,-0.3682302319325506,-2.370288869649172,0.7963723540306091,-1.2939211130142212,-0.6527876853942871
4.16934912109375,1.594331969437003,-1.0113104013107717,0.5872299796015024,0.7903316617012024,-1.2966090440750122,-0.6177358627319336
4.179375244140625,2.011517663196474,-1.4220344978407025,3.4321582224607465,0.6566713452339172,-1.1323367357254028,-0.5005077719688416
4.189401123046875,2.0411498542636632,-1.5398657813645895,5.8232934807837005,0.4630246460437774,-0.8551968932151794,-0.3548673093318939
4.19942724609375,1.828811756440997,-1.4846370844870804,7.604317065611482,0.2887148857116699,-0.5274105072021484,-0.2531574666500091
4.209453369140625,1.236174364838004,-1.108415634604916,8.757531992211938,0.1759115159511566,-0.2222103476524353,-0.2215617895126342
4.219479248046875,0.6673764062449336,-0.6745338767841458,9.31568493041098,0.1199366822838783,-0.027057634666562,-0.2224712669849395
4.22950537109375,0.3531732037825509,-0.4596797775525599,9.486035067331793,0.0979319512844085,0.059682548046112,-0.2215180099010467
4.23953125,0.0385156725482549,-0.2789798768572509,9.3755902407974,0.086405262351036,0.0687849670648574,-0.1875089108943939
4.249557373046875,-0.1361459252303466,-0.1885080902282148,9.252581700766086,0.0962299704551696,-0.0017684083431959,-0.1405264139175415
4.259583251953125,-0.3445710508603602,-0.1857638330213725,9.192721398565173,0.1313416212797165,-0.0536076389253139,-0.0965256616473198
4.269609375,-0.5945818036690353,-0.0080854721043258,9.214595961242914,0.1547606885433197,-0.0274503361433744,-0.0578791946172714
4.27963525390625,-0.7508295462835579,0.196679267854616,9.441489238640663,0.1138433590531349,0.0457330606877803,-0.0053834961727261
4.2896611328125,-0.7134945988193154,0.2762799702487886,9.71655004235804,-0.0057270843535661,0.1462720930576324,0.0671980381011962
4.299686279296875,-0.6494565725423396,0.2292245698895305,9.722599259394409,-0.1507380604743957,0.2174234986305236,0.1411790549755096
4.309712158203125,-0.6358019950687885,0.1884550448667258,9.346861574441194,-0.2581762075424194,0.2363230735063552,0.1956779658794403
4.31973828125,-0.6161868286903948,0.1246342415370047,8.641066005691885,-0.29352006316185,0.2243068963289261,0.2048512250185012
4.32976416015625,-0.8028562322493642,0.2130756183169782,8.022689192676543,-0.266774982213974,0.206265777349472,0.1751076430082321
4.339790283203125,-0.7626146035581827,0.2128774653963744,7.653572971689701,-0.2140217423439026,0.1428351402282714,0.1206657141447067
4.34981640625,-0.484504349142313,0.0723401368066668,7.560536376073956,-0.1702606528997421,0.0967641472816467,0.0695332661271095
4.35984228515625,0.0023456863433122,0.0413275242317467,7.685077532500028,-0.1752900332212448,0.0527681857347488,0.0406424961984157
4.369868408203125,0.4046350954724475,0.045428602875024,8.013523889446258,-0.2396061271429062,0.0108188707381486,0.0098502347245812
4.379894287109375,0.5792545072102919,-0.1375287213582545,8.24914700126648,-0.3181845545768738,-0.0499600581824779,-0.0070390007458627
4.38992041015625,0.8235472111657262,-0.4079329314414411,8.348917289051412,-0.3725429773330688,-0.1140254661440849,0.0206998232752084
4.3999462890625,0.971754197600484,-0.563197215976566,8.395076398158073,-0.3914911150932312,-0.147181823849678,0.0423960611224174
4.40997216796875,0.9189899911403656,-0.6054181088514625,8.34368464909494,-0.3758820593357086,-0.138412207365036,0.0533272512257099
4.419998291015625,0.9058462857984004,-0.6027398295529186,8.398509295216202,-0.3686853945255279,-0.0753562673926353,0.0788155645132064
4.430023193359375,1.1459345603339373,-0.6069510175071656,8.428125850322843,-0.4066944122314453,0.0343455411493778,0.1464814692735672
4.44004931640625,1.38450556217432,-0.5870139987632632,8.305173424392938,-0.4746468365192413,0.1553284078836441,0.2301758378744125
4.4500751953125,1.4119973802119492,-0.6244044027417898,7.911642308595776,-0.5536506175994873,0.2581054866313934,0.3108888268470764
4.46010107421875,1.5814052678465842,-0.7953408151179552,7.129294246041774,-0.6075956225395203,0.3428786695003509,0.431959331035614
4.47012744140625,1.754816253642738,-0.895104819292575,6.054423372837901,-0.6385924816131592,0.4279102981090545,0.5468979477882385
4.4801533203125,1.851129094450176,-1.2042819737538697,4.593989001715183,-0.629272997379303,0.5593857169151306,0.6861578226089478
4.490179443359375,2.9155688822716472,-1.5242631385631855,2.884512649750709,-0.5805399417877197,0.745961606502533,0.8515000343322754
4.500205322265625,4.047445837289095,-1.6608061368197202,0.6418494585394859,-0.5321787595748901,1.1093586683273315,0.991701066493988
4.5102314453125,5.348924741208553,-1.3281969611056148,-1.7868208729296922,-0.5470073223114014,1.5732263326644895,1.150141716003418
4.52025732421875,6.146790690889954,0.4196579290919006,-4.035152172905207,-0.6683167219161987,2.177147150039673,1.2125332355499268
4.530283447265625,5.114532632488012,2.7392344102442263,-6.4959571797817945,-0.8974680304527283,2.73421049118042,0.989477515220642
4.540309326171875,3.4281934104830025,4.034516213089227,-9.301032135680318,-1.0481762886047363,2.9665026664733887,0.4272327721118927
4.550334228515625,2.2281844378732143,3.6375679823249576,-12.557092032957076,-0.8811190724372864,2.6069228649139404,-0.2310960292816162
4.5603603515625,2.663159470823407,2.703740487536788,-15.78005688536167,-0.3637572228908539,1.8736917972564695,-0.6492720246315002
4.57038623046875,3.1586621838420625,3.3707325706392526,-18.28468408282995,0.2790755331516266,1.1176064014434814,-0.8519999980926514
4.580412109375,1.4828502010703086,4.371522308588028,-19.450123700231316,0.8680149912834167,0.5073153972625732,-1.0896780490875244
4.590438232421875,-2.0845304385676977,4.045408778503537,-19.26169839291573,1.220392107963562,-0.1210009604692459,-1.367289423942566
4.60046435546875,-4.738763383352756,3.670608082139492,-18.38935909379125,1.3206638097763062,-0.7325226664543152,-1.549307942390442
4.610490478515625,-5.785612861686944,2.742836818650365,-18.02397562959194,1.3988399505615234,-1.3108118772506714,-1.5825066566467283
4.620516357421875,-5.734530324703455,1.0849296181425452,-17.47353838033676,1.5332320928573608,-1.7600102424621582,-1.3803412914276123
4.63054248046875,-4.399928026600182,-0.1246886020727455,-15.91913334761858,1.6117548942565918,-1.866028308868408,-0.9456148743629456
4.640568359375,-2.7918177071794865,-0.7510378552719951,-13.135453061926365,1.46178936958313,-1.6452999114990234,-0.4480216205120086
4.650594482421875,-1.6236472035095095,-1.1712922889523207,-9.44507937208712,1.0625312328338623,-1.284934163093567,-0.0068768844939768
4.660620361328125,-0.7797136954624205,-1.219680326154828,-6.339293622907996,0.6331652998924255,-0.8538963794708252,0.3295919597148895
4.670646240234375,-0.5424876784902065,-0.7040713753052056,-4.559655354958773,0.332859456539154,-0.4090569317340851,0.5193890333175659
4.68067236328125,-0.6295468071315438,0.1372461780898272,-3.4063428132027385,0.1801812201738357,-0.1050632372498512,0.5506329536437988
4.690697265625,-0.8785974827364087,0.6769345812503248,-2.818458169084787,0.1560991704463958,-0.160670980811119,0.4214293360710144
4.70072314453125,-0.8855045587111264,0.8609591693889349,-2.603928698697686,0.307317167520523,-0.5535932183265686,0.2153427451848983
4.7107490234375,-0.4794842559579759,1.0377226074181496,-2.466011927869916,0.6007568836212158,-1.1117401123046875,0.0128544168546795
4.72077490234375,0.0620536475267261,1.3101485325872897,-1.7855214807689188,0.9695850014686584,-1.5885354280471802,-0.1565913408994674
4.73080126953125,0.6331024537865072,1.3830615008458491,-0.394627678862214,1.300483226776123,-1.8728423118591309,-0.2991933226585388
4.7408271484375,1.2325484294258058,1.3273530576273798,1.8036153558641672,1.5011463165283203,-1.9938710927963257,-0.3971084356307983
4.750853271484375,1.8319376333765685,1.418497555886209,4.300174397689104,1.5156238079071045,-1.8703073263168333,-0.4102963805198669
4.760879150390625,2.1133536513395605,1.6520603741757571,6.728914287263154,1.2997002601623535,-1.5232630968093872,-0.3408765494823456
4.7709052734375,2.2084756749272345,1.7950240531295536,8.774730964294076,0.9216310381889344,-1.1004693508148191,-0.246725931763649
4.78093115234375,1.952500972212851,1.7484242145180702,10.021356580519676,0.4985364973545074,-0.6994084119796753,-0.1730945855379104
4.79095703125,1.525568375942856,1.5549689502112567,10.342008922588825,0.1475192904472351,-0.3588966131210327,-0.0911927074193954
4.800983154296875,1.5714607969373464,1.3274538876533508,9.85657518364191,-0.0312299542129039,-0.1356358230113983,0.0297004245221614
4.811009033203125,1.6541288510128855,1.27445178078413,9.272636062279345,-0.0566278211772441,-0.040737360715866,0.1246543377637863
4.821033935546875,1.145519842053205,1.2875928557775913,8.865601321786642,-0.0067516067065298,-0.0303132161498069,0.1388923823833465
4.83106005859375,0.658176470092684,1.3255848789110778,8.764045319628716,0.0529230907559394,-0.0993746146559715,0.070267379283905
4.8410859375,0.4520371538449078,1.2403493124350904,8.723428062558174,0.1124205067753791,-0.2168437242507934,-0.0439428202807903
4.851112060546875,0.3123329516110941,1.0641163280207664,8.555830439215898,0.189087226986885,-0.3391985893249511,-0.1603133231401443
4.86113818359375,0.2536947020184248,0.8377632219143212,8.353079084905982,0.2723762691020965,-0.4341344237327575,-0.2385095953941345
4.871164306640625,0.3509720039438456,0.5224188135275617,8.30406867802143,0.3153638839721679,-0.497580349445343,-0.2624439299106598
4.881190185546875,0.5776838603600859,0.1945440641905181,8.525551620808244,0.2771741449832916,-0.5181159377098083,-0.2281722575426101
4.89121630859375,0.6470920353680849,-0.1485356156009249,8.825311981496215,0.1616802215576172,-0.4883853793144226,-0.1760220527648925
4.9012421875,0.5148566711775958,-0.4260936246952042,8.919831509146094,0.012094990350306,-0.4353077709674835,-0.1076073125004768
4.91126806640625,0.5737974473807961,-0.668463397764042,8.743253876012563,-0.12296724319458,-0.3816520571708679,0.0046482933685183
4.921294189453125,0.8175498704470694,-0.8250708405364304,8.368460778433084,-0.2039119005203247,-0.3076241612434387,0.1511612981557846
4.93131982421875,1.106181738073006,-0.7918817607052624,8.054768338504433,-0.2706587612628937,-0.1909466087818145,0.289156049489975
4.941345947265625,1.0250255498651415,-0.4875255235943942,7.972885589587688,-0.349946916103363,-0.0410718880593776,0.3796092569828033
4.95137109375,0.9553964986480772,-0.1372930494388565,7.833126405763625,-0.4361232221126556,0.0934126079082489,0.4075793027877807
4.96139697265625,0.942831835303083,0.1479091725319624,7.583694548821449,-0.5085276365280151,0.1699803471565246,0.3694750666618347
4.971423095703125,0.831352989545837,0.3558855314811691,7.086956156527996,-0.5503255128860474,0.1634107232093811,0.3091384470462799
4.981448974609375,0.8818393872670829,0.2968653698988259,6.35664924685657,-0.5669339895248413,0.0655150488018989,0.2464662492275238
4.991475341796875,0.912536284956336,0.0630999417092651,5.644899153617024,-0.5766208171844482,-0.0831767693161964,0.1922943294048309
5.001501220703125,1.0668878385607152,-0.2631150029230862,4.703839954009652,-0.5229693055152893,-0.2254090011119842,0.1345314234495163
5.01152734375,0.9266221665192396,-0.3787632433194667,3.7034248945921657,-0.404717743396759,-0.2892098128795624,0.0680561438202858
5.021552978515625,0.4510586642015725,-0.0923925255585461,2.5288369250953195,-0.2383759021759033,-0.1214583367109298,0.0285414941608905
5.031578857421875,0.2985704933162778,0.3601332155209034,1.160902558493614,-0.1069438979029655,0.2944552004337311,0.0843212604522705
5.04160498046875,0.1101543556878343,1.185658741022274,-0.0968675520807504,-0.1388333886861801,0.981522798538208,0.1700896918773651
5.051630859375,-0.6994050639946013,2.1785312030404804,-1.8956839832305907,-0.3978979289531708,1.8424382209777832,0.2333942353725433
5.061656982421875,-0.5724556773830205,2.3674494084395468,-4.5908775916963815,-0.8297628164291382,2.5206782817840576,0.3305780589580536
5.071682861328125,0.4902722284866496,1.8284326939955355,-7.981789611533284,-1.287922739982605,2.708465576171875,0.4098972380161285
5.081708984375,1.241404812837392,0.6628535950582474,-11.845644722056388,-1.495613694190979,2.1921989917755127,0.3396259844303131
5.091734130859375,1.1823412139721214,-0.1577495254795998,-15.761840845191475,-1.22072434425354,1.2395391464233398,0.0984000116586685
5.101760009765625,0.3485102169401943,0.666708370790258,-19.193510407352445,-0.5080012083053589,0.2995252609252929,-0.3845605254173279
5.1117861328125,-1.286402915340662,1.6231149963289495,-21.174034235739708,0.4446943402290344,-0.4302251935005188,-1.184261679649353
5.12181201171875,-3.0094086109638214,1.4653084068998694,-21.20896058769226,1.3644031286239624,-0.9869254231452942,-2.004227638244629
5.131838134765625,-2.737664968970418,0.908111965708062,-19.311154790002107,1.9656307697296145,-1.2052680253982544,-2.42699933052063
5.141864013671875,-0.6384295670934022,-0.1956032361209392,-16.395649620616435,2.154573678970337,-1.112712025642395,-2.2586042881011963
5.151889892578125,2.004732825361937,-2.029650555127859,-12.745443690514564,1.9573341608047483,-0.8014470934867859,-1.6454139947891235
5.161916015625,3.695832539767027,-3.0318612657904622,-9.220530027467012,1.4865440130233765,-0.2772895991802215,-0.8785683512687683
5.17194189453125,4.199504238454997,-2.883636451438069,-6.45877808046639,0.9428444504737854,0.3409070670604706,-0.3128911256790161
5.181968017578125,3.508848078909516,-2.0062533129274844,-4.786469137379527,0.5170047283172607,0.9733628034591676,-0.0673125237226486
5.191993896484375,2.2896080438680944,-0.4196479922197759,-4.802753917226196,0.3502899408340454,1.5872379541397097,-0.0680944845080375
5.20202001953125,1.24462099840492,0.8414364305343478,-6.350546253806352,0.4089449942111969,1.9172781705856323,-0.1931487917900085
5.2120458984375,0.9969684991601854,1.3654071862116457,-7.741039073696732,0.5597223043441772,1.732001781463623,-0.3117497563362121
5.22207177734375,0.8768322996947914,1.5430772907570005,-8.608491185301542,0.7131496667861938,1.085480809211731,-0.4053156673908233
5.232096923828125,0.3254522166315466,1.3535694489017127,-8.629502993670105,0.830561637878418,0.141220673918724,-0.4143791496753692
5.242122802734375,0.0850246271390467,1.2423498386025429,-7.43400726070106,0.9113936424255372,-0.8174883127212524,-0.3711531162261963
5.252149169921875,-0.6399041696906089,1.4626568694777786,-5.198488680547476,0.971033811569214,-1.549334168434143,-0.365326851606369
5.262175048828125,-1.4626482477799057,1.728206917528063,-2.122472631210089,0.999789297580719,-1.919359803199768,-0.3707908689975738
5.272200927734375,-1.7988062020167708,1.9881378105223175,1.212545067447424,0.9619064927101136,-1.8768486976623533,-0.3328720033168793
5.28222705078125,-1.842452013128251,2.157796019656211,4.542833984017372,0.7979066371917725,-1.524630427360535,-0.2479832023382187
5.2922529296875,-1.8094841017670928,2.0552605049416424,7.37835668514967,0.5127377510070801,-1.0273691415786743,-0.1394774168729782
5.302279052734375,-1.8137801915258167,1.9639114240214228,9.23395883336067,0.2029924392700195,-0.53050297498703,-0.0070093804970383
5.312304931640625,-1.3886641431584954,1.7585405348628758,10.013875869375466,-0.0545241124927997,-0.1995404660701751,0.1904973983764648
5.3223310546875,-0.8348134321980177,1.5462684880137445,10.1595819789052,-0.2277571409940719,-0.012346064671874,0.3969594836235046
5.33235693359375,-0.7364791685655713,1.6518924702629445,10.059596002542971,-0.342926561832428,0.0590981766581535,0.5446531176567078
5.3423828125,-0.8432550973288714,1.9831676208943128,9.95918683233261,-0.4147804975509643,0.0342133343219757,0.5832386016845703
5.352408935546875,-0.9718846190471202,2.170762176474184,9.882151523447035,-0.4439819753170013,0.0031921695917844,0.5132274031639099
5.36243505859375,-1.0565448698531836,2.398251081677526,9.859832139611244,-0.4104072451591491,0.0296578649431467,0.3892847001552582
5.3724599609375,-1.0341671068936586,2.567855222536623,9.888104294371605,-0.3567217886447906,0.0975024104118347,0.2346347719430923
5.382486083984375,-0.8855835422314703,2.57842717769444,9.985904158866404,-0.320261001586914,0.1464212089776992,0.0612834803760051
5.392511962890625,-0.7760656212836503,2.474516136842966,9.998982251626252,-0.2790654897689819,0.1747194975614547,-0.1048849523067474
5.4025380859375,-0.3858380770765244,2.13890061891973,9.524052371037008,-0.0881280153989791,0.1438625156879425,-0.1814662814140319
5.41256396484375,0.1224191136376466,1.7891574991837145,8.714976460555196,0.1031229645013809,0.1695076376199722,-0.1368938386440277
5.422590087890625,0.576477114918828,1.6621591588638722,8.822935900014638,0.0246561206877231,0.1337579041719436,-0.0812412351369857
5.432615966796875,0.6375020769849419,1.2259035845838486,9.837599265015124,-0.3144736289978027,0.0685266777873039,-0.0286975372582674
5.44264208984375,0.8545764095492661,0.8645147429786622,9.90168858308792,-0.6230906248092651,0.0651841461658477,0.077889360487461
5.45266796875,1.2603671413302422,0.9047459964063018,8.84423237054348,-0.7771187424659729,0.0973614454269409,0.2111698687076568
5.46269384765625,1.2406852663911878,1.0372004101749508,8.086957374447584,-0.8776453137397766,0.1406564563512802,0.2835769653320312
5.472719970703125,0.9779746064852922,1.0289181733895092,7.59344495846331,-0.8689029216766357,0.158989816904068,0.2983860671520233
5.482745849609375,0.7426702052254229,1.0203426527459174,6.950267466190457,-0.7817325592041016,0.1174892336130142,0.2993426918983459
5.492772216796875,0.6314256796807051,0.8030615455631166,6.501759728580713,-0.6733466386795044,0.0581349730491638,0.2912044525146484
5.502798095703125,0.6292938552837819,0.5495642658129334,6.193070796027779,-0.6195718050003052,0.0595326013863086,0.3213287889957428
5.51282421875,0.8041855080917477,0.4003795569198206,5.7866199929028745,-0.6343888640403748,0.175981193780899,0.3895243406295776
5.52284912109375,1.172540023991093,0.0015432108540087,5.044307003617287,-0.7225413918495178,0.2951304912567138,0.5142651796340942
