seconds_elapsed,ax,ay,az,gx,gy,gz
0.080818603515625,0.1830789047863334,0.3151712803095579,0.8619406547069549,0.0775398313999176,0.6532227993011475,-0.0282115135341882
0.090798828125,0.0789738026674836,0.2422407763943076,0.2821317650169134,0.085037961602211,0.4751036167144775,-0.055243395268917
0.1007783203125,-0.0309948577225208,0.0539797197297215,-0.0162058693915605,0.0551067031919956,0.3063650131225586,-0.052564650774002
0.11075732421875,-0.0712537298094481,-0.0810191178247332,-0.0437257444798946,-0.0123024303466081,0.1897870004177093,-0.0331403538584709
0.120737548828125,-0.1201313040945678,-0.1121940082892775,0.1077314759224653,-0.0919534489512443,0.127261608839035,-0.0118668861687183
0.13071630859375,-0.0965957494020462,-0.0996072061777114,0.2917296144455671,-0.1899455189704895,0.1254786103963852,0.0022238986566662
0.1406962890625,-0.0767658442944288,-0.1067792897641658,0.4494207608014345,-0.3046774566173553,0.1613310128450393,0.0091596897691488
0.150676513671875,-0.1298713384728878,-0.1299213881596922,0.5030711024463177,-0.438777208328247,0.2076660245656967,0.000291630072752
0.1606552734375,-0.2766335329268127,-0.0740416800275445,0.5157569810181856,-0.5678827166557312,0.2374655455350875,-0.0130935478955507
0.17063525390625,-0.4632695456728339,0.0526627919122576,0.5556108525007963,-0.6799919605255127,0.2374202758073806,-0.0318235605955123
0.180615478515625,-0.6690318453017622,0.1879847239412367,0.6178121648699045,-0.7597572803497314,0.2207708060741424,-0.0530686639249324
0.19059423828125,-0.8233766038391739,0.2630290051400661,0.7376110952049494,-0.8062776923179626,0.2373002469539642,-0.0987392142415046
0.20057421875,-0.9151325119946152,0.2457986150063574,0.9222814339011908,-0.8356432914733887,0.3456964194774627,-0.19062040746212
0.21055322265625,-0.9948838749058544,0.2339776827007532,1.13838093008399,-0.8552076816558838,0.5352988243103027,-0.343213677406311
0.220533203125,-1.1218832381390034,0.3368899217732251,1.3175696224987503,-0.8669179677963257,0.7245343923568726,-0.5412073135375977
0.230513427734375,-1.3187202538385987,0.416039884725213,1.3166612754821776,-0.8680686950683594,0.8855443000793457,-0.7632454633712769
0.240492431640625,-1.5246864785417913,0.49038463935256,1.269897770741582,-0.8524307608604431,0.999094545841217,-0.9899383783340454
0.250472412109375,-1.692452590318769,0.5697083514362573,1.2090730074226856,-0.8205071687698364,1.1588643789291382,-1.1893553733825684
0.260452392578125,-1.728511891824007,0.514685844655335,1.4624422038137912,-0.7560582160949707,1.3736939430236816,-1.3228416442871094
0.270431396484375,-1.6925237558588384,0.2658617443479597,1.6694418632179495,-0.6486337780952454,1.4671183824539185,-1.38928484916687
0.280411376953125,-1.6688744385935366,-0.0253242647401988,1.320530810391903,-0.5156278014183044,1.3938138484954834,-1.3686963319778442
0.290390380859375,-1.6083298073902723,-0.4013413511566817,0.8795651587247848,-0.3749633729457855,1.181694269180298,-1.2699265480041504
0.300370361328125,-1.5969621718101203,-0.6841973387949168,0.7357353644609451,-0.2040222585201263,0.9291290640830994,-1.1085292100906372
0.310350341796875,-1.6983531926646829,-0.6597748452000319,0.9617980362534524,-0.0031360213179141,0.7704887986183167,-0.9134845733642578
0.3203291015625,-1.8296090442985296,-0.3904094766452908,1.4871715714007616,0.2162774801254272,0.7245227694511414,-0.7136648297309875
0.330309326171875,-1.914742903965712,-0.0948664413914084,1.913430652323365,0.4490819573402405,0.7248157262802124,-0.5516095757484436
0.3402880859375,-1.8933730759397147,0.1853450230874121,2.0294167463719845,0.6728276014328003,0.725335955619812,-0.4113475680351257
0.35026806640625,-1.866742843167484,0.3978939871817827,1.9420956057935952,0.8598776459693909,0.7491248846054077,-0.2955101728439331
0.36024853515625,-2.1163263835400343,0.6546361671373248,1.7972744624048471,1.0044001340866089,0.7433018088340759,-0.2341758608818054
0.370227294921875,-2.4810525528743863,0.9961749376296996,1.6074164919376372,1.1139519214630127,0.7164608836174011,-0.1556810587644577
0.380207275390625,-2.540670863012969,0.7483768193691969,1.46665894472599,1.1930360794067385,0.7186643481254578,-0.0686645284295082
0.3901875,-2.359758707806468,0.3882983297102153,1.5154063167601823,1.2263458967208862,0.96305114030838,0.0522962510585784
0.400166259765625,-2.194407694347203,-0.029354250908643,2.1551251930117608,1.1445688009262085,1.337520956993103,0.2056209444999694
0.410146240234375,-1.7603747645527124,-0.4385865014456212,2.284243740355969,0.8817560076713562,1.768055081367493,0.3613053560256958
0.42012548828125,-1.4200108830586076,-0.6799183463014662,1.9045114328086372,0.4331152439117431,2.193598508834839,0.502773106098175
0.430105224609375,-1.4521046419337391,-0.5672058670960366,1.5157956083387136,-0.1240651980042457,2.495558500289917,0.5718004107475281
0.440085205078125,-1.4253218489482995,0.0967358885250985,1.0365811822980642,-0.7080634236335754,2.3991575241088867,0.5090242624282837
0.450064208984375,-1.100610879138112,0.8460688395753503,-0.1028285063117742,-1.2023471593856812,2.155433893203736,0.399356335401535
0.460044189453125,-0.6479013059243559,0.822808960019052,0.0058849663853645,-1.487955927848816,1.8690502643585205,0.3250665366649627
0.4700244140625,-0.7345651516377926,0.3166040895916521,0.7381085233330726,-1.5109484195709229,1.437769651412964,0.2847143113613128
0.48000341796875,-0.6313371246144175,0.1852509150631725,1.2702952456265688,-1.301859974861145,0.919503927230835,0.2583265006542206
0.4899833984375,-0.929675635805726,0.4043193440541625,1.8768495189011096,-0.9545156955718994,0.4337404370307922,0.2099800109863281
0.49996240234375,-1.406599028299749,0.7409196352310479,2.4763392606168986,-0.5653781294822693,0.0862616077065467,0.1362610459327697
0.5099423828125,-1.892727471512556,1.0799414544664323,2.902307249638438,-0.2409505248069763,-0.0394009798765182,0.0294264834374189
0.51992236328125,-1.9863906745940445,1.4358385667875408,2.905013585987687,-0.0842887759208679,-0.0278878808021545,-0.0604730397462844
0.5299013671875,-2.304655244743824,1.533708573909104,2.432158758106828,-0.1075549498200416,0.1232877969741821,-0.1379617005586624
0.53988134765625,-2.2505822937726974,1.3221068275369705,2.3439053051143883,-0.2285285145044326,-0.0243211630731821,-0.2076625078916549
0.549861328125,-2.057933815804124,1.0908883804164826,2.1361539505600926,-0.1899965703487396,-2.050112724304199,-0.2121989279985427
0.559840087890625,-1.7848679852962492,1.4639762815132735,3.438918218114972,-0.1523995399475097,-3.5350399017333984,-0.1839085817337036
0.5698203125,-0.8155576737165451,1.953569770488143,5.393454787808657,-0.3670127689838409,-3.8776214122772217,0.0161611288785934
0.57979931640625,-1.7432275226578116,2.685812908919156,3.055826663267612,-0.7830145359039307,-3.407465696334839,0.2976478338241577
0.589779052734375,-1.338919284519553,2.337794713279605,1.3201093701094389,-1.199681282043457,-3.05208158493042,0.530439019203186
0.599759521484375,-1.148716738398373,1.6697737255208194,0.1699918250024318,-1.5019690990447998,-2.636659622192383,0.5600523948669434
0.609738525390625,-0.7951919081665575,2.0902683976978063,-0.1155675763756036,-1.6672481298446655,-1.91883647441864,0.4611165225505829
0.61971826171875,-0.7054099304325878,2.2079586653158065,0.2806915030807256,-1.7325791120529177,-1.115376591682434,0.3527941703796386
0.6296982421875,-0.6279008665554225,1.2094785194836557,0.6139513977885246,-1.6807843446731567,-0.664183497428894,0.199094608426094
0.639677490234375,-0.2264491868920624,0.0731577002672478,0.951966378068924,-1.5567166805267334,-0.5174685120582581,-0.0316531099379062
0.6496572265625,-0.2371297169908881,-0.1556507996346801,1.061415763825178,-1.4261817932128906,-0.5543740391731262,-0.2931158542633056
0.659636474609375,-0.3733426065102219,0.3738381349422037,1.1486410428136586,-1.32176673412323,-0.5606234669685364,-0.4601951241493225
0.6696162109375,-0.7776086129419505,0.5612356701126322,1.617844362449646,-1.2323551177978516,-0.4242192804813385,-0.5147260427474976
0.67959619140625,-1.047199314685166,0.3921890900710597,1.9609943675309416,-1.1190261840820312,-0.3999248147010803,-0.5973289012908936
0.689575439453125,-0.8507491063460707,0.3619031478028744,1.8176321907788515,-0.977625846862793,-0.4956524074077606,-0.7587268948554993
0.69955517578125,-0.4498505305208266,0.5985093158436938,1.5930185487508772,-0.8620028495788574,-0.5800309181213379,-0.9590109586715698
0.709535400390625,-0.0677848115898668,0.8309585103355348,1.1072791048556565,-0.8250512480735779,-0.4800470769405365,-1.1166034936904907
0.719514404296875,0.2608461081430316,1.1321966154258698,0.3447685461938381,-0.8872531056404114,-0.2348790615797042,-1.1520676612854004
0.729494384765625,0.3688111005604267,1.2790437847495078,-0.6489402935832739,-1.0226274728775024,0.0279978271573781,-1.1123924255371094
0.739473388671875,0.6075912151068449,0.9013666561663152,-1.5967968982458114,-1.1199921369552612,-0.0728131979703903,-1.1221941709518433
0.74945361328125,0.9428389226309954,0.3639697980090975,-1.8753560654729604,-1.1789484024047852,0.2027478069067001,-1.137247920036316
0.759433349609375,0.5380462619766593,0.2115869871944189,-2.267721644622087,-1.1193729639053345,0.2120004594326019,-1.1285353899002075
0.769412353515625,0.8910001604527235,0.2355005814190953,-2.90202492556572,-0.9188167452812196,0.1035799831151962,-1.118924260139465
0.779392333984375,1.053151354957372,0.6004252690002322,-3.410712698850036,-0.6547594666481018,0.0321621373295784,-1.0875122547149658
0.789372314453125,0.9732596337273716,1.3385451905101535,-3.915455533900857,-0.4513874053955078,-0.1197618767619133,-1.0008375644683838
0.799351318359375,1.176856645081192,1.7686488180316984,-4.883093528354167,-0.3789705336093902,-0.3302851319313049,-0.8705071806907654
0.8093310546875,1.394649208917469,1.6280341864220798,-5.791416579529643,-0.4090037941932678,-0.4969883561134338,-0.7262083292007446
0.819310302734375,1.7803594218306242,1.5189309837549925,-6.586258212953806,-0.4668536186218261,-0.6214425563812256,-0.6000853776931763
0.829290283203125,2.5246014794826506,1.7080124168917536,-7.400380300909281,-0.5614354610443115,-0.6450831294059753,-0.48140749335289
0.839270263671875,3.3287405180841683,1.9921870859131217,-8.772542514339088,-0.716382622718811,-0.5083425641059875,-0.39459428191185
0.849249267578125,4.303303343364596,2.4059346219174564,-10.15883612897396,-0.8693668246269226,-0.1713355183601379,-0.3550162613391876
0.8592294921875,5.0490556594491,2.671742005729675,-10.77615203475952,-1.0069892406463623,0.2751235067844391,-0.3609907925128937
0.869209228515625,5.739435632401705,2.6610250891432163,-11.436238576257228,-1.0033104419708252,0.7463679313659668,-0.433626115322113
0.8791884765625,5.864685813879967,2.7529601532578467,-11.25711768838167,-0.8598317503929138,1.118664264678955,-0.5088774561882019
0.889168212890625,5.2992012176185845,3.004562047715485,-11.260898375964164,-0.6745932102203369,1.2648839950561523,-0.5600090622901917
0.8991474609375,4.40030445869714,3.773249249185621,-11.521197663879391,-0.5333417057991028,1.1626849174499512,-0.5961517691612244
0.90912744140625,3.398929029814899,4.134074903950095,-11.494470984995363,-0.477141797542572,0.8648180365562439,-0.5920931100845337
0.919107177734375,2.537337042415142,3.964394629114866,-11.274098049277066,-0.5265276432037354,0.5391495227813721,-0.6100135445594788
0.92908642578125,2.192083343052864,4.422308785234391,-10.845078855991362,-0.5668452382087708,0.0868246555328369,-0.636589765548706
0.93906640625,1.5878298940666018,3.829757610610127,-10.154968932151794,-0.5438826680183411,-0.2687523365020752,-0.6523997187614441
0.949046142578125,1.7788433181792496,3.389532255916297,-9.2994065803051,-0.4570817053318023,-0.4230015575885772,-0.6668620109558105
0.959025390625,1.9425711143508555,3.33471462405771,-8.387284136846661,-0.3421056270599365,-0.4196856915950775,-0.6857523322105408
0.969005615234375,2.3191386742569504,3.202398449715972,-7.375586635914445,-0.2563174962997436,-0.3601568639278412,-0.7133173942565918
0.978984375,2.410483663523942,2.5826450876504183,-6.359522756466269,-0.2202091217041015,-0.2810816168785095,-0.7962313294410706
0.98896435546875,2.8324562992990017,1.970421828828752,-5.097574483424425,-0.2061502933502197,-0.1208946034312248,-0.8954101204872131
0.9989443359375,2.832401938763261,1.49063398681432,-3.566055820775032,-0.2770164310932159,-0.0852302759885788,-0.9583350419998168
1.00892333984375,2.5388991771653293,0.4949067929521202,-2.971791704753041,-0.3806546926498413,-0.1100309565663337,-1.005486249923706
1.0189033203125,2.343004556882381,-0.1742360384434461,-2.030557733100653,-0.4941292107105255,-0.0910570472478866,-1.025523662567139
1.02888330078125,2.037205938943476,-0.8074062237039208,-1.0175240151286125,-0.595305323600769,-0.1103234216570854,-0.9903448820114136
1.0388623046875,1.7804228424556552,-1.82320239212662,-0.0560486349582672,-0.6421756744384766,-0.1678528189659118,-0.9332355260849
1.04884228515625,1.623200336524844,-2.961444790522754,1.169487431487441,-0.6269631385803223,-0.2413526028394699,-0.8656522035598755
1.0588212890625,1.496959244313091,-3.97084015199244,2.3535189366340634,-0.5500102043151855,-0.3168433308601379,-0.801986813545227
1.06880126953125,1.4260470944829284,-4.756831539484859,3.4358138223588464,-0.4163022041320801,-0.301527202129364,-0.7474780678749084
1.078781005859375,1.4312467089526355,-5.339629674118757,4.416012607699632,-0.2435495406389236,-0.2265373319387436,-0.69749516248703
1.08876025390625,1.4040889451749623,-5.8515977842479945,5.234700396135449,-0.0355753079056739,-0.0619209557771682,-0.6455978751182556
1.09874072265625,1.2045002926796673,-6.06389847266972,6.045828562971949,0.1811159402132034,0.1251736879348755,-0.5819048285484314
1.108720458984375,0.9553239448685198,-6.090875911444425,6.7175739780813455,0.3911429643630981,0.258905678987503,-0.4987198710441589
1.11869970703125,0.6367982395645231,-6.077592066979408,7.405092716383933,0.5699305534362793,0.2801478803157806,-0.4062164425849914
1.1286796875,0.2733949893970042,-5.973232697838545,7.882078944981098,0.6840227246284485,0.1328455209732055,-0.3169765770435333
1.138658447265625,-0.3170735337343067,-5.619015355297923,8.077322700139879,0.7264718413352966,-0.0432224012911319,-0.2248377501964569
1.148638671875,-0.7386528593428433,-5.104579393750429,8.470210257336497,0.7036597728729248,-0.1542770117521286,-0.1477586776018142
1.15861865234375,-0.58780310331434,-4.72530038292855,8.85187616329491,0.6185258030891418,-0.1741375029087066,-0.0957627221941948
1.168597412109375,-0.3039355274807661,-4.856174249507487,9.085785456934572,0.51190185546875,-0.115340769290924,-0.0529193803668022
1.17857763671875,-0.1001272845290601,-5.177442385387421,9.376383437001705,0.4292369782924652,0.0002054991200566,-0.032690942287445
1.1885576171875,0.0912146408855915,-5.237863244080543,9.669770755526423,0.3762952089309692,0.1028972566127777,-0.0330102555453777
1.198536376953125,0.0291091170411556,-5.082483297276497,9.798418178227545,0.3681525886058807,0.2059762328863144,-0.0209756977856159
1.208516845703125,-0.2463176704443991,-4.755590891773998,9.927136328077315,0.3764224946498871,0.2909286916255951,-0.0001116940984502
1.21849560546875,-0.516383734614402,-4.420422825357318,9.926391647189854,0.3684361577033996,0.3299130201339721,0.0062135802581906
1.2284755859375,-0.6939265595182776,-4.2267628322586415,9.903879371130468,0.3351602256298065,0.3407283723354339,0.0038076806813478
1.238455810546875,-0.9550082299828528,-4.107653053231537,9.765502581575513,0.2937114238739013,0.3611356616020202,-0.010111735202372
1.2484345703125,-1.0393002319984137,-3.978967928868532,9.645002809494732,0.286111831665039,0.3877270519733429,-0.0274835340678691
1.25841455078125,-1.1063603825755417,-3.891613470542431,9.610376317271587,0.3321563899517059,0.3948708474636078,-0.0402062535285949
1.26839453125,-1.1849234855502844,-3.779613523520529,9.656092358785868,0.4179032444953918,0.4196307957172394,-0.0575093440711498
1.27837353515625,-1.1851675234392285,-3.529019637061656,9.656637717708945,0.5282530188560486,0.5113112926483154,-0.0662764683365821
1.288353515625,-1.106541438230872,-3.2064141150981187,9.497119355925918,0.5979710817337036,0.6194199323654175,-0.0366613157093524
1.29833251953125,-1.0781490180917084,-2.9197236638635395,9.00197495482564,0.6226620674133301,0.7416539788246155,0.0157093461602926
1.3083125,-1.007046752516925,-2.7634233873441816,8.380687222799658,0.6048998236656189,0.8007625937461853,0.1074597761034965
1.31829248046875,-1.1556333859190344,-2.830509256884456,7.587990784710645,0.5590618848800659,0.7767264246940613,0.2220015227794647
1.328271484375,-1.2951086382351815,-2.540401690682769,6.685675449517369,0.4707309603691101,0.8133640289306641,0.3749114573001861
1.338251708984375,-1.4761778836995365,-1.776383796197921,5.180270886811614,0.3357894420623779,0.8605295419692993,0.580694854259491
1.348231689453125,-1.4369213935881853,-0.727051999528706,2.806449751383066,0.1513788402080536,0.7568480968475342,0.8177076578140259
1.358210693359375,-1.2096135440401732,0.2333237488366663,0.1301367844760418,-0.0562477372586727,0.598537266254425,1.0914456844329834
1.368190673828125,-1.229622751237452,1.0838421151667832,-2.3074235404133794,-0.2659865915775299,0.4315190315246582,1.3533289432525637
1.37816943359375,-1.0236072805650531,2.0760146852873262,-4.899597503909469,-0.4571254551410675,0.297793835401535,1.527136206626892
1.388149658203125,-0.4501102043703198,3.5089442327603697,-7.964663704687356,-0.6243340969085693,0.1876588016748428,1.5712168216705322
1.398129638671875,0.3817918704256415,5.517996528756618,-11.525808372545242,-0.6869707703590393,0.0774329900741577,1.4292904138565063
1.4081083984375,1.7659860285632312,7.67173874297738,-14.74800165605545,-0.5157143473625183,-0.0808682367205619,1.1179323196411133
1.418088623046875,3.311951003585756,8.97071530868709,-16.65088461087942,-0.2506445944309234,-0.2297440618276596,0.7524092197418213
1.428068603515625,4.695484213596582,9.665801267373562,-18.07817951346636,-0.0753486678004264,-0.2796469032764435,0.4189561307430267
1.43804736328125,5.781359295895696,9.689299631860852,-19.168771102893352,-0.1682090908288955,-0.2423705756664276,0.1903300285339355
1.448027587890625,6.3613511409372085,8.482257253482937,-19.97008982337713,-0.5430724620819092,-0.2468454837799072,0.1457375138998031
1.45800634765625,6.333900239431857,6.77795392024219,-21.02749225990772,-0.9924424290657043,-0.247278094291687,0.3050436675548553
1.467986572265625,5.73118218331933,5.493737116768956,-21.72648925455809,-1.2419931888580322,-0.3444797694683075,0.5345804691314697
1.477966552734375,5.310559062457084,4.81725473626554,-21.54320890891552,-1.176084280014038,-0.4955562651157379,0.7100251317024231
1.487945556640625,5.111898776853084,4.031498034311831,-21.0017171826601,-0.7292755842208862,-0.5872704386711121,0.7812572717666626
1.497925537109375,4.633446567356586,3.0356062975376843,-19.45559599416256,0.0068364101462066,-0.5810612440109253,0.6558368802070618
1.507905517578125,4.295191933101416,2.636651403126121,-16.695895134472845,0.7851492166519165,-0.4724239706993103,0.286720871925354
1.517884521484375,4.355359693816304,2.663539410051704,-13.547482541966437,1.3316543102264404,-0.2274654358625412,-0.2332245707511901
1.527864501953125,4.413839939835667,2.843587349644303,-10.786046821308137,1.5717084407806396,0.1309734135866165,-0.776817798614502
1.53784375,4.152390312841535,3.169321817283332,-8.267132155290245,1.5533292293548584,0.4728350043296814,-1.2318353652954102
1.547823486328125,3.326854265946149,3.2574592426806688,-5.811540499147773,1.4174933433532717,0.6701598167419434,-1.541245937347412
1.557803466796875,2.198310693135112,2.8825562549859285,-2.9833932952195403,1.2467347383499146,0.6833101511001587,-1.663199782371521
1.567782470703125,0.8217270100012422,2.235303037706762,-0.1788835719883441,1.045945167541504,0.5523510575294495,-1.627270221710205
1.5777626953125,-0.4403739693842828,1.6124816663727164,2.2699632860690357,0.8065202236175537,0.3293496668338775,-1.483636498451233
1.58774267578125,-1.3154025075927376,0.9006685908995569,4.336673698046803,0.5275130867958069,0.0669353604316711,-1.2818104028701782
1.597721435546875,-1.7975193770766258,0.0297055485643446,6.042710723212361,0.2098279595375061,-0.1822057068347931,-1.057044267654419
1.60770166015625,-2.00951582185477,-0.7860540774650872,7.292088268494606,-0.1207116022706031,-0.3650825917720794,-0.8215348720550537
1.617681640625,-2.1360446449667214,-1.4700716757789254,8.226003441566228,-0.4283601641654968,-0.350553810596466,-0.5589764714241028
1.627660400390625,-2.290681226057559,-1.9394844003818927,8.845741606062651,-0.6715900897979736,-0.2650506496429443,-0.3069117069244385
1.637640625,-2.217087143667042,-2.414779314891249,9.160471572345497,-0.7787958383560181,-0.1818416863679886,-0.1060169488191604
1.64761962890625,-2.145826180399209,-2.9451848528563973,9.546793779677152,-0.7272258400917053,-0.0830280259251594,0.0526754856109619
1.657599365234375,-2.1404868651978672,-3.403296285113692,9.959549235904216,-0.5481402277946472,-0.0138866854831576,0.179745152592659
1.66757958984375,-2.2532010979689656,-3.802736332693696,10.033577764189245,-0.302480399608612,-0.0233643427491188,0.2762623429298401
1.677558349609375,-2.493453477025032,-4.092534102293849,10.022005399817228,-0.0638042390346527,-0.1196526139974594,0.360131561756134
1.687538330078125,-2.642069921043515,-4.11590094935596,9.967444957590102,0.1156174540519714,-0.2404940724372863,0.434808999300003
1.697518798828125,-2.646029764585197,-4.052684906986356,9.864263984578848,0.2027010470628738,-0.351103812456131,0.5060924887657166
1.70749755859375,-2.5137737959980964,-4.051373824387788,9.72697732834816,0.2262111604213714,-0.4429117441177368,0.5661507844924927
1.7174775390625,-2.2708668107800185,-4.034102956113219,9.659489600008726,0.2125397324562072,-0.4771209955215454,0.6181418299674988
1.727456787109375,-2.229546958398074,-3.924114056652784,9.661080084070562,0.1713728606700897,-0.4358561038970947,0.6842113733291626
1.7374365234375,-2.2778024552620946,-3.7674972615301607,9.6599841055274,0.13468699157238,-0.3030882775783539,0.7477831244468689
1.74741650390625,-2.343621373606473,-3.6773394362211222,9.782375974965095,0.1198254972696304,-0.2072142213582992,0.812481701374054
1.757395751953125,-2.55621417684257,-3.658565762168169,9.963937826251984,0.1289528608322143,-0.2178571820259094,0.8532786965370178
1.76737548828125,-2.82951381610632,-3.530495554833114,10.134732784330843,0.1466133296489715,-0.2913210093975067,0.8463185429573059
1.77735546875,-3.001759849776328,-3.322937969285249,10.145983661663532,0.1391379237174987,-0.3738428950309753,0.8004920482635498
1.78733447265625,-3.0295296079725027,-3.1879134127676485,9.961876802068948,0.1023362353444099,-0.4140172302722931,0.7111797332763672
1.797314453125,-2.8832494979470966,-3.1803707423031327,9.730432437238097,0.0618046671152114,-0.3344744145870209,0.5996035933494568
1.80729345703125,-2.8795100191578267,-3.1713229279726742,9.546998362338542,0.0316520892083644,-0.2597615718841553,0.4797199964523315
1.8172734375,-2.753441214773059,-3.1418048648044463,9.26596608299613,0.0561950728297233,-0.2649769484996795,0.3227168023586273
1.827253662109375,-2.4917589480668303,-3.287449599535763,9.348748995622993,0.126443400979042,-0.2590125203132629,0.1370598673820495
1.837232666015625,-2.263210450807959,-3.517259641163051,9.443131745150684,0.2059469670057296,-0.2114477455615997,-0.0692537501454353
1.847212646484375,-2.047488555765897,-3.6250428472727534,9.03750102623701,0.3001634776592254,-0.1261618733406067,-0.2902569770812988
1.857192626953125,-1.871742258889973,-3.5324323681145904,8.655351720675826,0.4076547920703888,0.0198643021285533,-0.4968881607055664
1.867171630859375,-1.5754288237854837,-3.3911209864124654,8.363854745942353,0.5146006941795349,0.1647088378667831,-0.7008085250854492
1.877151611328125,-1.1937843990065156,-3.403832291686535,7.808547844824194,0.6164398789405823,0.2980626821517944,-0.8996778726577759
1.887131591796875,-0.8836123882889747,-3.462577910643816,7.107223868530988,0.7166375517845154,0.4456958174705505,-1.0651943683624268
1.8971103515625,-0.4674428858347237,-3.404442532539368,6.031282151225209,0.7907907962799072,0.6030524969100952,-1.1945279836654663
1.907090576171875,-0.0469287783049046,-2.949460045957565,4.239097705435753,0.7727094888687134,0.7916700839996338,-1.2808336019515991
1.917069580078125,0.513757039372623,-1.6408305396310985,1.3582926780313254,0.5914977788925171,0.9605280160903932,-1.2856467962265017
1.92704931640625,0.8195176633886992,0.6664400021776556,-2.887811106774211,0.2641414403915405,0.9606587886810304,-1.1697797775268557
1.937029541015625,0.6156733992755413,3.337441710934043,-7.438477684113383,-0.0933423563838005,0.7344698905944824,-0.8895056247711182
1.9470087890625,0.0156277772426605,5.114441447073221,-10.85157640131712,-0.378399133682251,0.2913390696048736,-0.5036463141441345
1.956988525390625,-0.1191565407782793,6.120923259183764,-13.367156369954348,-0.5163249373435974,-0.2955114245414734,-0.2166676968336105
1.966968505859375,0.9785863817080854,7.247239657464623,-15.510442656612396,-0.522485077381134,-0.7473108768463135,-0.0651591420173645
1.97694775390625,2.886948936986923,8.737211673238873,-17.65782059649825,-0.4447815418243408,-0.9600655436515808,-0.003400431247428
1.986927490234375,4.990568399167061,9.807296481209994,-18.979449138998984,-0.3300280570983886,-0.9105238318443298,-0.051600981503725
1.99690673828125,7.109525131210685,9.115387983515856,-18.373975646698472,-0.3249697983264923,-0.6292687058448792,-0.1742008030414581
2.006886474609375,8.722232715293764,7.601330158755183,-17.610720991671084,-0.5252663493156433,-0.1686664968729019,-0.1878058314323425
2.016866455078125,9.069130674731731,6.763513891479373,-17.627860342520474,-0.8768314719200134,0.275089681148529,0.0283167511224746
2.026845703125,7.997707896155118,6.413150886279344,-17.8119987662971,-1.239675998687744,0.4869590699672699,0.4870702028274536
2.036825439453125,5.927680322453379,5.918177165570855,-17.347440642118453,-1.5084474086761477,0.352826327085495,1.1062638759613037
2.046805419921875,3.844694482979178,5.411031361031532,-16.472357597243786,-1.670506238937378,-0.0729116648435592,1.8125872611999512
2.05678466796875,1.9145118716888128,4.984131059595942,-15.474167228138446,-1.7104238271713257,-0.6155211329460144,2.468093156814575
2.0667646484375,0.4056320340879261,4.402728763234615,-14.21630651667118,-1.6349024772644043,-1.1683422327041626,2.974090576171875
2.07674365234375,-0.5084247384339571,3.576929096966982,-12.795380564594268,-1.471216320991516,-1.5842853784561155,3.2455501556396484
2.086723876953125,-0.9180700998164713,2.984977349540591,-11.215039126586914,-1.271889090538025,-1.7516605854034424,3.2428760528564453
2.09670361328125,-0.7981677091069519,2.7991005576640364,-9.6924367608428,-1.106726050376892,-1.706995725631714,2.959510326385498
2.1066826171875,-0.217365424465388,2.5546695777490736,-8.004629219850898,-0.9699407815933228,-1.4807534217834473,2.42569351196289
2.116662353515625,0.3184714908987283,2.02055685582906,-5.989395897132158,-0.865107536315918,-1.1722612380981443,1.7468451261520386
2.126642578125,0.7228058863915503,1.3835206427901985,-3.9361037696540353,-0.8019951581954956,-0.8365636467933655,1.03960382938385
2.13662158203125,0.9033325494118034,0.4807935119256377,-2.059273539975285,-0.7559529542922974,-0.4707808792591095,0.4028961956501007
2.146601318359375,0.8456096976310015,-0.7272454762741923,-0.2570084296762943,-0.7350069284439087,-0.1656044870615005,-0.1094866544008255
2.15658154296875,0.5237219685479998,-2.0069909795522687,1.1761468893766402,-0.7093290090560913,0.0806317999958992,-0.4887741804122925
2.166560546875,0.0479816483587026,-3.077776337008178,2.3627830240637064,-0.6548442244529724,0.2435698509216308,-0.7312118411064148
2.176540283203125,-0.5489357586510479,-3.902457812900841,3.3874007968455557,-0.5472638607025146,0.3339804708957672,-0.8509339690208435
2.18651953125,-1.023046139550954,-4.477865545022487,4.444294114810228,-0.3611890375614166,0.3520577251911163,-0.9141417145729064
2.196499755859375,-1.3047810142047702,-4.891189448787272,5.548291129255294,-0.1110688894987106,0.3320873081684112,-0.9374741911888124
2.2064794921875,-1.5135660957209764,-5.280100795829296,6.712303344202041,0.1779019236564636,0.3096719980239868,-0.948992133140564
2.216458740234375,-1.5532104161061346,-5.6294221830219024,7.997106423130631,0.4567482471466064,0.3362066149711609,-0.960381805896759
2.2264384765625,-1.3844089699320494,-5.730345147973298,8.950344720831513,0.6760920286178589,0.4014444649219513,-0.985772669315338
2.23641845703125,-1.046174647812545,-5.670757817494869,9.54023135242164,0.8204408288002014,0.4903225004673004,-1.0056740045547483
2.246397705078125,-0.976503730215132,-5.574852972966433,10.031752886849642,0.879661500453949,0.6043022871017456,-0.9913097620010376
2.25637744140625,-1.1646176334939895,-5.342547607392072,10.385443575167656,0.8667052388191223,0.6897836327552795,-0.962130844593048
2.266356689453125,-1.4034316503100095,-4.908683896684646,10.480966142380238,0.8092212080955505,0.7124226689338684,-0.8916180729866028
2.276336669921875,-1.7879414013922212,-4.462292128315568,10.310561644923686,0.7415730953216553,0.7344002723693848,-0.7429004907608032
2.28631640625,-2.415725801961124,-4.0835991006881,10.219694210040569,0.6912662386894226,0.6666233539581299,-0.5189360976219177
2.296295654296875,-3.024441344922781,-3.763571027997136,9.992205304837226,0.6678978800773621,0.4665277600288391,-0.2661990523338318
2.30627587890625,-3.5160075952753425,-3.5422295395076278,9.745790749889611,0.662217915058136,0.216543510556221,-0.0299936924129724
2.316255615234375,-3.725380121290684,-3.4112463673353197,9.63745780094266,0.6589649319648743,-0.0263261832296848,0.1620017141103744
2.326234619140625,-3.64314022949934,-3.2446324943333864,9.50470645005405,0.6376284956932068,-0.1859704405069351,0.2852488160133362
2.336214599609375,-3.417484969463944,-3.035079643315077,9.324355143600702,0.5996103286743164,-0.2391879707574844,0.3505335450172424
2.346194580078125,-3.09313085026741,-2.892014403682947,9.0225051171571,0.5742319822311401,-0.2586375772953033,0.348954290151596
2.356173583984375,-2.712783041170239,-2.903071804270148,8.719567295476793,0.5804871916770935,-0.21854829788208,0.2816185355186462
2.366153564453125,-2.3775293422967194,-2.910073207464814,8.58609581362009,0.6332491636276245,-0.136562094092369,0.1423953771591186
2.376132568359375,-1.9947129511289297,-2.8448709597140547,8.49482272054553,0.7273882031440735,-0.0353391245007514,-0.0451622642576694
2.386112548828125,-1.7037155964806674,-2.8266619338065384,8.355016774970293,0.8314672112464905,0.0609240271151065,-0.259086012840271
2.396092529296875,-1.4916018089331686,-2.82809518148005,8.108349706566333,0.918421745300293,0.1537200659513473,-0.4792239665985107
2.406071533203125,-1.428622936320305,-2.8224133364513517,7.853547262501716,0.9817042946815492,0.2391228526830673,-0.696198046207428
2.416051513671875,-1.3969763366907837,-2.767523223878443,7.686020950829982,1.0127846002578735,0.2891602218151092,-0.8929737210273743
2.426031494140625,-1.3474658713296055,-2.6341999183207747,7.205344051021337,1.009395956993103,0.3378167152404785,-1.0266414880752563
2.4360107421875,-1.3463321911245585,-2.483009239900112,6.403758204033971,1.0012495517730713,0.4253334105014801,-1.0882339477539062
2.445990478515625,-1.198881576015055,-2.219079924919456,5.396611790534854,1.0015095472335815,0.5681617259979248,-1.0995733737945557
2.455970458984375,-0.9729454532116651,-1.7815971469320355,4.161223607638478,1.0164122581481934,0.802737832069397,-1.115147352218628
2.46594970703125,-0.6022704584755003,-1.208089987734705,2.9954227557092903,1.1097203493118286,0.9802606701850892,-1.1870782375335691
2.475929443359375,-0.1671869967147707,-0.8856924094334244,2.2331986127734185,1.2636884450912476,1.0407202243804932,-1.2659342288970947
2.48590869140625,0.0383862831480801,-0.7293892103046178,1.9270032506018877,1.4266802072525024,1.0548301935195925,-1.3293962478637695
2.495888671875,0.2841428125783801,-0.3759517660953104,1.3609627740234136,1.4514001607894895,1.047417163848877,-1.3244153261184692
2.505868408203125,0.442242393604666,-0.0148413761053234,-0.4749257889360189,1.2023087739944458,1.1138516664505005,-1.1645710468292236
2.51584765625,0.4028064552731811,0.7738198151182383,-3.9076293703198433,0.6520066857337952,1.0980292558670044,-0.8348292112350464
2.52582763671875,0.200355691345036,2.036644651798904,-8.588322257497905,-0.0177796296775341,0.9095339179039,-0.3275526762008667
2.5358076171875,-0.4401407451502978,3.0543758799374103,-12.680704384100435,-0.5048115253448486,0.3927887678146362,0.2144986093044281
2.54578662109375,-0.6054521572515368,3.925867330060899,-15.151041189432144,-0.5883029699325562,-0.3633455038070678,0.6223313808441162
2.5557666015625,0.3689920100852847,5.350394813761115,-16.34655445805788,-0.3736681640148163,-1.050054669380188,0.8825139403343201
2.56574658203125,2.103115312050283,6.940188555246591,-17.53523583483696,-0.2424052208662033,-1.4686280488967896,1.04713237285614
2.575725830078125,4.2798435573220255,7.623343837642669,-19.351498490828277,-0.4817277491092682,-1.4196877479553225,1.160515308380127
2.58570556640625,6.215858381897211,6.846774358490109,-21.146596778237814,-0.9726117253303528,-1.112895369529724,1.2382354736328125
2.5956845703125,7.580817532080411,5.538446027067304,-22.549683122241497,-1.3444559574127195,-0.7832418084144592,1.333160161972046
2.60566455078125,7.72617994273901,4.880205697958171,-22.528044121885294,-1.390971541404724,-0.6113709807395935,1.448602318763733
2.61564453125,7.1863587800443165,4.817486791455745,-21.579173371744155,-1.1773892641067505,-0.608714759349823,1.5329049825668335
2.62562353515625,6.5713868070364,4.304290893097222,-20.05506293952465,-0.8625226616859436,-0.6423656344413757,1.5168123245239258
2.635603271484375,6.0538686615645885,3.2342554772257803,-18.142656954073903,-0.5361272692680359,-0.6068801879882812,1.3836090564727783
2.64558349609375,5.63304504969418,2.165954776192456,-15.753994223344325,-0.2241398245096206,-0.4546160995960235,1.1579700708389282
2.6555625,4.997392107707261,1.4782881538517771,-13.12095224288702,0.0417247414588928,-0.203187882900238,0.9094949960708618
2.66554248046875,3.9225145125016567,1.4065341463699936,-10.6360164188385,0.2439446896314621,0.0461881160736084,0.6855961084365845
2.675521484375,2.561715404607356,1.864050827604532,-8.267518524259328,0.3803542852401733,0.154792845249176,0.5114278197288513
2.685501708984375,1.0043119207255542,2.498600776785612,-5.889854741927981,0.4309719204902649,0.1439050436019897,0.4146563410758972
2.6954814453125,-0.506089865745604,3.276802241054177,-3.580474222227931,0.3911736309528351,-0.0103596942499279,0.3851072490215301
2.705460693359375,-1.5782647778637706,3.502186282932758,-1.1646540199816229,0.2697739601135254,-0.2392370849847793,0.3553477525711059
2.715440673828125,-2.1440480648107827,2.907183331242204,1.3393512461960315,0.0621318407356739,-0.4300917387008667,0.2806267440319061
2.72542041015625,-2.162127034597844,2.0547557702898978,3.4960347745656963,-0.2032742649316787,-0.5217734575271606,0.1514269560575485
2.735399658203125,-1.8062986035987731,1.160575007039681,5.198717228606343,-0.502234935760498,-0.4957009851932525,-0.0248057208955287
2.745379638671875,-1.4196087319985031,0.2530624685294926,6.437108684971928,-0.784747302532196,-0.3851001560688019,-0.2191349864006042
2.755359375,-1.155666557536274,-0.7081285417415202,7.351969028961658,-0.977215588092804,-0.2211073040962219,-0.4048750400543213
2.765338623046875,-1.038856726014614,-1.7826618535540997,8.24983498353064,-1.0230259895324707,-0.0590113326907157,-0.5759290456771851
2.775318359375,-0.9531481351993978,-2.899092379245162,8.98768573271036,-0.9113364815711976,0.0447929538786411,-0.7490352392196655
2.785297607421875,-0.8951393060840666,-3.8726840214058753,9.571143792557717,-0.6649399995803833,0.1049710735678672,-0.8903063535690308
2.79527783203125,-0.9949603011429308,-4.639708550360798,10.179458061242103,-0.3372740745544433,0.1419863849878311,-0.9943674206733704
2.805257568359375,-1.1231881832577288,-5.11946015201807,10.56594861087799,-0.0076740705408155,0.1473017930984497,-1.067539095878601
2.815236572265625,-1.1759393841058017,-5.292702503249049,10.557380689018965,0.2845010459423065,0.1527009457349777,-1.1155694723129272
2.825216796875,-1.2459205366961656,-5.156652110815048,10.381523771375416,0.5096073746681213,0.1954343020915985,-1.1276623010635376
2.835196533203125,-1.354039404501021,-4.827522447779774,10.15213867716193,0.6672185063362122,0.3091822266578674,-1.096308350563049
2.845175537109375,-1.4943930470868945,-4.368999219851196,9.928550871050357,0.7810955047607422,0.3987760245800018,-1.037037014961243
2.85515576171875,-1.5521993393674491,-3.962564491078257,9.994556251877546,0.8872018456459045,0.4074668288230896,-0.956070840358734
2.865135498046875,-1.7415366469614206,-3.6044288060501217,10.365600226056577,0.9672841429710388,0.373702734708786,-0.8404251933097839
2.875114501953125,-2.036007669069618,-3.1549180288776757,10.672432132565977,0.9721206426620485,0.3207385241985321,-0.6985490322113037
2.885094482421875,-2.190283600154519,-2.644398948512971,10.657916115957498,0.8906846046447754,0.244083434343338,-0.5520578622817993
2.895073486328125,-2.250976553787291,-2.304761335466802,10.499769042527674,0.7327399253845215,0.1709908246994018,-0.4115980267524719
2.905053466796875,-2.283458727458119,-2.160183353184164,10.406044464647769,0.531260073184967,0.0830868110060691,-0.2902417778968811
2.915033447265625,-2.2308386056438088,-2.128563057039678,10.243145228254797,0.3228287696838379,-0.0020139133557677,-0.2011438757181167
2.9250126953125,-2.1029802874937653,-2.1865051045291124,10.06478304979205,0.1671814024448394,-0.0683242306113243,-0.1465014070272445
2.93499267578125,-1.901404552834481,-2.293191016921401,9.906031580728293,0.0999142602086067,-0.1076348051428794,-0.1245281919836998
2.944972412109375,-1.642876220114529,-2.4212230842031537,9.734050627735256,0.1055596321821212,-0.0125050898641347,-0.1258973181247711
2.95495166015625,-1.438115571808815,-2.50700649382025,9.471468197318911,0.174500435590744,0.1241134256124496,-0.1548255085945129
2.964931640625,-1.0788581892743707,-2.648843652962148,9.174809309777617,0.3115653395652771,0.2265188992023468,-0.2250581234693527
2.97491064453125,-0.9045236588925124,-2.874135632643104,9.09996186632514,0.4901749193668365,0.2921549379825592,-0.3220636546611786
2.984890625,-0.8043104496456682,-2.982668488076329,9.149822752559183,0.6623154878616333,0.3131566345691681,-0.4326197206974029
2.994870361328125,-0.7348530286684631,-3.021583032882213,8.897089515984058,0.7580664157867432,0.271843820810318,-0.5284786224365234
3.004849609375,-0.6403714949414133,-3.129347534291446,8.168096611520648,0.7704173922538757,0.2300513833761215,-0.5940938591957092
3.01482958984375,-0.2614025729820132,-3.307717896060645,7.313400521114468,0.7183295488357544,0.2178591340780258,-0.6039593815803528
3.0248095703125,0.3883282864570617,-3.501524896414577,6.1968555752635,0.6522607803344727,0.2819225192070007,-0.5516599416732788
3.034788818359375,0.8394858079232275,-3.669378248083591,5.047707167449594,0.6239131093025208,0.4646309912204742,-0.3940588533878326
3.044768798828125,1.0283920306235552,-3.739314830879867,3.910896263161301,0.6025282144546509,0.668594479560852,-0.1078353598713874
3.05474853515625,0.9767689570225776,-3.549671379946172,1.6658862165629862,0.4892716705799103,0.8900243639945984,0.3275201022624969
3.064727783203125,0.3554024606719613,-2.707408946916461,-2.094465264865756,0.1990001797676086,0.8600994944572449,0.909762978553772
3.074707763671875,-0.6527005228996277,-0.9292148133609444,-7.29112965259552,-0.2093395590782165,0.4079926908016205,1.5672874450683594
3.0846865234375,-1.638620608496666,1.209393325418234,-12.275763985538482,-0.5076426267623901,-0.4040176272392273,2.115196228027344
3.094666748046875,-1.914321902074665,2.9339217005640266,-15.853587400996684,-0.5419734716415405,-1.314079761505127,2.359910249710083
3.104650634765625,-1.0424914292551577,4.530339536364377,-18.50928311181068,-0.276872307062149,-2.0203678607940674,2.1894607543945312
3.114629638671875,1.3524929057113826,6.350784154215455,-20.20458597699404,0.1234215945005416,-2.23915696144104,1.5874404907226562
3.124609375,4.515685572589933,7.415869546464085,-20.742194139814377,0.3153042197227478,-1.8541697263717647,0.6143524050712585
3.134589599609375,7.636155972942709,7.535035439592599,-21.429147645449635,0.2016352266073227,-0.9899929165840148,-0.5619316697120667
3.144568603515625,9.904228915220498,6.937101695147156,-21.874200274169443,-0.0264109801501035,0.0977110192179679,-1.6019500494003296
3.15454833984375,10.363387226182224,6.040248717013001,-21.40762788755893,-0.1910379379987716,1.039305329322815,-2.2431981563568115
3.164528564453125,9.055739278239011,5.499664753252268,-20.67411136819124,-0.3507091104984283,1.561125874519348,-2.4139020442962646
3.174507568359375,6.957080068814754,5.199539650905132,-20.352762276029587,-0.5641499161720276,1.633578538894653,-2.1292989253997803
3.184487548828125,4.616396356095374,4.308671884660423,-19.86101803876161,-0.7935436964035034,1.3163588047027588,-1.5179985761642456
3.194466796875,2.478934537807107,3.1821634709388014,-18.798555980753896,-0.8998878002166748,0.757108211517334,-0.74482661485672
3.20444677734375,0.9931734177261592,2.1814029590845108,-16.83798188446164,-0.8102772235870361,0.1988977044820785,0.022968590259552
3.214426513671875,0.187767866320163,1.476033652923256,-14.183525360053777,-0.6022078394889832,-0.2465498596429824,0.6659727096557617
3.22440576171875,-0.0092442136853933,1.176760564295575,-11.45606088258028,-0.4179852604866028,-0.5495063066482544,1.1076740026474
3.234385498046875,-0.1176687864385545,1.1249227519653735,-9.023257396829129,-0.336349606513977,-0.7344757318496704,1.3494513034820557
3.244365478515625,-0.3181809835195541,1.2024125266201793,-6.589724427759647,-0.3187064230442047,-0.8424733281135559,1.380278468132019
3.2543447265625,-0.4159171351283788,1.2591463673636316,-3.781463827562332,-0.3125641942024231,-0.8899579644203186,1.2238845825195312
3.264324462890625,-0.3764582543127238,0.9724337042972444,-0.7851186963111162,-0.3185813426971435,-0.843989908695221,0.9317595362663268
3.274304443359375,-0.2741580096587538,0.4112387680537998,1.994133251544833,-0.339880496263504,-0.717121422290802,0.5509392023086548
3.28428369140625,-0.0414389487169682,-0.2278066659156233,4.30959864411652,-0.3775765001773834,-0.5501183271408081,0.1414712816476822
3.294263671875,0.0463559468530118,-0.8967195610128342,6.22593086310029,-0.4352829456329345,-0.349431425333023,-0.210687443614006
3.30424267578125,-0.2188914649888872,-1.6676880052879453,7.693832501363754,-0.519890308380127,-0.0975746810436248,-0.4577728509902954
3.314222900390625,-0.6896247706711292,-2.420596330606937,8.605912274724245,-0.5967576503753662,0.1593439280986786,-0.5661202669143677
3.32420263671875,-1.1268697943799195,-3.069932053248584,9.360368121746182,-0.6395027041435242,0.3422175943851471,-0.5767438411712646
3.334181640625,-1.4528214119009673,-3.5744244206696747,10.1173584556818,-0.5900682806968689,0.463115245103836,-0.5361378788948059
3.344161376953125,-1.811817220889777,-3.931391354179382,11.012044026648995,-0.4744088351726532,0.4856035113334656,-0.4732057750225067
3.3541416015625,-2.0582911048091947,-4.086230033713579,11.637402953636643,-0.3335684835910797,0.4253410100936889,-0.4048068523406982
3.36412060546875,-2.138492622640729,-3.947058878910541,11.729565689027307,-0.236155092716217,0.350315511226654,-0.3630833625793457
3.374100341796875,-1.9706695199795063,-3.637083998200297,11.467215898323058,-0.2060913145542144,0.303256094455719,-0.3304584622383117
3.38408056640625,-1.7608049726635218,-3.481122452116012,11.077061565482616,-0.2516457438468933,0.3458528220653534,-0.2707250714302063
3.3940595703125,-1.8067280810572208,-3.502943823301792,10.658501806890964,-0.3363424241542816,0.3677515089511871,-0.1763101518154144
3.404039306640625,-1.9202349255107345,-3.5340102849557997,10.094618216085433,-0.3976545035839081,0.2951057851314544,-0.0630174279212951
3.4140185546875,-2.1125668848760424,-3.652245619235933,9.713347446924448,-0.3565576672554016,0.1471553444862365,0.0634400993585586
3.42399853515625,-2.416236381831765,-3.783758952762186,9.824419465446471,-0.2036322802305221,-0.0033606593497097,0.2022909224033355
3.433978515625,-2.6572876561805603,-3.653428983801603,10.12062242591381,-0.0070849871262907,-0.0751707553863525,0.346574604511261
3.443957763671875,-2.683976633402705,-3.2877044510796662,10.121983192873,0.1594880223274231,-0.158493086695671,0.4659212529659271
3.4539375,-2.47572025193572,-3.0146418354421853,9.777308754703402,0.2472123652696609,-0.2596389353275299,0.5464122295379639
3.46391748046875,-2.3185285795345902,-2.9628590412348506,9.50089945898652,0.2601329684257507,-0.34010049700737,0.5853790640830994
3.473896728515625,-2.2377998229585585,-2.974671644103527,9.31779622347653,0.2382656037807464,-0.367686003446579,0.5760546922683716
3.48387646484375,-2.070945857590437,-2.872981786432862,9.25119579936564,0.2227785289287567,-0.3560583889484405,0.5120370984077454
3.4938564453125,-1.82871297224164,-2.7303274656891823,9.156615481439232,0.2395018637180328,-0.337614357471466,0.3973654806613922
3.503835693359375,-1.6238947485297917,-2.641159235939383,9.038478346836566,0.3007985055446625,-0.2993407547473907,0.2457253634929657
3.5138154296875,-1.4450890640832483,-2.593727622678876,9.02996478551328,0.3896629810333252,-0.2292727380990982,0.0748128741979599
3.523794677734375,-1.2773949946291745,-2.5563252360016104,8.976282295164465,0.4643073976039886,-0.0925287529826164,-0.0896202772855758
3.5337744140625,-1.2273057064667343,-2.414281302241236,8.81597599787414,0.4918755292892456,0.0202222615480422,-0.2213472872972488
3.543754638671875,-1.289877605713904,-2.3499499921061098,8.38637111365497,0.4851475954055786,0.033865638077259,-0.3269754350185394
3.553733642578125,-1.3353149764172731,-2.434672640623897,8.135812883031369,0.4891664087772369,0.0332935564219951,-0.3970763683319092
3.563713623046875,-1.247304392269999,-2.6054122152537107,8.327143264138698,0.4921214580535888,0.0876004695892334,-0.4205744862556457
3.573693603515625,-1.032120403496921,-2.716116569507122,8.212288219946622,0.4354142248630523,0.2294168025255203,-0.4225516319274902
3.583672607421875,-0.7046968137271702,-2.756079454322159,7.529045843788981,0.2850428521633148,0.4189478456974029,-0.4146684110164642
3.593652587890625,-0.2360223402708768,-2.8090657791003584,6.35914924697876,0.0510076098144054,0.6225263476371765,-0.4245295524597168
3.603632568359375,0.5057157717362046,-2.967749151363969,4.809413959637284,-0.2167543172836303,0.8232700824737549,-0.5062662363052368
3.613611572265625,1.607087552244216,-3.353286345797777,2.61390064213574,-0.5432493090629578,1.0945457220077517,-0.5966747999191284
3.623591552734375,2.499740594470501,-3.6289193964451543,-1.2518185086935758,-1.019264578819275,1.4682193994522097,-0.6462860703468323
3.633571533203125,2.902577883273363,-3.1471634692281483,-7.202883798387647,-1.494179606437683,1.7483694553375244,-0.6537694334983826
3.64355029296875,2.348476120161265,-1.9354339559473095,-13.62918467361927,-1.4491801261901855,1.7154520750045776,-0.5889469981193542
3.653530517578125,1.488331993482262,0.2684304257921874,-18.35499505189657,-0.4233358204364776,1.3303924798965454,-0.5445676445960999
3.663509765625,1.1851932424023748,3.4508775359779595,-19.133332709765437,1.2829920053482056,0.8431344032287598,-0.4958504736423492
3.673489501953125,1.4146760979019104,6.029792789450288,-17.812142558681963,2.654193878173828,0.4648575782775879,-0.3820682466030121
3.683469482421875,2.350683420947194,6.992558209431171,-17.39349395276308,2.89005708694458,0.2039133310317993,-0.3380941450595855
3.69344873046875,3.884760535907745,7.664384873083233,-18.806393250250814,2.096891403198242,0.049342818558216,-0.3944211900234222
3.703428466796875,5.308972670048475,8.345155890691279,-19.948254423666,0.9281240105628968,0.13431416451931,-0.4582518339157104
3.713408447265625,6.276508373171091,7.692437832134962,-18.948918391656875,-0.0354725755751132,0.3277958333492279,-0.5219817757606506
3.7233876953125,7.022876775327324,6.547932866212725,-17.449156803274153,-0.5270282030105591,0.569989025592804,-0.5744942426681519
3.733367431640625,7.190846154591441,6.39355829705894,-16.382149503052233,-0.6486379504203796,0.7792477607727051,-0.5521488785743713
3.7433466796875,6.432850443005561,6.235837924608588,-15.331798738598822,-0.6531189680099487,0.7518742084503174,-0.3877913653850555
3.753326416015625,4.762491464942693,5.184311102113128,-14.256039976644516,-0.6553751230239868,0.4747605323791504,-0.0932799875736236
3.763306396484375,2.691664849817753,4.21267439341247,-13.062567858457564,-0.6291589736938477,0.021897729486227,0.2973090708255768
3.77328564453125,0.9179273303449154,3.768658998785913,-11.308172168314456,-0.5992798209190369,-0.4378232955932617,0.7228055000305176
3.783265625,-0.2919084781438112,3.517142444524169,-9.398297747167945,-0.6177514791488647,-0.8324267864227295,1.1018449068069458
3.79324560546875,-0.9708119483143092,3.076761899268627,-7.736138442173599,-0.6633405089378357,-1.1124463081359863,1.390876531600952
3.803224853515625,-1.3818516866646706,2.551611651483178,-6.0008344059914345,-0.6840811967849731,-1.2919710874557495,1.5651705265045166
3.81320458984375,-1.4978238983184098,1.9586201857455077,-4.100778199025989,-0.643170952796936,-1.3824540376663208,1.6201608180999756
3.8231845703125,-1.4356832300953566,1.324208329860866,-1.946827310490608,-0.5704371333122253,-1.4037516117095947,1.5493601560592651
3.83316357421875,-1.253052726663649,0.6929932241909206,0.0142424603641033,-0.4838936924934387,-1.364118576049805,1.3716681003570557
3.8431435546875,-1.1512198072604831,0.0067956514894962,1.875215780219436,-0.39323490858078,-1.2542684078216553,1.111484169960022
3.85312353515625,-1.0171757862128317,-0.6987427276283502,3.653298635420203,-0.3008520603179931,-1.0759891271591189,0.8033842444419861
3.863102294921875,-0.8663874049827456,-1.3617618154466151,5.177809465134144,-0.2018919140100479,-0.8022462725639343,0.5031927227973938
3.87308251953125,-0.87698639427796,-1.8414298304736612,6.517142591151595,-0.0881593525409698,-0.5070800185203552,0.2248634845018386
3.8830615234375,-0.9501527527756988,-2.0313456686079503,7.6690224697560065,0.0242502819746732,-0.2683958113193512,-0.0386472456157207
3.89304150390625,-1.0512471287712457,-2.0426311788626013,8.530730484750867,0.0902245044708252,-0.1489416062831878,-0.2480774372816085
3.903021728515625,-1.3807162528939545,-2.0783134637489917,9.03149681738615,0.090357132256031,-0.1908738613128662,-0.3663825094699859
3.913000732421875,-1.9423532338164744,-2.2484433820478618,9.198073865509032,0.0629287213087081,-0.2985633611679077,-0.3994092941284179
3.92298046875,-2.2229009445123373,-2.465928048978746,9.663310035079718,0.0387232489883899,-0.4200828671455383,-0.368805855512619
3.932960693359375,-2.150380482702702,-2.687785378035903,9.988674792623518,0.0444321148097515,-0.5198653936386108,-0.3096879124641418
3.942939697265625,-1.8381724361129104,-2.778333663967252,10.116112255012988,0.0844706147909164,-0.5863173604011536,-0.2283331453800201
3.95291943359375,-1.5648833182431756,-2.6857544567301868,10.158644405794144,0.1269319355487823,-0.6283478140830994,-0.1369635611772537
3.962899658203125,-1.2933363678656518,-2.447252428472787,9.98746015613675,0.1341685503721237,-0.6543781161308289,-0.0445169806480407
3.97287841796875,-1.0175368746101856,-2.2694895310774443,9.672732527941465,0.1030738353729248,-0.5978893041610718,0.0520288571715354
3.9828583984375,-0.9847954654812812,-2.155917658563703,9.44401671129167,0.0240498539060354,-0.4420563280582428,0.1689054071903228
3.992837646484375,-0.9666812051851302,-1.958652188318968,9.127068484437466,-0.0756145343184471,-0.3258519768714905,0.2565463185310364
4.0028173828125,-0.8912964399855583,-1.8189065946288403,8.863279600840807,-0.1626173555850982,-0.2490038275718689,0.3084910213947296
4.012796630859375,-0.8523107296396046,-1.8451967817917465,8.797523810860515,-0.23183074593544,-0.1995464414358139,0.3275942504405975
4.02277685546875,-0.8257957207448781,-1.984467013055086,8.607419172155856,-0.2646427452564239,-0.1761811971664428,0.3253585398197174
4.03275537109375,-0.8149186451606452,-2.100230258133262,8.417228608733415,-0.240273118019104,-0.1565912961959839,0.282343715429306
4.042735595703125,-0.7961729550931602,-2.217807274635136,8.312745905473827,-0.1541909575462341,-0.136362999677658,0.213779017329216
4.052714599609375,-0.7624919270265847,-2.3386701809398827,8.234248707342147,-0.0340531840920448,-0.0753188952803611,0.1246561855077743
4.062694580078125,-0.6853356951750814,-2.4174020646102723,8.155580828818678,0.1077742576599121,0.0289015173912048,0.0226003937423229
4.072674560546875,-0.6668350659098475,-2.5105937046572566,8.110214915916323,0.2647709548473358,0.1300848424434662,-0.0832820832729339
4.082653564453125,-0.5259953933726996,-2.5584341909796,8.161935750803352,0.41787850856781,0.1895942389965057,-0.1992955058813095
4.092633544921875,-0.3707982557896524,-2.5205565880060194,8.29453921765387,0.5226978659629822,0.2530666291713714,-0.3098230957984924
4.1026142578125,-0.305822583336383,-2.3862390107139944,8.19787858632207,0.5646477341651917,0.3425853252410888,-0.398989737033844
4.11259326171875,-0.1900054161138832,-2.126007819598913,7.792906039056182,0.5576572418212891,0.5108020305633545,-0.4625097215175628
4.1225732421875,-0.1700153520084917,-1.7347860036574303,7.242232058435678,0.5244849324226379,0.7464433312416077,-0.488428384065628
4.132553466796875,-0.07113587558344,-1.3488093948930502,6.570400718608498,0.4503690302371979,1.0105446577072144,-0.4825033843517303
4.142532470703125,-0.0444172338753938,-0.9437357984054832,5.681919262978434,0.3044190108776092,1.2725554704666138,-0.418871134519577
4.152512451171875,-0.0471352606624364,-0.5133178442377597,4.137601324510574,0.0745741724967956,1.5167100429534912,-0.2908941209316253
4.1624912109375,-0.1856878451757133,-0.2642862386595457,1.8786796569377184,-0.1423882395029068,1.581525802612305,-0.1171558946371078
4.172471435546875,-0.3702908177241683,-0.0226597217060625,-0.4853764558017253,-0.2783734500408172,1.4518225193023682,0.1010683178901672
4.182451416015625,-0.5947384555354714,0.8210332555834203,-3.0403017618775365,-0.3671248853206634,1.059812307357788,0.3919707238674164
4.19243017578125,-0.7335660575978458,2.635949392336607,-6.60141311198771,-0.4216054677963257,0.469906747341156,0.763386070728302
4.202410400390625,-0.7954331695765257,4.686277701573074,-9.928158072340487,-0.4237421452999115,-0.1631809771060943,1.1962459087371826
4.212390380859375,-0.8509662562280893,6.0784495605915785,-12.31798984684944,-0.4638306498527527,-0.7188333868980408,1.574031949043274
4.222369140625,-0.3076996292546391,7.140815172487497,-14.37939864528775,-0.5866279006004333,-1.1409697532653809,1.7464399337768557
4.23234912109375,0.8346912671230733,8.415936230835317,-16.152773761188982,-0.8326687812805176,-1.291745662689209,1.7160470485687256
4.24232958984375,2.02349860836938,9.649573770672085,-17.54621900114417,-1.1885600090026855,-1.3614453077316284,1.4749130010604858
4.25230810546875,3.333401787893474,9.723979900097849,-18.27061113381386,-1.5668030977249146,-1.281036138534546,1.0281113386154177
4.262288330078125,4.502210297206044,8.828439173606037,-18.533115238296983,-1.870269775390625,-0.996669352054596,0.4582159221172333
4.272267333984375,5.654933056375384,7.728228691962361,-19.101310262560844,-1.9464406967163088,-0.606361985206604,-0.1419563144445419
4.282247314453125,6.380146442300081,6.264006618994474,-19.094144024193287,-1.7174198627471924,-0.2394218146800995,-0.6871229410171509
4.292227294921875,6.434117101940513,4.782714461021125,-18.251261121177677,-1.307669758796692,0.0089659197255969,-1.1192476749420166
4.302206298828125,5.952249531042575,3.732270465326309,-17.463133890700338,-0.8982470035552979,0.1673323810100555,-1.3959940671920776
4.312186279296875,5.121633404403925,2.899045909754932,-16.568929965770245,-0.6075299978256226,0.2675994038581848,-1.5164047479629517
4.322166259765625,4.2674806270942085,2.092771612690389,-15.391235262429714,-0.4281287789344787,0.2853358089923858,-1.5191030502319336
4.332145263671875,3.578324350717664,1.2457543863490224,-13.782069880998131,-0.2863503396511078,0.2293721139430999,-1.425885796546936
4.342125244140625,3.011896336126328,0.3624105858683586,-11.598742675852774,-0.1461692601442337,0.147547036409378,-1.2959836721420288
4.352105224609375,2.6588240719676017,-0.4662471001788973,-9.162091867023706,-0.0095386067405343,0.0587688498198986,-1.1647706031799316
4.362084228515625,2.45278185941875,-1.1707418154627085,-6.76853610355556,0.1071691066026687,0.0637311190366745,-1.058430790901184
4.372064453125,2.263817915181816,-1.751615704035759,-4.368504422071576,0.2270398139953613,0.1506670117378235,-0.9450956583023072
4.38204443359375,2.0140802071608603,-2.2817218206629155,-1.7903449554026123,0.3467952311038971,0.2105985134840011,-0.8193052411079407
4.3920234375,1.573459715669602,-2.870205015195906,0.9092746528118848,0.4545544385910034,0.1908285319805145,-0.6658682227134705
4.40200341796875,0.93900255933851,-3.344671954448521,3.4525317329257725,0.5108629465103149,0.1542843580245971,-0.4896088242530823
4.411982177734375,0.3641261576145887,-3.521279105937481,5.376498976832628,0.4827041625976562,0.1012757048010826,-0.2882520258426666
4.42196240234375,-0.1543270767502486,-3.578877892947197,6.738386464485526,0.388876736164093,0.04053645581007,-0.0770609453320503
4.4319423828125,-0.7306637602850794,-3.683394498476386,7.959203101193904,0.2497588843107223,0.0145263290032744,0.1232579052448272
4.441921142578125,-1.2648057082995772,-3.821118084819615,9.00906052917242,0.1009505093097686,-0.0085784578695893,0.2852497398853302
4.4519013671875,-1.5441256307661533,-3.968408540931344,9.761918877869844,-0.0331733897328376,-0.0519838966429233,0.3867505490779876
4.46188134765625,-1.6840815062060952,-4.11632998842299,10.3755511267066,-0.1156807839870452,-0.1007618159055709,0.4273461699485779
4.471860107421875,-1.7601755887188015,-4.2171693667441605,10.759227787965536,-0.1325941383838653,-0.1537507772445678,0.4123991727828979
4.48184033203125,-1.697669155923277,-4.201153466966748,10.897854168367385,-0.1080714836716651,-0.1682136058807373,0.3546554446220398
4.491820556640625,-1.608138668732345,-4.106188241375983,10.896729548251628,-0.0697410702705383,-0.1363745033740997,0.2596588730812073
4.50179931640625,-1.4122856956340373,-4.083677426621318,10.74215390356779,-0.0310157779604196,-0.0643983110785484,0.1433511972427368
4.511779541015625,-1.2469285446949303,-4.191260433983802,10.622502272748946,0.0158348530530929,0.0546272806823253,0.0320247933268547
4.521759521484375,-1.3097371753074227,-4.19695309266746,10.639068792146444,0.0674088299274444,0.1670001596212387,-0.0530504174530506
4.53173828125,-1.412806212376803,-3.995110377635061,10.51544591960907,0.0976600721478462,0.2161560803651809,-0.1211108416318893
4.54171826171875,-1.5174113729722798,-3.8005665874391794,10.275576840782165,0.1010702475905418,0.2201625406742096,-0.1538775712251663
4.551697265625,-1.690829519161582,-3.765190153631568,10.163493599390984,0.0796358212828636,0.2099342793226242,-0.1489210128784179
4.56167724609375,-1.8774971691548823,-3.749645963019133,10.000148957318068,0.0561022646725177,0.1792733073234558,-0.1181838810443878
4.5716572265625,-2.007596836490929,-3.721112526974082,9.79879928649962,0.0466916933655738,0.1056589409708976,-0.0739177465438842
4.58163623046875,-2.0441709556505083,-3.7263556883245705,9.62397054286003,0.0504717826843261,0.0204540304839611,-0.0374430902302265
4.5916162109375,-2.0589491303265093,-3.780220549502968,9.49541664366126,0.0704711973667144,-0.0552207231521606,0.0001486274413764
4.601596435546875,-1.9830637221284209,-3.841647954890132,9.437852927964926,0.0983289256691932,-0.0953300520777702,0.0281602889299392
4.6115751953125,-1.8948717900648715,-3.8428812960773695,9.389885308131577,0.1112865880131721,-0.0765200033783912,0.0594865158200264
4.621555419921875,-1.8155781808584928,-3.8428541158095,9.157263716214894,0.1140663996338844,-0.0550775676965713,0.0885607749223709
4.631535400390625,-1.8135611419476567,-3.928352424874901,8.986115122392773,0.1210077032446861,-0.0479919463396072,0.0904806554317474
4.641514404296875,-1.7354907909259198,-4.006586588156223,8.84507232849896,0.1502729058265686,-0.0461756698787212,0.0685188993811607
4.651495361328125,-1.62283501034379,-4.070517500796914,8.596943370848894,0.2399214059114456,-0.0287128947675228,0.0220850873738527
4.661475341796875,-1.480714796476811,-4.085037316797673,8.449770695897936,0.3942153751850128,-0.0176639724522829,-0.042623333632946
4.671454345703125,-1.285258275350183,-4.009171928474307,8.38958130787313,0.5620946288108826,0.075686477124691,-0.1185885369777679
4.681434326171875,-1.04362905498296,-3.811280873677134,8.137781552755833,0.6347441077232361,0.3228001296520233,-0.2019161880016327
4.69141455078125,-0.7172879997529089,-3.466624847947061,7.07150490489602,0.5435647368431091,0.7247457504272461,-0.284932792186737
4.70139306640625,-0.3215251793809235,-3.145430361825228,5.141145329603552,0.3243351876735687,1.2068856954574585,-0.4000716209411621
4.71137353515625,0.3611474340647458,-2.8183436027944087,2.7677947342962024,0.0013193078339099,1.6106884479522705,-0.5464115142822266
4.721353515625,0.9965595530331134,-1.7575076846837996,-1.1922545590907334,-0.397525280714035,1.84134304523468,-0.5908839106559753
4.731332275390625,0.8828022409498691,0.4688004379235208,-7.137747601610422,-0.6316893100738525,1.7491018772125244,-0.4263575673103332
4.7413125,0.2141292190231382,3.438274367253482,-13.317068689227105,-0.3085817992687225,1.0872472524642944,-0.1133748739957809
4.751292236328125,-0.2221108654268085,6.877463511264324,-17.677635888558626,0.4704059958457947,0.0608115866780281,0.1791664510965347
4.761271240234375,0.148432027362287,10.409625245743989,-20.97340528041124,1.2040280103683472,-0.8323495388031006,0.3504801392555237
4.77125146484375,1.201797317331284,12.132817988371848,-23.409715897500515,1.4662683010101318,-1.306833267211914,0.2840522527694702
4.781231201171875,3.202597771680355,11.545862149536608,-23.522713331127164,1.2652462720870972,-1.4183049201965332,-0.0872334167361259
4.791210205078125,5.624787508958578,10.59924063962698,-22.103419364166257,0.9260891675949096,-1.082533597946167,-0.6358622908592224
4.8011904296875,7.420323018741607,9.894078108084202,-19.83767691066265,0.5844191908836365,-0.4359657168388366,-1.1857486963272097
4.811169189453125,8.383397650802134,8.561528358596563,-18.048285894984005,0.2422770112752914,0.3386873006820678,-1.5408427715301514
4.8211494140625,8.219177394938468,6.825776578646898,-17.357092267560958,-0.0920621007680893,1.0237234830856323,-1.5452234745025637
4.83112939453125,6.899351517945528,5.407710692176223,-17.221885340213774,-0.3517425060272217,1.390608549118042,-1.2419564723968506
4.8411083984375,5.0883717707932,4.472066795615851,-16.64157434622049,-0.5506832599639893,1.2799954414367676,-0.7251231670379639
4.85108837890625,3.170627931445837,3.639741819232702,-15.764600957554578,-0.6654000282287598,0.8061372637748718,-0.0933806598186492
4.861068115234375,1.380995069835335,2.5954268278121946,-14.722345821273326,-0.6165235638618469,0.2203059494495391,0.5244090557098389
4.87104736328125,0.2543430098593235,1.9163273966781795,-12.825129221647977,-0.3984095156192779,-0.3496060967445373,0.995513081550598
4.88102734375,-0.12128127784729,1.7144966643445192,-10.196334377241136,-0.1298654079437255,-0.8275140523910522,1.269826054573059
4.891007080078125,-0.1365345226891338,1.562144833189994,-7.325508307537436,0.0631512552499771,-1.1592077016830444,1.2917659282684326
4.900986328125,0.1798427724093198,1.2785149385698138,-4.663354798886179,0.1466352343559265,-1.3246632814407349,1.080125331878662
4.91096630859375,0.5719362566187978,0.7652453904531895,-2.0573662450492383,0.1565599888563156,-1.3044512271881104,0.7120708227157593
4.9209453125,0.7854192866928875,0.0784426914654672,0.452586531355977,0.0997052192687988,-1.1039117574691772,0.2667732834815979
4.93092529296875,0.8679685366943478,-0.615686843279004,2.469985507676005,-0.0181668065488338,-0.6918366551399231,-0.1723563075065612
4.940905517578125,0.8396221476539969,-1.3423637258850036,3.966186188706756,-0.14872907102108,-0.2069029957056045,-0.5629677176475525
4.950884521484375,0.7853609806343913,-2.292417402200401,5.342084081533551,-0.2389239072799682,0.2690442502498626,-0.868707001209259
4.960864501953125,0.3518075049199163,-3.229189133746922,6.8199103169620034,-0.2689342498779297,0.6541599631309509,-1.0878835916519165
4.97084423828125,-0.1556529185265302,-3.7716830227822062,8.042646523556114,-0.23944091796875,0.9014179706573486,-1.2641445398330688
4.980823486328125,-0.7223413376197219,-3.991052334415913,8.960302635744213,-0.1662426143884658,1.0065512657165527,-1.3913168907165527
4.990803466796875,-1.4302622279599309,-4.02651966137737,9.704711136004327,-0.0677518993616104,0.9534830451011658,-1.4860954284667969
5.000783203125,-1.9950902600087224,-3.98562008023411,10.235721800255774,0.0310034416615962,0.8111535906791687,-1.5525239706039429
5.01076220703125,-2.144562736334652,-3.847253519812226,10.485637641322612,0.1134244948625564,0.6014209985733032,-1.5768444538116455
5.020742431640625,-2.078546249591559,-3.8240757655814286,10.597948846250771,0.2026774138212204,0.3931594491004944,-1.534285545349121
5.03072119140625,-1.9128198269486427,-3.8181843694552775,10.953494807046653,0.2902393639087677,0.1920588612556457,-1.4161630868911743
5.040701171875,-1.742227113443613,-3.798879949526488,11.148158131968977,0.3651381134986877,-0.0079096388071775,-1.20611310005188
5.050681640625,-1.727528287614137,-3.841094997182488,11.162516327667236,0.405112475156784,-0.1767582297325134,-0.9068602323532104
5.06066015625,-1.9307206636898215,-3.688997140789032,11.090979031676053,0.3677299618721008,-0.1247157976031303,-0.5079253911972046
5.070640380859375,-2.25101089444831,-3.175044871105253,10.662677631270885,0.2472080737352371,-0.0617653243243694,-0.0795372799038887
5.080620361328125,-2.1154797035828232,-2.712451617258787,10.026371778333187,0.0860466137528419,-0.1062294617295265,0.3151208162307739
5.090599365234375,-2.0715730495780704,-2.675640766733885,9.94050083656311,-0.099079705774784,-0.2427977323532104,0.6528111100196838
5.100575439453125,-2.1488583877019583,-2.904177135163545,10.11845969492197,-0.3074028193950653,-0.4156073331832886,0.9350228309631348
5.1105556640625,-2.1158741097278893,-3.2237627247840166,9.928038829874993,-0.5095416903495789,-0.5693024396896362,1.1427069902420044
5.120534423828125,-1.9057482811272144,-3.4866070210069418,9.468720944437385,-0.6418635249137878,-0.6598584651947021,1.2649612426757812
5.130514404296875,-1.597541286872327,-3.6861838369339694,9.098198948305845,-0.6565131545066833,-0.6769852042198181,1.313115477561951
5.14049462890625,-1.347971336633712,-3.877756210103631,8.91844093157053,-0.5578598380088806,-0.6703952550888062,1.3083727359771729
5.150473388671875,-1.1769565983243286,-4.073502654087544,8.735230728554725,-0.3774749338626861,-0.6720595359802246,1.2646546363830566
5.160453369140625,-1.061908223517239,-4.156131837457418,8.615201496595144,-0.1650686562061309,-0.675542414188385,1.1947402954101562
5.170432373046875,-0.9948664853796362,-4.1277316724032165,8.492630178937315,0.005633105058223,-0.6533612608909607,1.0974293947219849
5.180412353515625,-0.9601201661691068,-4.121173629061878,8.206143141320347,0.1005617454648017,-0.4240295588970184,0.9810391664505004
5.190392333984375,-0.9806938753813504,-3.962678180585801,7.910577894234657,0.1398894786834716,-0.0191148892045021,0.8320170640945435
5.200371337890625,-0.6495386978678405,-3.6398043630748975,7.657666963005066,0.1429662257432937,0.3402858972549438,0.6252918243408203
5.2103515625,-0.3093377518504858,-3.485373972080648,7.383081960105896,0.1401453018188476,0.5676342844963074,0.3746434152126312
5.22033154296875,-0.076964143345505,-3.311498875904083,7.1586541960388415,0.1220754757523536,0.7286713719367981,0.1227381899952888
5.230310546875,0.3432802073322236,-2.8179493427798152,6.368235055232048,0.0594262406229972,0.833893895149231,-0.0956222414970398
5.24029052734375,0.9477325398914516,-2.0124958605788645,4.302530020904541,-0.0814565792679786,0.9344753623008728,-0.1737077087163925
5.2502705078125,1.1408524347640574,-1.1445134414896367,1.2416887443453073,-0.3565431237220764,1.0534489154815674,-0.0074230134487152
5.26024951171875,0.9733571027524768,-0.2321738481491804,-2.933210337424278,-0.7045756578445435,1.0999599695205688,0.4195014238357544
5.2702294921875,0.9310356721125542,0.6742439539268612,-7.389596456566452,-0.8844363689422607,1.126658916473389,0.9948703050613404
5.280208251953125,0.9729191497266292,1.8607849576763809,-10.686795004439354,-0.6342062950134277,1.0938538312911987,1.518949031829834
5.2901884765625,1.014256391634792,3.967729034234583,-13.059314409619567,-0.0452202744781971,0.8512279391288757,1.912846803665161
5.30016845703125,0.6255025732420385,7.077337264311313,-15.728616620981692,0.6375369429588318,0.2599138021469116,2.1290533542633057
5.310147216796875,0.5008754920981824,9.60190893317759,-17.569413998770713,1.075600266456604,-0.5636895895004272,2.106610059738159
5.32012744140625,0.37815789783746,11.090652868461609,-18.607134414231776,1.1007444858551023,-1.2205209732055664,1.8343770503997805
5.330107666015625,1.1629660668946802,11.740926456475258,-18.1186775280714,0.7818499803543091,-1.5589579343795776,1.327553153038025
5.34008642578125,2.872793570384383,11.321694497710466,-16.76258323686719,0.2326297461986541,-1.486393928527832,0.6937978267669678
5.350066650390625,4.549840647909045,10.338339294165372,-15.656494803100824,-0.3380280435085296,-1.115689039230347,0.0426305755972862
5.360046630859375,5.888750580078363,8.838420469394325,-14.586306534755227,-0.7613340616226196,-0.6426603198051453,-0.5246403217315674
5.370025390625,6.3872004524648185,7.111392678648233,-13.657128327077626,-1.00096595287323,-0.1479212492704391,-0.8509482145309448
5.380005615234375,5.711420082750916,5.714854148852825,-13.643500783741471,-1.0880063772201538,0.176659494638443,-0.8693544268608093
5.389984375,4.321718120977282,4.550246890622377,-13.740634293282032,-1.0769165754318235,0.2004342079162597,-0.6114404797554016
5.39996435546875,2.61608996887356,3.257626415941119,-13.580259022408724,-1.0051960945129397,-0.001593180000782,-0.1852654367685318
5.4099443359375,1.124126779282093,2.176118442810327,-12.9037883323431,-0.9188031554222108,-0.2947794198989868,0.2858224511146545
5.41992333984375,0.1666561047084629,1.4926456188976764,-11.987633272367717,-0.8023681640625,-0.6300934553146362,0.6670507192611694
5.4299033203125,-0.1972445735871791,0.9186591517508028,-10.526046808600425,-0.6642670631408691,-0.8949821591377258,0.8654773235321045
5.439883544921875,-0.0676249448530375,0.345708749653399,-8.673055719670653,-0.5222787261009216,-0.9750751256942748,0.8408635854721069
5.449862548828125,0.3037776335053145,-0.1077209545284509,-6.657557024013996,-0.3915534913539886,-0.8829259872436523,0.5962454676628113
5.459842529296875,0.7721091387428343,-0.4681203467048704,-4.51564553284049,-0.2262963652610778,-0.7284253835678101,0.1947707086801529
5.469822509765625,1.1241932686470448,-0.9213806856691836,-1.995592218181491,-0.0428507402539253,-0.4902029037475586,-0.265821248292923
5.479801513671875,1.2705341689489782,-1.670976087047905,0.4557546399980783,0.1304451376199722,-0.1734523922204971,-0.7069603204727173
5.489781494140625,1.1611809370435773,-2.695468918275833,2.702072262063622,0.2814952731132507,0.1269125938415527,-1.0719586610794067
5.499760498046875,0.824467979272455,-3.719776894456148,4.739679329153895,0.3882313072681427,0.3778603971004486,-1.3329631090164185
5.509740478515625,0.3103450291968881,-4.40896678084135,6.3443292789876455,0.4685879349708557,0.5407333970069885,-1.474095582962036
5.519720458984375,-0.3065294164314865,-4.687205630072951,7.529069809186458,0.5072362422943115,0.5889337062835693,-1.4857239723205566
5.529699462890625,-0.9276913301207124,-4.741556521202623,8.1429691845268,0.475508451461792,0.5334519147872925,-1.376281499862671
5.539679443359375,-1.4810671170458196,-4.635315283837914,8.484643271836639,0.4155798554420471,0.398695170879364,-1.164622187614441
5.549659423828125,-1.9486282224327325,-4.5132720817074174,8.809707000607252,0.3563094437122345,0.2001440972089767,-0.8611664175987244
5.559638427734375,-2.2839267833612857,-4.42516417466551,9.085995300292968,0.3110002875328064,-0.0563990101218223,-0.4833983182907104
5.56961865234375,-2.6029966785445806,-4.328545921170711,9.353686452025174,0.3022226095199585,-0.3338976800441742,-0.071039929986
5.5795986328125,-2.796526323261857,-4.114375931745768,9.63229121195972,0.3065960705280304,-0.5639002919197083,0.3180265724658966
5.589577392578125,-2.731419060318172,-3.7551246866911647,9.838349791121482,0.3079441487789154,-0.6953062415122986,0.6441543698310852
5.5995576171875,-2.379429330699146,-3.450201536412537,9.791685070580243,0.2775971591472626,-0.7883229851722717,0.8673664331436157
5.609536376953125,-1.971549956075847,-3.2966251318991184,9.62095031825602,0.2253647744655609,-0.836654782295227,0.9992144703865052
5.619516357421875,-1.6751491349488496,-3.146734137900173,9.586964462023971,0.1536197364330291,-0.8493082523345947,1.047194004058838
5.62949658203125,-1.4342556815102696,-3.0217391002267595,9.470634084582327,0.064618282020092,-0.8120190501213074,1.0313185453414917
5.639475341796875,-1.2675485772669317,-2.9407518388450145,9.22235899645984,-0.0234822779893875,-0.6792362928390503,0.979795217514038
5.649455322265625,-1.0958831930290909,-2.8895559046149253,8.97970642439425,-0.0750976875424385,-0.5448064208030701,0.8845148682594299
5.659435546875,-0.8312780246134847,-2.925907905456424,8.782290585893392,-0.0475057363510131,-0.4534399807453155,0.7525153160095215
5.669414306640625,-0.6619795156374574,-3.097448713466525,8.83923529290855,0.0716220289468765,-0.3803832828998565,0.5834863781929016
5.67939453125,-0.5399916238907724,-3.186060770638287,8.947466535046695,0.2575498223304748,-0.3136436641216278,0.3984014391899109
5.689374755859375,-0.5103459157548844,-3.1183336805850264,8.967739507746696,0.4743927121162414,-0.2587817311286926,0.2088195383548736
5.699353515625,-0.470781528738141,-2.9087279303357003,8.982303455150127,0.657478928565979,-0.1807361990213394,0.0353359058499336
5.70933349609375,-0.4186137538012117,-2.659126269784569,9.00616831486225,0.7735016345977783,-0.0553970672190189,-0.1240946352481842
5.7193125,-0.3108736561808735,-2.5067536881029606,9.03532251315415,0.8090992569923401,0.1047342717647552,-0.2645822167396545
5.72929248046875,-0.1324707803815603,-2.389705371650308,8.998439766436814,0.782258927822113,0.3202641904354095,-0.3746573328971863
5.7392724609375,0.0011530424926429,-2.3468331752598286,9.013896278765795,0.7472586035728455,0.5648568868637085,-0.43048757314682
5.74925146484375,-0.1112100387532264,-2.290153695052117,9.078446200087663,0.7189751863479614,0.7961285710334778,-0.4219540357589721
5.7592314453125,-0.2294756951063871,-2.027406283332408,8.87694338453412,0.7077904343605042,1.0134944915771484,-0.3692386150360107
5.76921142578125,-0.2770681249517947,-1.685804968997836,8.303121168038249,0.6852962970733643,1.1878947019577026,-0.2129170447587967
5.7791904296875,-0.3469599187582731,-1.4898033812090754,7.249835519176721,0.6405048370361328,1.301668405532837,0.0531026534736156
5.78917041015625,-0.2997647446021437,-1.2472210979007183,5.584679370453953,0.5413379073143005,1.352336287498474,0.4427553415298462
5.799150634765625,-0.4212386224120855,-0.8622653566166758,2.8387849177986384,0.3057416081428528,1.2749006748199463,0.935618817806244
5.809129638671875,-0.903834215323627,0.0252585060276091,-0.7962281193464994,-0.0658568441867828,1.045878291130066,1.3925790786743164
5.819109619140625,-1.327119833393395,1.7294982725128532,-4.637641096436977,-0.497298002243042,0.6924731135368347,1.749014973640442
5.82908935546875,-1.098035183431208,3.2971564622968432,-8.310346443116664,-0.8319224715232849,0.2458786219358444,2.0340113639831543
5.839068603515625,-0.6168062026977539,4.183035626474022,-11.879308506727218,-0.930780589580536,-0.3160417079925537,2.294952392578125
5.849048583984375,-0.1663100677497684,5.450960051316023,-15.355027638494969,-0.728057324886322,-0.9236727952957152,2.356352567672729
5.85902734375,1.3602521415360271,7.417644739443063,-17.62432164700031,-0.4418734908103943,-1.44379985332489,2.141808271408081
5.869007568359375,3.2993098409384487,8.282070781224965,-19.630368039178848,-0.3834685087203979,-1.577970266342163,1.7710100412368774
5.878987548828125,5.225810987237096,6.881613032159209,-20.91601925936937,-0.5851047039031982,-1.3189067840576172,1.312036395072937
5.88896630859375,6.655121321299672,4.196555325521529,-21.56026993383169,-0.738567590713501,-0.8231531977653503,0.7628001570701599
5.898946533203125,7.445750889986753,2.2053755169548093,-21.149998695635794,-0.5810019373893738,-0.3110103011131286,0.1756368428468704
5.908926513671875,7.683830162787437,1.280509473387897,-20.32446440230608,-0.1193068102002143,0.092854343354702,-0.3563193678855896
5.9189052734375,7.350426475694775,0.8815734298072755,-19.4781959485054,0.4366978406906128,0.4140299558639526,-0.7892033457756042
5.928885498046875,6.687718938043713,1.1927879353150723,-18.7653609826386,0.8715050220489502,0.6781221032142639,-1.1399285793304443
5.938865478515625,5.992848083412647,1.9760045973971485,-17.98406915113926,1.1000604629516602,0.8308032751083374,-1.3931745290756226
5.948844482421875,5.125207171237468,2.4783754426196216,-16.482750396442412,1.166292667388916,0.8422490358352661,-1.544070601463318
5.958824462890625,4.161404224902391,2.655177239897847,-14.29143160802126,1.1121692657470703,0.7598686814308167,-1.621077299118042
5.968803466796875,3.279046805110573,2.638858265520632,-11.76177284514904,0.9924991726875304,0.6450214385986328,-1.638133883476257
5.978783447265625,2.4411704782105983,2.312927690787613,-9.037994947233797,0.8519324660301208,0.5349055528640747,-1.6025217771530151
5.988763427734375,1.6183398908816278,1.9926082339346407,-6.091584351974725,0.6926085352897644,0.4535846710205078,-1.54430091381073
5.998742431640625,0.7659929939500987,1.8595503013148904,-3.025981560102105,0.4841391742229461,0.3476355969905853,-1.503278374671936
6.008722412109375,0.1130960716955363,1.8050789986759423,-0.1261550213634967,0.1530020087957382,0.1755298674106598,-1.5015090703964231
6.018702392578125,-0.3475837497450411,1.788277501478791,2.3396505702793595,-0.4352889358997345,-0.1324897408485412,-1.5274291038513184
6.028681396484375,-0.4951217508770525,1.609559933707118,4.122907613247633,-1.2391372919082642,-0.5126957297325134,-1.5041028261184692
6.03866162109375,-0.8883493536829948,0.8177979999892413,5.652509044098854,-2.509831428527832,-0.6760835647583008,-1.2570775747299194
6.048641357421875,-1.9781217356815928,0.0424031175740063,5.172746336525679,-3.762738704681397,-0.7265317440032959,-0.6729245781898499
6.05862060546875,-3.627941199062765,-1.836255642706156,7.151479189842939,-4.247408390045166,-0.831119954586029,0.1381720155477523
6.0686005859375,-4.74009960039258,-3.8850697479873895,10.994278068333864,-3.736393451690674,-1.079322338104248,0.7710188627243042
6.078580322265625,-4.246471449074149,-4.20382677782923,13.361354405677318,-2.6362669467926025,-1.4079034328460691,1.1000343561172483
6.0885595703125,-3.3086095842033623,-3.955282809637487,13.2086819642663,-1.3903549909591677,-1.6827861070632937,1.2404301166534424
6.09853857421875,-2.621983410826325,-4.186337006106973,12.231391759848592,-0.3419161438941955,-1.7649867534637451,1.2414780855178833
6.108517822265625,-2.0261831712782383,-4.81506248691827,11.274092204058167,0.3394228816032409,-1.6609116792678833,1.0751575231552124
6.118498046875,-1.3063693063095212,-5.147200976380706,10.475275237262249,0.668328583240509,-1.563442945480347,0.7474955320358276
6.128477783203125,-0.7556651497464627,-4.807327801012993,9.877863470864297,0.7050307393074036,-1.329928278923035,0.3956398963928222
6.13845703125,-0.706562680664286,-4.369230105997622,9.570581482499838,0.5356659293174744,-0.9439470171928406,0.0991618931293487
6.14843701171875,-0.7852149232272059,-3.9011011375948783,9.142317491495607,0.2422463595867157,-0.5030636191368103,-0.1281278431415558
6.158416748046875,-0.7234919689595699,-3.332899683590233,8.468308223107456,-0.1279852241277694,-0.0899951010942459,-0.3304889500141144
6.16839599609375,-0.1485064077727496,-3.015569179420173,7.965760852274299,-0.4415267407894134,0.2706614732742309,-0.5174345970153809
6.1783759765625,0.3762197328491136,-3.3335616546303037,7.920874831843376,-0.5676250457763672,0.620489776134491,-0.6480562686920166
6.188355712890625,0.8943639377973973,-3.735334821332991,8.141342460107802,-0.4639978110790252,1.193716049194336,-0.744301974773407
6.198334716796875,1.6923410927683114,-4.163871784059703,8.078955854299664,-0.1556106954813003,1.9651952981948853,-0.802283763885498
6.208314697265625,2.74764831058532,-4.405397982443869,7.604546198192239,0.2715407609939575,3.0049400329589844,-0.8468844294548035
6.218293701171875,3.842884510947764,-4.529062356035412,7.001571536970138,0.6803621053695679,4.244535446166992,-0.9341990947723388
6.228273681640625,4.583810137528181,-4.476289674007893,6.018950492918491,0.9927442669868468,5.252439975738525,-0.9634090065956116
6.23825390625,4.2386254117488855,-3.90540614131242,4.684536703124642,1.1758464574813845,6.018348217010498,-0.8661013245582581
6.24823291015625,3.53163157312572,-3.5795386949434875,3.133851567712426,1.1549886465072632,6.531387805938721,-0.720665693283081
6.258212890625,2.7338211530238388,-3.932051279392838,1.0396312175184488,1.013131856918335,6.657641410827637,-0.425519585609436
6.26819287109375,1.426311444507539,-4.637240114420652,-0.2871469628304243,0.9674419164657592,5.646200180053711,0.0681549757719039
6.278171875,1.4661974646940827,-5.446403118664026,-0.0761176095187664,1.041866898536682,3.6993463039398193,0.4951377213001251
6.28815185546875,1.315165191705525,-3.788123869973421,0.5822942767649889,1.033737063407898,1.5209957361221311,1.0621849298477173
6.2981318359375,-1.2125322079658507,-4.82256862476468,-0.2703273454546928,1.0553927421569824,-0.1054471507668495,1.6400541067123413
6.30811083984375,-2.182777170047164,-6.8916779145777225,1.160557690578699,1.2237069606781006,-1.6491901874542236,2.2533416748046875
6.318090576171875,-1.2796896814376115,-7.710117865732312,1.0438275001645088,1.4440337419509888,-3.137363910675049,2.6804661750793457
6.32807080078125,0.3378381624087691,-7.256741060781478,0.2263695457845926,1.483769416809082,-4.066627502441406,2.6051442623138428
6.3380498046875,2.607878897628188,-6.045936699521541,-1.10095048635602,1.411902904510498,-4.590044975280762,2.219648122787476
6.34802978515625,2.912996401435137,-5.207850967654585,-3.142145348805189,1.3933420181274414,-4.280896663665772,1.823381185531616
6.3580087890625,3.055855597101152,-4.128616930805147,-2.98731076092422,1.4156776666641235,-3.513684034347534,1.5785207748413086
6.367989013671875,2.732161987639964,-2.3657233152993022,-3.4722295360863207,1.4653613567352295,-2.6774685382843018,1.6013777256011963
6.37796875,1.243159401419759,-0.8999415917992591,-3.845726164114475,1.428857684135437,-1.9474091529846191,1.7723302841186523
6.387947998046875,-0.5313624002985656,1.1146250837042928,-4.423370569247007,1.2710803747177124,-1.0948090553283691,2.1131300926208496
6.397927978515625,-1.9565737746097147,2.9690844916209578,-4.788388707265257,1.0802042484283447,-0.9378839135169984,2.617380142211914
6.40790771484375,-3.863731776404381,3.32722660638988,-5.544947079524397,1.164781093597412,-1.192501664161682,3.315352439880371
6.417886962890625,-4.242523295970261,2.588577984830737,-6.050964756816625,1.7863682508468628,-1.5899641513824463,3.870171308517456
6.42786669921875,-0.8903134933628142,1.7796704166531565,-5.483301062950492,2.7536160945892334,-3.193528890609741,3.4884133338928223
6.4378466796875,5.6377159641146655,4.489177797153592,-8.599201963430643,2.914047718048096,-5.647737979888916,1.7817577123641968
6.447825927734375,12.546597526949643,9.22956205970645,-15.00865399519205,2.945560932159424,-5.343074321746826,0.3395097553730011
6.4578056640625,9.40944399508238,6.530163400766253,-9.180724671301244,2.5094988346099854,-3.634181022644043,-0.1097026392817497
6.46778466796875,2.6726018374294043,2.158632178219408,-11.01590187112093,1.6671419143676758,-1.9678977727890012,0.1211986169219017
6.47776513671875,-1.579178823968768,1.105843372964114,-15.044702629172802,0.7993021607398987,-0.4321750104427337,0.505155086517334
6.487744873046875,-3.592989712668955,2.434527240803837,-14.842646271389722,0.0646554678678512,0.6120113134384155,0.6381611824035645
6.497723876953125,-2.7375752448603508,4.0444484090387816,-13.755644815409182,-0.3788585662841797,1.019339680671692,0.6174734830856323
6.507703857421875,-1.7698051484599708,4.301828886897861,-11.531135705047843,-0.6468343734741211,0.9017825722694396,0.47698575258255
6.517683837890625,-0.9720403210654854,3.0204104819715023,-9.66088251567185,-0.7750775814056396,0.4640500247478485,0.3530720472335815
6.527662841796875,-0.9802011964935808,2.2725569558240477,-7.458443198299408,-0.8818696737289429,-0.2014137059450149,0.2323666661977768
6.537642578125,-0.7143712355233729,2.463860887315869,-5.737721229699254,-1.0650064945220947,-0.6946583390235901,-0.0993175208568573
6.547622802734375,1.2109527567546814,2.177282372023165,-3.931817470636964,-1.3201119899749756,-0.8004755973815918,-0.3851172924041748
6.557601806640625,1.3389520177453755,1.78050277582407,-1.3382330558210611,-1.6521016359329224,-0.8969400525093079,-0.4830206930637359
6.56758154296875,0.8497120914485305,1.534595147485286,-0.2527075176119804,-1.8840553760528564,-1.0008162260055542,-0.3797699511051178
6.57756201171875,0.1745107637315988,1.2426654804229735,0.6780705264776945,-1.9493461847305296,-1.0406757593154907,-0.2300115972757339
6.587540771484375,0.3289749839302152,1.4240677572339773,1.6371441062033176,-1.8743818998336792,-1.1173813343048096,-0.0870183631777763
6.597520751953125,0.8825653634540737,1.596848482302576,2.0044260975003243,-1.6196542978286743,-1.1656218767166138,0.099912904202938
6.6075,1.073072007088363,1.3508556598983703,2.400024667221308,-1.2262094020843506,-1.188509225845337,0.3386636972427368
6.61747998046875,1.0714842995055018,1.127245203563571,2.940581158453226,-0.7656455636024475,-1.2168824672698977,0.6132773756980896
6.627459716796875,1.1690996742788702,0.9826275468576698,3.5143495989352465,-0.2624399065971374,-1.2340465784072876,0.8807111382484436
6.63743896484375,1.0976661309231073,0.6765035694219171,4.157134877020121,0.2177882045507431,-1.1910197734832764,1.092811107635498
6.647418701171875,0.8498289958264679,0.4086001631785184,4.885985158142447,0.604910671710968,-1.0851701498031616,1.2288331985473633
6.657398681640625,0.7667511919062584,0.2747038983047939,5.546123137566447,0.8372645974159241,-0.9048557877540588,1.2951894998550415
6.6673779296875,0.8172088019244372,0.2124485359271988,6.131191555219888,0.8930518627166748,-0.717746376991272,1.3209322690963743
6.677357666015625,0.8560917825482786,0.0143226129282265,6.5181403700172895,0.7893195748329163,-0.5418853163719177,1.3415963649749756
6.687337646484375,0.9225402309678494,-0.2833767966419458,6.9331304534286256,0.606623649597168,-0.350198745727539,1.3463516235351562
6.69731689453125,0.9563777647703884,-0.4308229182394221,7.481209741380811,0.3949284553527832,-0.1759838014841079,1.3230170011520386
6.707296875,0.9555869066536428,-0.4369679968656972,7.908806208387017,0.1754595339298248,-0.0693221911787986,1.240195870399475
6.71727587890625,0.981312737932056,0.1522646643277257,7.97267633075118,-0.0315503850579261,-0.0250127874314785,1.1679539680480957
6.727256103515625,1.0626708784528076,-0.0655499286772683,7.908920190155506,-0.2544448971748352,-0.0745622664690017,1.1284747123718262
6.73723583984375,1.0890798696897923,-0.726365770830214,7.679231729081272,-0.5008556842803955,-0.1236134320497512,1.0473310947418213
6.74721484375,1.5110935681276023,-0.8967894113786518,7.568038130006194,-0.8881323933601379,0.1225640326738357,0.8614572286605835
6.75719482421875,2.1006271484963595,-0.9618134530182928,7.478900295394658,-1.1642377376556396,0.3264532685279846,0.7035115361213684
6.7671748046875,1.6496926221311092,-1.1486686614729464,7.85773711540699,-1.2966328859329224,0.4575197100639343,0.5919022560119629
6.77715380859375,0.982594302175194,-1.1746836849562825,7.534892231729626,-1.2548657655715942,0.4467727839946747,0.4312656819820404
6.7871337890625,0.6826063432764261,-0.7959325704660266,6.7469672458261245,-1.0590797662734983,0.4010300636291504,0.2421601861715316
6.79711376953125,0.493224100562185,-0.315081556199491,6.806555745348334,-0.7170398235321045,0.3495191931724548,0.1299609541893005
6.8070927734375,0.2356273496039211,-0.3296391469273716,7.140046526202559,-0.3255491852760315,0.3496840000152588,0.0602110289037227
6.81707275390625,0.1795720657091587,-0.5273689832808449,7.667121020048857,0.0045048822648823,0.4317493140697479,0.0418160445988178
6.827052978515625,0.0755146751895546,-0.8136006944298744,8.317676932135225,0.2294433861970901,0.5736227631568909,0.0879437178373336
6.837031982421875,-0.1636282082546502,-1.0609805872783065,8.83068958288133,0.379050463438034,0.7390604615211487,0.1484837681055069
6.84701171875,-0.2175279215507209,-1.1264434587266297,9.008162119027972,0.5560030341148376,0.775134801864624,0.1845110207796096
6.856990966796875,-0.3243482009124011,-1.2891053061671554,8.408947687122225,0.8505393266677856,0.4958677291870117,0.2002758681774139
6.866970703125,-0.3498178654726595,-1.8152412039890884,6.982319724011421,1.2401331663131714,-0.1539938151836395,0.1946652382612228
6.87695068359375,0.1406505066405981,-2.4778794757962226,5.187976054361462,1.530717849731445,-0.748814046382904,0.0036012853961437
6.886929931640625,1.6595798098951575,-2.6834830046668645,3.783886086273193,1.6547906398773191,-0.98372083902359,-0.3474860191345215
6.89690966796875,2.535981828413904,-2.656242238780856,3.266044115674496,1.7548213005065918,-0.9724074602127076,-0.5350008010864258
6.9068896484375,1.4752996395602822,-2.587641580763459,3.062623483800888,1.6388144493103027,-0.4535625874996185,-0.5649741291999817
6.916868896484375,0.2419592560391873,-1.9127514378875488,1.8108435535520315,1.4579644203186035,0.1258397996425628,-0.498331218957901
6.9268486328125,-1.03768249460347,-1.0037704342599958,0.2570364867269992,1.2230002880096436,0.4468342363834381,-0.3906108736991882
6.936828857421875,-3.181699652819335,0.8248796288132667,-1.636483011946082,0.8545018434524536,0.1801759004592895,-0.269401878118515
6.94680810546875,-5.164384750893712,3.546396596059203,-4.0905362064749,0.4120396673679352,-0.5500156283378601,-0.1012818589806556
6.956787841796875,-5.809896823593974,4.802269933101535,-6.735773067116737,-0.0190438237041234,-1.2220501899719238,-0.0140508171170949
6.96676708984375,-5.34777440212965,3.3512489947512742,-8.52593331360221,-0.4019050300121307,-1.548062443733215,-0.1435744613409042
6.976746826171875,-3.8391304191112514,0.5498851683303714,-9.951176544356343,-0.7789090871810913,-1.9180980920791624,-0.5112163424491882
6.986726806640625,-2.270708843739331,-1.6146932049423457,-12.95595106577873,-1.0755609273910522,-2.0793874263763428,-1.0693213939666748
6.996705810546875,-1.4618212954364715,-1.6534747710183262,-14.995368981683251,-1.2101807594299316,-1.684474229812622,-1.5696324110031128
7.006685791015625,-2.3008774797707794,0.1937684949744492,-15.417328319585325,-1.286400556564331,-1.0409902334213257,-1.712433099746704
7.016665771484375,-4.401541599276662,2.3121350791051984,-15.853830562102791,-1.386434555053711,-0.2315834462642669,-1.518041729927063
7.026644775390625,-5.544589352127909,3.684006200633943,-15.567304946041109,-1.4874058961868286,0.403146892786026,-1.073136329650879
7.036624755859375,-5.423060821521282,3.51969563613832,-15.206486597800254,-1.56519877910614,0.5871827602386475,-0.5911571979522705
7.046604736328125,-3.8296766543284058,2.2121944031894207,-15.23202435916066,-1.5058071613311768,0.4231443405151367,-0.230610966682434
7.05658349609375,-1.99484753729403,0.9395590241774916,-14.273341824579235,-1.3225198984146118,0.0598654448986053,-0.0081635098904371
7.06656396484375,-1.2762278505459428,0.7316944185070693,-13.057657874584198,-1.118693232536316,-0.2951370477676391,0.1096671149134635
7.0765439453125,-1.596377796050906,1.4597238847658038,-11.526526165425777,-0.9750243425369264,-0.5087018013000488,0.1702068895101547
7.086522705078125,-1.89864137173146,1.9577783280938863,-9.943545026564598,-0.9396761059761048,-0.5940883159637451,0.1963865756988525
7.0965029296875,-1.7656369228646158,1.9299986330255865,-8.515584938067198,-1.0153474807739258,-0.6228198409080505,0.205071672797203
7.106482666015625,-1.2532806902006268,1.4506322312936186,-7.116346501663327,-1.1518917083740234,-0.6812037825584412,0.2023161053657531
7.116462890625,-0.5919819964341819,0.7217769817352294,-5.679385945108533,-1.285136342048645,-0.7737448811531067,0.1931441724300384
7.126442626953125,0.0102167119793593,0.1222487346399575,-4.1197652235686775,-1.3341186046600342,-0.8087887763977051,0.1892050951719284
7.136421875,0.3824813139945268,-0.1096928391233086,-2.229846379736066,-1.239944338798523,-0.7536645531654358,0.1808957755565643
7.146401611328125,0.4864956690900027,-0.1173471532687544,-0.3984200568825006,-1.0891627073287964,-0.7214364409446716,0.2090624421834945
7.156381591796875,0.3177919842019677,-0.1218799743928015,0.5629308201253413,-0.9266861081123352,-0.633171558380127,0.259743720293045
7.16636083984375,0.2006377231568098,-0.3268952550467103,1.4421499418914316,-0.793880045413971,-0.4394090473651886,0.3630364239215851
7.176340576171875,0.0878466257572174,-0.8757274071928113,2.156461994573474,-0.6857120394706726,-0.1492888033390045,0.3953440189361572
7.186320556640625,0.6929881096243858,-1.5562730185471474,2.65617969493866,-0.5407269597053528,0.1748487651348114,0.2885809540748596
7.1962998046875,1.716346529994905,-1.8924260043479504,3.2156343633860347,-0.3542909920215606,0.444090336561203,0.1318360716104507
7.206279541015625,2.089932589872181,-1.931453069617599,3.7032793486416336,-0.1735938340425491,0.6663608551025391,0.0077548809349536
7.216259765625,2.0754351318337023,-2.022981160366535,4.214296441656351,0.00983059220016,0.9054147601127625,-0.1023923903703689
7.226239013671875,2.2279018215395507,-2.1733954475872217,4.975396548998355,0.1907877326011657,1.1040998697280884,-0.1629080772399902
7.23621875,2.0259268584296106,-2.4551488808110355,5.652080005031824,0.3359926044940948,1.2662312984466553,-0.181153118610382
7.24619775390625,1.90867045218423,-2.806366164752841,6.140751410725713,0.441382348537445,1.382091403007507,-0.2090089917182922
7.256177734375,2.1000348816916343,-3.025317543235421,6.535792346563935,0.4932245016098022,1.4476326704025269,-0.2695705890655517
7.26615771484375,2.351553189519048,-3.18094445053786,6.825868933105468,0.5156426429748535,1.47117018699646,-0.3581200540065765
7.27613671875,2.4732187905088066,-3.2798250960066917,7.131157701826095,0.5119291543960571,1.480507731437683,-0.4584122896194458
7.28611669921875,2.364263764140755,-3.2097081882074474,7.42199475134611,0.48115074634552,1.447069525718689,-0.5502159595489502
7.2960966796875,2.0423273736104366,-3.00581204777658,7.564815076306462,0.4377457201480865,1.340388298034668,-0.6341888904571533
7.30607568359375,1.6606304879918694,-2.6785090156465765,7.673964602333307,0.3929756581783294,1.1816020011901855,-0.6996311545372009
7.3160556640625,1.3589368211537598,-2.3162125576771797,7.736922870549559,0.3414983451366424,0.9929367303848268,-0.7184101343154907
7.32603564453125,1.043299457702413,-2.064849294281006,7.6075453800082204,0.2933754920959472,0.830325722694397,-0.6849329471588135
7.3360146484375,0.8188221554052084,-1.950313106779754,7.539842547613381,0.2701671123504638,0.7377241849899292,-0.6099372506141663
7.34599462890625,0.7306300772111862,-1.9021055407106875,7.480308408626914,0.2715192437171936,0.7099933624267578,-0.4892939031124115
7.355974853515625,0.5366828646689653,-1.8759996240735053,7.245643328183889,0.3058269023895263,0.761742889881134,-0.3545075953006744
7.36595361328125,0.4500606661401689,-1.816140637046844,6.98478406829834,0.3504950404167175,0.8572250604629517,-0.2299960404634475
7.37593359375,0.4783412234026938,-1.6985916775956749,6.555922111400961,0.3748355507850647,0.8603917956352234,-0.1069545298814773
7.385912841796875,0.5513999933401122,-1.7382706309027969,5.62413050635457,0.3748905658721924,0.733953595161438,0.0024601209443062
7.395892578125,0.6480835306234657,-1.7627368175089355,4.504427973255515,0.4002158939838409,0.59311443567276,0.1047814339399337
7.40587255859375,0.5604582925319671,-1.5669266606390475,3.833772691470384,0.5044305920600891,0.5164280533790588,0.1973096281290054
7.415851806640625,0.3123447151141241,-1.2773514477483927,3.62090910846889,0.7000850439071655,0.5484355092048645,0.2817017436027527
7.42583154296875,-0.1179010608244687,-1.1309454463209956,3.8540006559848794,1.0822809934616089,0.6919370293617249,0.3039151728153229
7.4358115234375,-0.0035036059404723,-1.1539474786587058,4.24219976310432,1.152134895324707,0.2804418802261352,0.2857148647308349
7.445790771484375,0.114745281940978,-1.2859212693035602,0.7580266912460327,1.2277812957763672,-0.1465468108654022,0.1668378710746765
7.455770751953125,0.4196990648198873,-0.7063944114252925,0.2392874795466661,1.282681226730347,-0.4165250360965729,0.0054798661731183
7.465750732421875,0.0613503946281969,0.000666985141905,-0.1164735853046178,1.2682088613510132,-0.4693946838378906,-0.1541890054941177
7.475729736328125,-0.5401893018873408,0.8178664621155709,-0.7995312525451183,1.1846444606781006,-0.4158203899860382,-0.2374889552593231
7.485709716796875,-1.278655662214756,1.5119659670479595,-2.0060522373974323,0.9763187170028688,-0.2819240689277649,-0.2524089515209198
7.495688720703125,-1.413593563362211,1.6627637006282805,-3.8595828400313854,0.694096565246582,0.0090449294075369,-0.2409773021936416
7.505668701171875,-0.8571550278656184,1.292554569838196,-5.307251253083348,0.2815240621566772,0.3346633911132812,-0.2269833236932754
7.515648681640625,-0.0989659491321072,0.5548683270378038,-7.175042436259985,-0.2183891087770462,0.5638747215270996,-0.2252834290266037
7.525627685546875,0.6507675090104341,-0.1713582910500466,-9.088980453583597,-0.6147342324256897,0.5751734375953674,-0.2457371652126312
7.535607666015625,1.0509079599447548,-0.1084334501793608,-10.279756172293425,-0.8009024858474731,0.2177156955003738,-0.2282391339540481
