seconds_elapsed,ax,ay,az,gx,gy,gz
0.07764111328125,-0.6814335731700062,0.1971338066890835,2.304360061189532,0.5626497268676758,0.550822377204895,0.0385789945721626
0.08762109375,-0.5133541576601565,0.5741647463232279,3.123942752638459,0.8040817975997925,1.0692282915115356,-0.1097383126616478
0.097600830078125,-0.3560565406665206,1.1497168553516268,4.875063366633653,1.0781002044677734,1.1037540435791016,-0.2502332031726837
0.107581787109375,-0.7437807968158274,1.3428086931735277,3.6768998757600784,1.1527844667434692,0.6602381467819214,-0.2149415165185928
0.117561767578125,-1.307830026511848,0.630966829997301,0.7088099481344222,1.1024752855300903,0.3611457645893097,-0.0805184841156005
0.127541748046875,-0.9742919724497944,0.2550122874230146,0.3163210348665714,1.0232925415039062,0.2990778684616089,0.065146304666996
0.137522705078125,-0.5943398846719413,0.3591901625171304,0.9113304162979126,0.931990921497345,0.4598853886127472,0.1581808775663375
0.1475029296875,-0.5289774779234081,0.6316811157464981,1.395469439259171,0.7618175745010376,0.5187612771987915,0.1726160049438476
0.15748388671875,-0.6644166796565055,0.8964894055187702,0.5072849207490683,0.5193949937820435,0.524089515209198,0.1107187271118164
0.1674638671875,-0.477368798173964,1.10717009152323,-0.1725456011384725,0.2808333039283752,0.6710813641548157,0.0633932948112487
0.17744384765625,-0.700009386563301,1.03715781314224,0.3466296638906002,0.1331260502338409,0.8954071998596191,0.021080408245325
0.18742529296875,-0.6821005126461386,1.0879515963122248,1.062273841959238,0.0651605948805809,1.1123498678207395,-0.0647301077842712
0.1974052734375,-0.4733770981892943,1.343477386215329,1.3369400934010742,0.068944051861763,1.219976782798767,-0.1876197457313537
0.207386474609375,-0.318022906881012,1.6304916625767945,1.2844324920505283,0.1560704261064529,1.150566816329956,-0.3132224082946777
0.217366455078125,-0.0454919869674369,1.7678119288161396,1.049431311520934,0.3163791596889496,0.9599497318267822,-0.4165627360343933
0.22734619140625,0.2704923998232931,1.7069731369718908,0.7411047825396061,0.5199756622314453,0.7516505718231201,-0.4546195566654205
0.2373271484375,0.1953003076516091,1.390761115437746,0.4191162234306335,0.7040044069290161,0.5376082062721252,-0.4070737957954407
0.247307373046875,-0.1062690021544694,0.9805421919509768,0.0687619860589504,0.7308222055435181,0.289815753698349,-0.2973454296588897
0.25728759765625,-0.2634470844216645,0.5997030922055244,-0.7294827338069677,0.5508321523666382,0.1424543857574463,-0.1921091675758361
0.2672685546875,0.0274769857946783,0.4721101469933986,-1.312799923878908,0.2145928740501403,0.1718253195285797,-0.124206006526947
0.277248291015625,0.2000821351006627,0.5384498743414878,-1.397089733937383,-0.1595255583524704,0.4232523441314697,-0.1034236028790474
0.2872294921875,0.1043607573803514,0.7297372930899262,-0.9505570957928896,-0.4681592881679535,0.7263719439506531,-0.1273220181465149
0.29720947265625,0.0723195324100554,0.8324109011009335,-0.7679056957036257,-0.6931013464927673,0.9202945828437804,-0.1723752468824386
0.307189453125,0.0906211319718509,0.7750161122307181,-0.9169219526946544,-0.8285097479820251,0.9729061126708984,-0.2308854311704635
0.31717041015625,0.2096340264957398,0.834110983017087,-0.9395447033911944,-0.9227737188339232,0.9179276823997498,-0.3088862597942352
0.327150146484375,0.4894337683685124,0.906601634210348,-1.1062053381443022,-1.0265486240386963,0.84432452917099,-0.3837626278400421
0.337130615234375,0.7862510613419115,0.823383252775669,-1.0477665931791067,-0.8932089805603027,0.183294877409935,-0.3583925366401672
0.347111572265625,0.3209726600646972,0.533740381476283,-0.1884837595045566,-0.4838046729564667,-0.2014727741479873,-0.2694999575614929
0.357091552734375,0.7371918468795716,0.2073915813311934,1.726620963510871,-0.4299749732017517,0.0143929366022348,-0.256012350320816
0.367072265625,1.642884841812402,0.49468350559026,0.5910124207496643,-0.6060512065887451,-0.1032098606228828,-0.3038078248500824
0.377052490234375,1.7394775224745274,0.9408683532103896,-1.0703408285588023,-0.8440039157867432,-0.1306440234184265,-0.2961407005786896
0.387032470703125,1.1834751864381134,1.020685986290872,-0.5732043768584728,-1.1397827863693235,-0.0942924097180366,-0.2020791918039322
0.397013427734375,0.589087444036454,0.6724065093666315,-0.7168845335185527,-1.5015772581100464,0.1051126271486282,0.0060081640258431
0.4069931640625,-0.0645109044857323,0.3243395061492919,-1.184580955722928,-1.8186039924621584,0.3038156032562256,0.1968971490859985
0.416973388671875,0.0053809623859822,0.2647948457688093,-1.1971376549571753,-2.052701950073242,0.4946021437644958,0.3011302649974823
0.426954345703125,0.2980100098893046,0.0941376887254416,-1.0758709901571273,-2.157399654388428,0.6602816581726074,0.2911042869091034
0.4369345703125,0.5731299964480102,-0.27369433766976,-0.7172171264737844,-2.1126532554626465,0.7375637292861938,0.1719511598348617
0.44691552734375,0.8183402901723981,-0.585277968750894,-0.2338672080636024,-1.9785069227218628,0.7532622814178467,0.0386309251189231
0.456895263671875,0.8396843992352485,-0.5515566086739301,0.0557727406263351,-1.8622905015945437,0.6320670247077942,-0.0361435823142528
0.466875244140625,0.8388099544882773,-0.423543830614537,-0.4223942221879959,-1.805411458015442,0.3781916201114654,0.0225964318960905
0.4768564453125,0.7495752353735268,-0.5298388439930976,-1.1087567761927843,-1.8034502267837524,0.1607697010040283,0.2184115946292877
0.48683642578125,0.5124857042625546,-0.7659758236195892,-1.4771820923060175,-1.8132301568984983,-0.1662939190864563,0.454580157995224
0.496816162109375,0.382028747921437,-0.5720188934009521,-1.482870074814558,-1.820898413658142,-0.6295522451400757,0.6524332165718079
0.50679736328125,0.0808491680853068,-0.4522260274805128,-1.528741599151492,-1.8530672788619995,-0.9867079854011536,0.7411103248596191
0.516777587890625,-0.0085131229318678,-0.380171137356013,-1.3402449801653622,-1.839146852493286,-1.243949055671692,0.7201424241065979
0.52675830078125,0.1052757533334195,-0.2969998099334537,-0.9579980594485996,-1.7524092197418213,-1.316646933555603,0.633692741394043
0.536738525390625,0.2878800994105637,-0.3571241698980331,-0.6106517717212439,-1.558963656425476,-1.199791669845581,0.542736828327179
0.54671826171875,0.600176043479517,-0.4772264670938253,-0.2958966709971428,-1.297389268875122,-0.9082262516021729,0.4354673624038696
0.556699462890625,0.9335672364167868,-0.5632470830002799,-0.0779763891279697,-1.038859248161316,-0.5591289401054382,0.3026168942451477
0.566679443359375,1.224245807439461,-0.7419509510401636,-0.3703203360795974,-0.9001786112785339,-0.2192882895469665,0.1599590480327606
0.576659423828125,1.3506215588815509,-1.1434445701491087,-0.9139046507000924,-0.873481035232544,0.1895104199647903,0.0164532698690891
0.58664013671875,1.3078627597376704,-1.523243293996155,-1.1070885507196186,-0.8957018852233887,0.570344865322113,-0.1284597069025039
0.5966201171875,1.0997422796100378,-1.6783868016958237,-1.3940736009866,-0.9068787097930908,0.8832646608352661,-0.2566086053848266
0.606601318359375,0.8196827177572995,-1.680813444320857,-1.6051923861473798,-0.8750696182250977,1.0406049489974976,-0.3546416759490967
0.61658154296875,0.5597217218857258,-1.6273786451227965,-1.8401573263198137,-0.8588831424713135,1.0495789051055908,-0.4111489951610565
0.6265615234375,0.2927867222830653,-1.4896408841237423,-2.2082009496390818,-0.8520111441612244,0.9465217590332032,-0.4161618649959564
0.636542236328125,0.0843099760636687,-1.368164668226242,-2.521124158760905,-0.9219783544540404,0.6587485074996948,-0.3825873136520386
0.6465224609375,-0.0281229555480182,-1.2476380081385374,-3.1890503078430887,-0.9692611694335938,0.4675298035144806,-0.3357265889644623
0.65650244140625,0.1191695463903248,-1.2753240335740148,-2.702736278930306,-0.9733600616455078,0.3026126325130462,-0.2640895843505859
0.6664833984375,0.142894851501286,-1.2233279619421809,-2.44675777682364,-0.9471135139465332,0.1547842770814895,-0.1774857342243194
0.676463134765625,0.335446444966644,-1.0662842466443776,-2.321109535938501,-0.865934431552887,0.1305284947156906,-0.0837110430002212
0.6864443359375,0.4332447020262479,-0.9923990723527968,-1.920032827067375,-0.7270106673240662,0.1720442473888397,0.0053932648152112
0.696424560546875,0.5412463731922209,-0.9980107016894966,-1.4525368958711624,-0.5402348637580872,0.2393376380205154,0.0679252445697784
0.706404541015625,0.6123169284544885,-1.0917767075583338,-1.0034025507956743,-0.3662268817424774,0.2756836414337158,0.1113563403487205
0.716385498046875,0.527668075825274,-1.1874513235274702,-0.945220410940051,-0.2282844632863998,0.2865304946899414,0.1257117837667465
0.726365234375,0.4920125328153371,-1.2893822234123944,-0.9537503388762474,-0.1476825624704361,0.2839858531951904,0.1274186074733734
0.736345458984375,0.311958601873368,-1.3874518447592854,-1.001778748986125,-0.149651363492012,0.2556529343128204,0.1277079582214355
0.746326416015625,0.1320408645316958,-1.3741153933241963,-1.044630633240938,-0.2005166709423065,0.2034576386213302,0.1306875050067901
0.756306396484375,-0.0638341742679476,-1.4317856381349263,-1.0722697507947685,-0.2606186270713806,0.131748616695404,0.1448029726743698
0.766287353515625,-0.2617370656333863,-1.5770542330302295,-1.0904004507690668,-0.3009969294071197,0.0608757808804512,0.1603755354881286
0.776267333984375,-0.4115954725369811,-1.6941574945405125,-1.129041439330578,-0.3050260543823242,-0.0032058302313089,0.1790715306997299
0.78624755859375,-0.5537867058135568,-1.7009890941262245,-1.1073954247117042,-0.2772141098976135,-0.0519645810127258,0.1971381604671478
0.796228515625,-0.6429468983873724,-1.6879954647794364,-1.012040030759573,-0.2394823729991912,-0.1103768795728683,0.2043074965476989
0.80620849609375,-0.7010518813535571,-1.6611084807671606,-1.029662196689844,-0.1936392486095428,-0.1255451738834381,0.2055195122957229
0.816188232421875,-0.7519245749786496,-1.5824134219758212,-0.877265065088868,-0.1430586576461792,-0.1115705668926239,0.1899867355823516
0.82616943359375,-0.7937374715745449,-1.5156731510028243,-0.6675228289783001,-0.0899762585759162,-0.1021616160869598,0.1776064932346344
0.8361494140625,-0.7828308776348829,-1.3713866990126669,-0.5680430485725403,-0.0115416925400495,-0.1275216490030288,0.1512814462184906
0.84613037109375,-0.7900783645451068,-1.087575310345739,-0.5118003523468971,0.0720882192254066,-0.171552762389183,0.1192609295248985
0.856110107421875,-0.9631852528281508,-0.698863285268098,-0.451959923890233,0.1579641997814178,-0.1909892112016677,0.0558938458561897
0.866090576171875,-0.981735493388772,-0.4480911196328699,0.1183259351730346,0.3370695114135742,-0.1090730279684066,-0.0107608139514923
0.8760712890625,-1.1740284359179436,-0.4704049505107104,0.8226607837200164,0.4647638201713562,-0.1131231635808944,-0.1016326695680618
0.886051513671875,-1.260176441063732,-0.2683637902967631,0.5472872607916593,0.5441049933433533,-0.1221896260976791,-0.196620687842369
0.89603125,-1.376696788119525,-0.0245710352201014,0.6185059923529624,0.5883206725120544,-0.1164556890726089,-0.2771607041358948
0.906012451171875,-1.538492008793354,0.1133160711217671,0.7709890486717224,0.6014295816421509,-0.1212182193994522,-0.3355249464511871
0.915992431640625,-1.607261155245453,0.1982761085920035,0.8849673100292682,0.6039841175079346,-0.1405127942562103,-0.3807342648506164
0.925973388671875,-1.698039888931811,0.3238235194511711,1.058774893927574,0.6193132996559143,-0.1540951877832412,-0.4119214713573456
0.935953369140625,-1.759886688774824,0.4580222926691174,1.321276660323143,0.6254445314407349,-0.1735636442899704,-0.459837406873703
0.94593310546875,-1.6333241095237434,0.5324620321035385,1.384884916880727,0.6238487362861633,-0.1254080981016159,-0.4964002072811126
0.955914306640625,-1.7386545156538489,0.5447784928411245,1.651428067621589,0.6439210176467896,-0.1020820513367652,-0.5143818259239197
0.96589453125,-1.882417382161319,0.5533722797937691,1.807916267928481,0.6611855030059814,-0.1138827875256538,-0.5530029535293579
0.97587451171875,-1.8845723682381208,0.6545291996315121,1.95167299695611,0.6929165720939636,-0.1038253828883171,-0.6069684028625488
0.98585546875,-1.9505108213089408,0.6389820133443922,2.2714064706146715,0.7198001146316528,-0.0806774571537971,-0.6654503345489502
0.99583544921875,-1.982793380754441,0.5422470016021281,2.430647769021988,0.7543551325798035,-0.0369955711066722,-0.7297861576080322
1.00581640625,-1.939789082416892,0.4692387197429314,2.6026743147224187,0.7899740934371948,0.0128135317936539,-0.7798327803611755
1.01579638671875,-1.891660426802933,0.5132252705834806,2.715164967870712,0.8403358459472656,0.0048558833077549,-0.8488162755966187
1.0257763671875,-1.7205214775919913,0.6353550550188869,2.8179841218322514,0.9031593203544616,-0.0316107794642448,-0.9295931458473206
1.03575732421875,-1.5241589475363493,0.7081186048693955,3.0373814905166623,0.9768386483192444,-0.0638549774885177,-1.0113533735275269
1.0457373046875,-1.3947164289347826,0.8540330233875661,3.295138692733645,1.0379595756530762,-0.0532923452556133,-1.0776028633117676
1.05571826171875,-1.2585707594327629,1.0270385701879858,3.588656359639764,1.080210566520691,-0.06287582218647,-1.1459267139434814
1.065698486328125,-0.976138404034078,0.9813184370204806,3.8552509483069177,1.087755799293518,-0.0616688728332519,-1.2141082286834717
1.07567822265625,-0.7777046206623315,0.9286418357785792,4.085057482802868,1.0473071336746216,-0.0445082746446132,-1.2358858585357666
1.085659423828125,-0.7760977699875831,0.6833315888110548,4.2621167619735,0.971663534641266,0.0124298417940735,-1.221505641937256
1.095639404296875,-0.6805144124984741,0.5841899543184786,4.441142372781038,0.8878275156021118,0.0403445772826671,-1.2021445035934448
1.105619384765625,-0.4410781721308827,0.6783310771100223,4.38901120352745,0.7926524877548218,0.0751366466283798,-1.15208101272583
1.115600341796875,-0.2976115120910108,0.7501183292742818,4.232093964153528,0.6837025284767151,0.1096227839589119,-1.0659794807434082
1.125580322265625,-0.1691070049919188,0.688451927499473,3.972175784510374,0.5596325397491455,0.1366618573665619,-0.9466075897216796
1.135561279296875,-0.0882030379794538,0.5634195534903556,3.572892973318696,0.4461973905563354,0.1916432678699493,-0.790005624294281
1.14554150390625,-0.0296621478140354,0.5085847147686406,3.227352858230472,0.3830687701702118,0.1315967142581939,-0.6139048933982849
1.155521484375,0.042881987132132,0.6175672501981258,2.8053502657085656,0.3503991663455963,-0.0892036035656929,-0.4388481080532074
1.165502685546875,0.077226155282557,1.037285019718483,2.0552806709468365,0.2843075096607208,-0.4484419226646423,-0.2594908773899078
1.175482421875,0.1270240592829883,1.7062511063076555,0.993406641960144,0.1433750391006469,-0.823339581489563,-0.0540791377425193
1.18546142578125,0.3720784317933023,2.0147811950370667,0.0097463179886341,-0.0412946753203868,-1.162400484085083,0.1776981651782989
1.1954423828125,0.7344896021835505,1.6313590930610895,-0.7959311822265386,-0.2674402296543121,-1.3921509981155396,0.416696548461914
1.20542236328125,1.313072311079502,1.2640392539717256,-1.6961323017448189,-0.5273953676223755,-1.5427721738815308,0.6248494982719421
1.2154033203125,2.103397343862057,1.2763403710097074,-2.8854975691348312,-0.8087068796157837,-1.614154577255249,0.8023042678833008
1.225383544921875,2.8535628002136946,1.3126219369634986,-4.256553282627463,-1.0916123390197754,-1.579087734222412,0.9208471775054932
1.235363525390625,3.44434901099205,1.2410614062272012,-5.7119157573133705,-1.380767822265625,-1.3815027475357056,0.9655919671058656
1.245344482421875,3.9080481802538034,1.3159559036917985,-7.475760828325152,-1.6398613452911377,-1.01032817363739,0.9429812431335448
1.25532421875,4.179648029862344,1.5225114725902675,-9.334470879423618,-1.7647709846496582,-0.6457273364067078,0.8687880039215088
1.26530419921875,4.245046092446148,1.389934893746674,-11.056715527546404,-1.75945246219635,-0.4595580101013183,0.7588010430335999
1.275285400390625,4.064733072176575,1.315909726462513,-12.872054638952015,-1.592360258102417,-0.2915964722633362,0.6704370975494385
1.285265625,3.59017377846539,1.693101701877266,-13.681464311432835,-1.2152153253555298,-0.1601004898548126,0.649772047996521
1.29524609375,3.028342444014549,2.33981715901792,-14.34241711437106,-0.807165801525116,-0.2788633406162262,0.6794676780700684
1.305226318359375,2.653655437158048,2.7887372768208385,-15.399479359161854,-0.4328247010707855,-0.3572934567928314,0.7333143949508667
1.31520654296875,2.3764821713313458,2.7836098508045075,-15.15684782988429,-0.1222580894827842,-0.3898904323577881,0.7619240283966064
1.3251875,2.3135341322481637,2.6734420876458285,-14.463673842298984,0.1142151653766632,-0.3669962882995605,0.7399671077728271
1.33516748046875,2.2611406587965783,2.6439099959522485,-13.431209447669982,0.2664019167423248,-0.2867128849029541,0.6574979424476624
1.345147216796875,2.193938907791674,2.84111248396337,-12.241777544784544,0.3143135011196136,-0.1672637015581131,0.5141322612762451
1.35512841796875,2.0895330691605807,3.140284231108427,-11.133291402226686,0.241128608584404,-0.0255719553679227,0.3259137868881225
1.3651083984375,1.9992852274805304,3.2131440078750253,-10.030959106123449,0.071178451180458,0.1215474531054496,0.1029963120818138
1.37508935546875,1.9953052179336543,3.048217941829562,-8.986126228308677,-0.1805081814527511,0.2817863225936889,-0.1404319703578949
1.3850693359375,2.073340351511538,2.62171336171329,-7.961032654708624,-0.4986142516136169,0.4763957560062408,-0.403952032327652
1.39504931640625,2.2729750351056457,2.11205382078737,-7.044173830378055,-0.8478851318359375,0.7224661111831665,-0.6677597761154175
1.405030517578125,2.5087311256557703,1.7480369687661528,-6.121081664615869,-1.169652223587036,1.019675612449646,-0.9071518778800964
1.415010498046875,2.639547124567628,1.295871585431695,-5.07367396787703,-1.3775591850280762,1.3253116607666016,-1.09278666973114
1.424990234375,2.641625392146409,0.4332878105156123,-3.624612054640055,-1.4237821102142334,1.6038216352462769,-1.2104665040969849
1.43497119140625,2.4976743095904586,-0.7092223283275961,-1.8659288964360952,-1.3240368366241455,1.8210517168045044,-1.235620379447937
1.444951416015625,2.103690335459262,-1.7394655397757888,-0.1869949822515249,-1.1753674745559692,1.91568660736084,-1.1761157512664795
1.454932373046875,1.478002468778193,-2.3541423292294144,0.8603805657833814,-1.0381642580032349,1.8953920602798464,-1.0828267335891724
1.464912353515625,0.9353775007091462,-2.7732050689071417,1.753825781300664,-0.9166873693466188,1.7765580415725708,-0.9593572616577148
1.474892333984375,0.4140831976994872,-3.24261004859507,2.673092251294851,-0.78363436460495,1.6197378635406494,-0.8021933436393738
1.48487353515625,-0.0024120295777916,-3.75573025136888,3.702520639228821,-0.6322001218795776,1.428717851638794,-0.6215060949325562
1.494853515625,-0.3936896673597395,-4.101908079838752,4.688023376196623,-0.4548091292381286,1.23063063621521,-0.4186542630195617
1.50483349609375,-0.7254138769328594,-4.258213324794173,5.607747526830434,-0.2603712081909179,1.034142255783081,-0.205143317580223
1.514814453125,-1.0239740680508316,-4.359276282738149,6.40083091841042,-0.0704831033945083,0.8521220684051514,0.0011484902352094
1.524794189453125,-1.3242647362232207,-4.423086783869564,7.093470652988553,0.1132196113467216,0.708682656288147,0.1966063976287841
1.534775390625,-1.600901264824718,-4.392608935758472,7.671537667447328,0.2769317626953125,0.5809544920921326,0.3688849806785583
1.54475537109375,-1.779341476959735,-4.403841692912579,8.171483331349492,0.4258301854133606,0.473621666431427,0.5176441073417664
1.554735595703125,-1.951590871630609,-4.352806502202153,8.647423850286007,0.5535691380500793,0.3850322365760803,0.6406508088111877
1.56471630859375,-2.19840830829069,-4.056887034851313,9.05133841293156,0.6942964196205139,0.3201198279857635,0.7501379251480103
1.574696533203125,-2.525319272363186,-3.99503906596452,9.60343745791912,0.874876081943512,0.2438110113143921,0.848439633846283
1.584676513671875,-2.791248382858932,-3.9124475842565296,10.30395304043889,1.0801565647125244,0.1351210325956344,0.9240393042564392
1.594657470703125,-3.051239335477352,-3.5266637215852734,10.832130527091026,1.2614344358444214,0.0151675846427679,0.95628023147583
1.60463720703125,-3.2043881622284647,-3.041382250590622,11.13718197992444,1.4042975902557373,-0.0248623900115489,0.971530020236969
1.6146171875,-3.424671958358586,-2.550571787041425,11.563829183381795,1.513302206993103,-0.0175188034772872,0.983012557029724
1.624598388671875,-3.632401101081073,-2.166564870914817,11.949808860886096,1.5704541206359863,-0.0425365380942821,0.9583929777145386
1.634578369140625,-3.633139644488692,-1.772037145295739,12.120279993838071,1.5695674419403076,-0.0743471607565879,0.8976587653160095
1.644559326171875,-3.6052182028621433,-1.4247028402671218,12.2493973721385,1.4986088275909424,-0.0925541296601295,0.8061439990997314
1.654539306640625,-3.594250818645954,-1.1954773205295204,12.198380301606656,1.36305832862854,-0.0946478247642517,0.7055342793464661
1.66451953125,-3.6137767723709344,-1.043499729514867,12.13874620937705,1.1758742332458496,-0.090135633945465,0.5937920212745667
1.67450048828125,-3.5230592673525214,-0.9041108403079212,11.932837852340937,0.9323930144309998,-0.0687978118658065,0.4697853028774261
1.68448046875,-3.401960652595758,-0.7906921125292777,11.70128885809183,0.6649392247200012,-0.0203053746372461,0.3643619418144226
1.694460205078125,-3.354671662676334,-0.8156665409184992,11.430365300309658,0.385957807302475,0.0331700518727302,0.2705811858177185
1.70444140625,-3.2917461276859044,-0.9171473589483649,11.029326000839472,0.1289302706718444,0.0616110153496265,0.1824271082878112
1.71442138671875,-3.2014158684194087,-1.1013337135199457,10.514634603226185,-0.1007263585925102,0.0605894289910793,0.0894910469651222
1.72440234375,-3.1325235339790583,-1.3586853306107225,9.673035894802211,-0.2813640236854553,0.0559896118938922,-0.0043286606669425
1.734382568359375,-3.168774412533641,-1.619775476642698,8.781209804919362,-0.411931037902832,0.0210247114300727,-0.0838458836078643
1.7443623046875,-3.2756355353623627,-1.8505263062514363,7.779463204637169,-0.5273513793945312,-0.0110032623633742,-0.1387267112731933
1.754343505859375,-3.3476965629667044,-2.225681661272049,6.439453202271461,-0.6222131252288818,-0.0060308892279863,-0.164008617401123
1.764323486328125,-3.3948788776412604,-2.8086016687199478,4.9480415090829135,-0.6397383213043213,-0.059597447514534,-0.1628592014312744
1.774303466796875,-3.348392144015431,-3.3174607069179416,3.25801629204154,-0.547309398651123,-0.2013869136571884,-0.1502500921487808
1.7842841796875,-3.1373791573166847,-3.74663830563575,1.2701280723661184,-0.35647714138031,-0.2383031100034713,-0.1031853705644607
1.79426416015625,-2.924220975282788,-3.704792383553088,-0.8850275157839059,-0.1157141774892807,-0.2293090522289276,0.029179573059082
1.804245361328125,-3.020254999148845,-2.4465438418120145,-4.0591806987464425,0.0111755998805165,-0.4796153306961059,0.2875653207302093
1.814225341796875,-3.7123511283695696,0.2907596734348684,-8.834454488372803,0.0353225953876972,-0.9491081237792968,0.5545604228973389
1.824205322265625,-4.3311791922837495,3.5884938625544307,-12.524267621719837,0.0371087789535522,-1.6739568710327148,0.7159340977668762
1.834186279296875,-4.253752838253975,6.206967219433188,-15.010005409801003,-0.1068913042545318,-2.634758472442627,0.7527911067008972
1.84416650390625,-3.2001258286088703,7.679860090112686,-18.54787207792401,-0.6766424179077148,-3.274517774581909,0.7110588550567627
1.8541474609375,-1.3432866859488188,7.815794747212529,-22.89059499300718,-1.5890182256698608,-3.100903034210205,0.4226647317409515
1.86412744140625,1.0146363308630884,6.7948881039083,-25.97917826297283,-2.416938781738281,-2.110439777374268,-0.1845583617687225
1.874107177734375,3.0068624336123464,4.83629553682208,-27.49945423159599,-2.6854021549224854,-0.670159101486206,-1.0495924949645996
1.88408837890625,3.9222546925216912,3.3034894647106525,-27.86146032831669,-2.364501714706421,0.5257341861724854,-1.9490714073181152
1.894068359375,3.9420278990060087,3.1674265050560235,-27.409811954593657,-1.3030949831008911,1.672492742538452,-2.643113136291504
1.904048583984375,3.1058325109303,4.076204314261675,-23.845699084579945,0.1545068770647049,2.2834980487823486,-2.901152372360229
1.914029541015625,2.127110227882862,5.139927185985446,-20.91833162796497,1.5080145597457886,2.205080986022949,-2.7865114212036133
1.92400927734375,1.6026006160885096,5.581390850302577,-18.42566374835968,2.335556983947754,1.8529819250106807,-2.394246816635132
1.933989501953125,1.2466162638753653,4.551441361103952,-15.31307884055972,2.533656358718872,1.3612890243530271,-1.8805495500564573
1.943970458984375,1.046397204522043,3.73642700048387,-12.481464252781867,2.372350215911865,0.8196712732315063,-1.3080365657806396
1.953950439453125,0.6955673124626278,3.431003791728616,-9.49040027680397,2.002168893814087,0.2055521756410598,-0.7713736295700073
1.96393115234375,0.541302195032686,3.105232791471481,-7.052192301660776,1.5333921909332275,-0.3753831386566162,-0.3256856501102447
1.973911376953125,0.525732139326632,2.6662355172678827,-4.780553775855899,1.044405817985535,-0.8331820964813232,0.0141928438097238
1.983891357421875,0.6426949694529175,2.017210029619187,-2.68314661231935,0.5515418648719788,-1.1240564584732056,0.2433024644851684
1.993872314453125,0.9086419809315354,1.3567203141480684,-1.011954106041789,0.0751489847898483,-1.2302000522613523,0.334513396024704
2.003852294921875,1.233352585415542,0.9141746998131276,0.3350830184817314,-0.3457061052322387,-1.1299890279769895,0.2928168177604675
2.013832275390625,1.57413966075778,0.5799648109041154,1.7539099524527788,-0.6950982213020325,-0.7649246454238892,0.1625542193651199
2.0238134765625,1.8441613012641669,0.2570011596852913,3.264036867505312,-0.9134851694107056,-0.3307849168777466,-0.0142511781305074
2.03379345703125,2.104606135129929,-0.1401332778334617,4.595377241203189,-1.0307008028030396,0.0829217955470085,-0.2036896347999572
2.0437744140625,2.0623542625948788,-0.5563989341385662,5.550256876370311,-1.0655767917633057,0.4278179407119751,-0.3692887127399444
2.053754150390625,1.778470539344102,-0.9998200891990214,6.181942668291926,-1.0286238193511963,0.6930957436561584,-0.4983795881271362
2.063734375,1.3736492371171711,-1.484072436341643,6.754901545956731,-0.90600848197937,0.8582071661949158,-0.5954573750495911
2.07371533203125,0.9685459761437027,-1.879250734823942,7.34329413959682,-0.7027705907821655,0.907995879650116,-0.654137372970581
2.083695556640625,0.5268818208184093,-2.2056141480162736,7.934190825012326,-0.4334400296211242,0.8363986611366272,-0.6552209854125977
2.09367529296875,0.1339979899488389,-2.5830805564582344,8.49409499079287,-0.1451958864927292,0.6794723272323608,-0.6030402779579163
2.103656494140625,-0.0358178939647972,-3.0633573510333894,8.997807898274063,0.1029726341366767,0.5030530691146851,-0.5054492950439453
2.113636474609375,0.0003520283080637,-3.589785948191583,9.365375136253236,0.28118696808815,0.4023222923278808,-0.3604838848114013
2.123617431640625,0.1346463708549737,-3.964920698815584,9.60418389237225,0.4137465953826904,0.3854109644889831,-0.1784272491931915
2.133597412109375,0.2904970039106905,-4.146517036893964,9.861263049197197,0.5314608812332153,0.3931611478328705,0.0181274842470884
2.1435771484375,0.3355129343315959,-4.104834780940413,10.128602318751811,0.650738537311554,0.4239235818386078,0.211966186761856
2.153558349609375,0.2944314207501709,-3.840459621888399,10.34591469785571,0.7707482576370239,0.4858225584030151,0.3841081857681274
2.163538330078125,0.1960834208533167,-3.451119528040289,10.470423705577849,0.892084002494812,0.5472265481948853,0.5316848754882812
2.1735185546875,-0.0350800812095403,-3.0932796110883354,10.598133555167912,1.0091631412506104,0.5661351084709167,0.6551086902618408
2.18349951171875,-0.3330179026454687,-2.735933322872221,10.716834753394126,1.0915738344192505,0.5282430648803711,0.7540978789329529
2.193479248046875,-0.6883524126477539,-2.324626019626856,10.747031154215335,1.1385154724121094,0.4669509530067444,0.8421376943588257
2.20346044921875,-1.0156995761804282,-1.963948979552835,10.816689796853066,1.150354027748108,0.389722466468811,0.9293181896209716
2.2134404296875,-1.3172149638421833,-1.7262531531117855,10.81341647427082,1.1267410516738892,0.2783107161521911,1.0156939029693604
2.223420166015625,-1.5391621631398795,-1.5152539026774463,10.663042372930049,1.079840064048767,0.1401491314172744,1.0892183780670166
2.233401123046875,-1.7127213252350686,-1.275013214059174,10.49860467492342,1.0182876586914062,-0.0250453744083642,1.1535704135894775
2.24338134765625,-1.82036322317794,-1.035004945957288,10.336696787655352,0.9333955645561218,-0.19971464574337,1.2019166946411133
2.253361572265625,-1.7967776187986135,-0.8731826911460607,10.184029022419452,0.8347680568695068,-0.3469178378582001,1.258184790611267
2.263342529296875,-1.7599943869329988,-0.8171693466968833,10.028094948863982,0.7175642251968384,-0.4145565330982208,1.3497695922851562
2.273322265625,-1.7198725121639669,-0.7664439525879919,9.884237097549438,0.6156250238418579,-0.4964430630207062,1.4457051753997805
2.283303466796875,-1.4888149546936154,-0.7034207293767482,9.50312122668922,0.4783014953136444,-0.5584031343460083,1.5402743816375732
2.293283447265625,-1.32952061092481,-0.6031693070113658,8.742485814249514,0.321978360414505,-0.5531805157661438,1.628032684326172
2.303263427734375,-1.150458613629639,-0.4989312261626124,8.0476687356323,0.2060674875974655,-0.572594940662384,1.6842355728149414
2.313244384765625,-0.9868763634085654,-0.610635551238805,7.480380304819345,0.1328003704547882,-0.6685132384300232,1.6891499757766724
2.32322412109375,-0.9551214810989797,-0.7820468145851045,6.521462792438268,0.0814090892672538,-0.7516449093818665,1.6597700119018557
2.333204345703125,-1.156835601315647,-0.93236779749915,5.258771007552743,0.0656816139817237,-0.8466262221336365,1.6095114946365356
2.343185302734375,-1.263562137979269,-0.9319225379496812,3.741657886874676,0.1432469934225082,-1.0036094188690186,1.525201678276062
2.35316552734375,-1.366167064668238,-0.7093690433219075,2.0841057834148407,0.3666195273399353,-1.2161273956298828,1.3921265602111816
2.363146484375,-1.3853592563942074,0.1008936657916754,0.7356763277500867,0.7102115750312805,-1.512881636619568,1.2796250581741333
2.37312646484375,-1.3762579583108423,1.3809241965562105,-0.7454957109749317,1.0169981718063354,-1.9106824398040767,1.302848219871521
2.3831064453125,-1.292010087697953,2.860020598050952,-2.8083471094369887,1.0240262746810913,-2.549043655395508,1.5188322067260742
2.39308740234375,-0.9877472279589624,4.257925740024447,-6.234684078398346,0.4681372046470642,-3.036921739578247,1.9395782947540283
2.4030673828125,-0.8453495123248547,5.144941799277067,-10.390048438614606,-0.5741193294525146,-3.112626552581787,2.353900909423828
2.413047119140625,-0.4753228619622066,4.954028766798973,-13.839119217431543,-1.8299347162246704,-3.031696081161499,2.3934884071350098
2.4230283203125,0.4782398088548332,4.230419016678631,-17.00257272720337,-3.072866201400757,-2.7182810306549072,1.947344422340393
2.433008544921875,1.4293253855012356,3.9577956692412495,-19.850573801636692,-3.968239307403565,-2.085958242416382,1.148862600326538
2.442989501953125,2.079431069602072,4.392266990453004,-22.036804911530016,-4.249845504760742,-1.2144572734832764,0.2192417681217193
2.45296923828125,2.212443409514427,4.803633038148283,-23.836038106787203,-3.780879259109497,-0.2101811617612838,-0.6651192903518677
2.46294921875,1.876841043333709,5.560633893477917,-24.70033321566581,-2.790605306625366,0.869920015335083,-1.3200387954711914
2.472930419921875,1.180399578385055,5.918057338583469,-24.271270767760274,-1.5806851387023926,1.93097186088562,-1.717631220817566
2.482910400390625,1.110600796624273,5.493273590910435,-22.05873149665594,-0.3640127778053283,2.360181331634521,-1.9389142990112305
2.49289013671875,1.3004691423550248,5.943813126608729,-20.42741039751768,0.5550503134727478,2.49985933303833,-1.977953553199768
2.50287109375,1.3546230496078728,5.325437482637167,-17.807888408368825,1.0045801401138306,2.4658522605896,-1.808177828788757
2.512851318359375,1.1466174280315635,3.888950973334908,-15.08394392171502,1.0776638984680176,2.268539905548096,-1.5365073680877686
2.522832275390625,1.0404572930790483,3.134929133816063,-12.48815352128744,0.9071943163871764,1.935279130935669,-1.216084122657776
2.5328125,0.96321959348917,2.677342309954762,-10.062238041484356,0.5978416800498962,1.562923789024353,-0.8649168014526367
2.542792236328125,0.9281821823775768,1.9988832225508983,-7.85641258880496,0.2012415528297424,1.230421543121338,-0.5012968182563782
2.5527734375,0.9451360205922276,1.1697784503232689,-5.875219482854009,-0.2367754131555557,0.99373859167099,-0.1800258308649063
2.56275341796875,1.0616010572642087,0.3731615143222734,-4.063776209843159,-0.682640790939331,0.8675441741943359,0.0730562284588813
2.5727333984375,1.221684213323146,-0.2575080132288858,-2.430903205087781,-1.1274473667144775,0.8399239778518677,0.2594985663890838
2.58271435546875,1.292888624098152,-0.7823768502570688,-1.0754957271039485,-1.5427275896072388,0.8419437408447266,0.3723707795143127
2.592694091796875,1.2454514578796922,-1.4318907059445976,-0.2184913597553968,-1.8517305850982664,0.8797582983970642,0.4367877542972564
2.60267529296875,1.0001632035482677,-2.3258014931470155,0.6654226418286562,-1.9609683752059937,0.9484313726425172,0.4567524194717407
2.612655517578125,0.6748490802131593,-3.085090167152881,1.8337994817256928,-1.8588683605194087,0.9680891633033752,0.4681292772293091
2.622635498046875,0.3208092131312936,-3.5833237664401527,2.8253789082586764,-1.595386624336243,0.955101191997528,0.5005050301551819
2.6326162109375,-0.180934878494963,-3.952888900238275,3.640665948340296,-1.2190146446228027,0.9117808938026428,0.5632064938545227
2.642596435546875,-0.776916319828853,-4.203886399061978,4.500622735753655,-0.769432544708252,0.7880818247795105,0.651868999004364
2.652576416015625,-1.3177595921128988,-4.309538730622828,5.320903930860758,-0.2840543687343597,0.5794028639793396,0.7442864179611206
2.662557373046875,-1.759204990120977,-4.393852213817834,6.132860949736833,0.2049339562654495,0.3332297801971435,0.8264068365097046
2.672537109375,-2.065345699495822,-4.45878032080233,7.031667984548211,0.6718280911445618,0.1053547412157058,0.8761696815490723
2.682518310546875,-2.213291696906835,-4.486543941518664,8.039882319539785,1.0964316129684448,-0.0435692332684993,0.9017245769500732
2.692498291015625,-2.2245412590652704,-4.556413888819516,9.1417966824919,1.4696919918060305,-0.116384133696556,0.9162349104881288
2.702478515625,-2.1576211014807223,-4.649427395820617,10.161155511832236,1.7812291383743286,-0.1219256445765495,0.9167121648788452
2.71245947265625,-2.1073025346070526,-4.526410380221903,11.040055484646558,1.9869788885116575,-0.0510819777846336,0.905558705329895
2.722439208984375,-2.130491833145171,-4.155865295475721,11.69028581804037,2.08821964263916,0.088188037276268,0.884788990020752
2.73241943359375,-2.2396289380818604,-3.6724955033212896,12.15006606029272,2.083709716796875,0.2278870344161987,0.8557463884353638
2.742400390625,-2.412653847169876,-3.1218504565343257,12.388089218991992,1.9928630590438845,0.3424993753433227,0.8189950585365295
2.75238037109375,-2.712830971965193,-2.5799142013818024,12.49009179587364,1.8429399728775024,0.4341217875480652,0.780420184135437
2.762361328125,-3.1157734747081998,-2.080753988768905,12.593605946362018,1.659258246421814,0.477321982383728,0.7313681840896606
2.77234130859375,-3.441868592353165,-1.615960448399186,12.552121258807182,1.4463841915130615,0.4620000123977661,0.6508374214172363
2.782321533203125,-3.645823769494891,-1.1980124650303274,12.320482248187064,1.2134758234024048,0.4331936538219452,0.5447117686271667
2.79230224609375,-3.8126317037642,-0.8403186054855585,12.092619248974325,0.977688193321228,0.4041076600551605,0.4108461439609527
2.802282470703125,-3.852163503685593,-0.586195668117702,11.81715980132818,0.7533535957336426,0.3545177280902862,0.2501174509525299
2.81226220703125,-3.778309162923693,-0.4822623423691838,11.436790364921093,0.5654112696647644,0.3459014892578125,0.1066634953022003
2.822243408203125,-3.897911693903803,-0.5606052267219871,11.19960424156785,0.4524740576744079,0.349298357963562,-0.0185641981661319
2.832223388671875,-3.930638782246411,-0.6417259782902897,11.032242765069007,0.419139951467514,0.3054468035697937,-0.1314194649457931
2.842204345703125,-3.9667683725088834,-0.7021804469920695,10.67329839400649,0.4264084994792938,0.2526254057884216,-0.2412689924240112
2.85218408203125,-3.961345178416371,-0.6259299318086355,10.131482842624187,0.4374479651451111,0.211130604147911,-0.3413102924823761
2.862164306640625,-3.8574844064474094,-0.4208132366068661,9.337677566510438,0.4134246706962585,0.1843517273664474,-0.4518040418624878
2.872145263671875,-3.6301042223155497,-0.3637255409244447,8.310008004942535,0.3725287020206451,0.192132830619812,-0.5759708881378174
2.88212548828125,-3.373077087938785,-0.5844179909206927,7.294338093248009,0.3446110486984253,0.1382099390029907,-0.708626925945282
2.892105224609375,-3.0590859573245046,-0.8979184154085814,6.15308365355432,0.3207322359085083,0.0168366618454456,-0.8021039366722107
2.90208642578125,-2.927497804996371,-1.2253108793877066,4.698451831230521,0.3300690352916717,-0.1275934875011444,-0.8143443465232849
2.91206640625,-2.87165287591666,-1.6495717722304164,3.281053468757868,0.3494839966297149,-0.2840937077999115,-0.7145494818687439
2.92204638671875,-2.831996865093708,-1.6612550496309997,1.4810194785118105,0.3638480007648468,-0.4891621768474579,-0.5378751158714294
2.93202734375,-2.927337061476708,-0.9295172303736208,-0.6682587420374154,0.3678181171417236,-0.8280029296875,-0.369343489408493
2.942007080078125,-2.9453099405407905,0.4163071573592722,-2.7904005338579414,0.3150627613067627,-1.3602676391601562,-0.2723636627197265
2.95198828125,-2.6849662289619443,1.9377014624878763,-5.164487042224407,-0.0014937410596758,-2.0004312992095947,-0.2163428217172622
2.961968505859375,-2.126046105782688,3.391490696507692,-8.540411920809746,-0.7549880146980286,-2.527334213256836,-0.1958764344453811
2.971948486328125,-1.095675030171126,4.469249107846617,-12.889146059006451,-1.8542213439941408,-2.7627947330474854,-0.3018339276313782
2.981929443359375,0.6620516310255974,4.800220599356293,-17.147169414186475,-3.0313425064086914,-2.4919934272766118,-0.5813416838645935
2.991909423828125,2.4419524223685265,4.749375962781905,-20.969390784072875,-3.8474862575531006,-1.7528575658798218,-1.0336074829101562
3.001889404296875,3.77523866943717,5.127860900616645,-24.031707978403567,-3.9176011085510254,-0.7735969424247742,-1.5903958082199097
3.011870361328125,4.514997882586718,6.244586463731527,-25.843449942100047,-3.291786432266236,0.1634623855352401,-2.147686243057251
3.021850341796875,4.724687511727214,7.569809815853834,-26.98184373166561,-2.2278482913970947,1.2212079763412476,-2.5860090255737305
3.03183154296875,4.753986379186808,7.375987033408879,-25.431214710354805,-0.9729686379432678,2.147831916809082,-2.721982955932617
3.041811279296875,4.519733678936958,6.377734704983234,-23.30970186408758,0.1501247733831405,2.5039830207824707,-2.64543080329895
3.05179150390625,4.44447765468359,6.546402003383636,-21.697878077101706,0.9542434811592102,2.5533313751220703,-2.3260748386383057
3.0617724609375,3.750407595041394,5.429138095608353,-18.15153350349069,1.4565629959106443,2.179259777069092,-1.8817492723464968
3.07175244140625,3.100643125593662,4.519772549642622,-14.418892451286316,1.7115803956985474,1.5830055475234983,-1.3859959840774536
3.081732177734375,2.492405429276824,4.025482427284121,-10.538824457108976,1.7481207847595217,0.9026468396186828,-0.8713832497596741
3.09171337890625,1.9794015463590624,3.626607904632389,-7.243352002376318,1.544438123703003,0.2431333214044571,-0.367017537355423
3.101693359375,1.6398853677354752,3.055948536081612,-4.795268529906869,1.1264365911483765,-0.3104947507381439,0.0996300727128982
3.11167431640625,1.4541064832754431,2.1694974172353745,-3.007143004119396,0.5294609069824219,-0.6894599795341492,0.5014247894287109
3.121654296875,1.4012301947429775,1.1832142704796045,-1.7525006701767445,-0.136854276061058,-0.9955357313156128,0.7988724112510681
3.131634521484375,1.5572458091020582,0.3217756470106542,-0.9133224668979644,-0.8044900894165039,-1.1764070987701416,0.9785735607147216
3.141615234375,1.6337131088413297,-0.2570723252253606,-0.2106125892043113,-1.3856879472732544,-1.113178849220276,1.1004688739776611
3.151595458984375,1.5439274778455494,-0.596001570806466,0.8324310671061277,-1.810537815093994,-0.9006081819534302,1.1694667339324951
3.1615751953125,1.4650345583945512,-0.8451894263923168,1.7638883256316185,-2.059347629547119,-0.6225302219390869,1.1892516613006592
3.171556396484375,1.3285492816746234,-1.0683381834995,2.635816705867648,-2.144735097885132,-0.295199453830719,1.1539244651794434
3.181536376953125,1.02683968661502,-1.3365148537263274,3.363704279437661,-2.1022000312805176,0.0632132887840271,1.0652108192443848
3.19151806640625,0.6045758128084242,-1.6255257107324896,3.9983699639528982,-1.95263934135437,0.4268624484539032,0.9227012395858764
3.201498291015625,0.1473972044218331,-1.927148650421947,4.588378760617971,-1.7200796604156494,0.7333177328109741,0.7341997623443604
3.21147802734375,-0.332039997524023,-2.2606956915080545,5.077482712510228,-1.444953441619873,0.9742595553398132,0.5224320292472839
3.221458984375,-0.8585672327511013,-2.652620248891413,5.4264943031013,-1.1337119340896606,1.106582760810852,0.3175135552883148
3.23143896484375,-1.3226260291054843,-3.0362527787476776,5.863748825290799,-0.7812978625297546,1.035036325454712,0.1251094490289688
3.241419189453125,-1.4873565725788471,-3.5108430521190166,6.488071394968032,-0.4366520345211029,0.8460020422935486,-0.019718850031495
3.251400390625,-1.5350586733438074,-4.112508384308219,7.047696159285307,-0.1327800005674362,0.6460185050964355,-0.0748972445726394
3.261380126953125,-1.4844947534069417,-4.563060194966197,7.548832494276762,0.1268355995416641,0.4797009229660034,-0.0372952669858932
3.271361083984375,-1.3910187434606254,-4.736217206001282,8.03394123905301,0.357238620519638,0.355121374130249,0.0746724680066108
3.281341064453125,-1.3022669855572282,-4.754170795843005,8.530262867239117,0.5809282064437866,0.2661156058311462,0.2351244539022445
3.2913212890625,-1.249466100348532,-4.701295530223846,9.081773883205653,0.8001464009284973,0.2113497406244278,0.4267952144145965
3.30130224609375,-1.31480103456825,-4.5869975353926415,9.6159526560992,1.010928511619568,0.1749203652143478,0.6329859495162964
3.311281982421875,-1.580428531768918,-4.294364834627509,10.07591819179058,1.1981024742126465,0.1316586881875991,0.8189604878425598
3.32126220703125,-1.8335161347396671,-3.7794279378205538,10.386399852979183,1.3316307067871094,0.0897306874394416,0.950904667377472
3.3312431640625,-1.9926099875003096,-3.2249019579470155,10.569612394082544,1.3908530473709106,0.0645754635334014,1.029713749885559
3.341223388671875,-2.2029263702370225,-2.781958284205198,10.7072240444839,1.3844577074050903,0.0676503479480743,1.0768831968307495
3.351203125,-2.4524159487158057,-2.459105509482324,10.851047993528844,1.3351092338562012,0.0664811432361602,1.0937824249267578
3.36118408203125,-2.7432047751799224,-2.2178069823741917,10.878024847781658,1.244041085243225,0.0314938575029373,1.058356761932373
3.3711640625,-2.937788312864303,-2.0069597076311707,10.76645364756584,1.116541624069214,-0.0063435700722038,0.9746824502944946
3.381145263671875,-3.058049015492201,-1.7801541085168715,10.65211181359291,0.969873070716858,-0.0493621416389942,0.8452067375183105
3.391125,-3.0565994012057778,-1.6080036441758274,10.553742624777556,0.8227095603942871,-0.0740961655974388,0.6861304044723511
3.40110498046875,-3.0025746732905505,-1.5519744445703922,10.4357522051692,0.6898817420005798,-0.0780714601278305,0.5305972695350647
3.4110859375,-2.990570639503002,-1.4965806202590464,10.261289956754446,0.5887269973754883,-0.0439673103392124,0.3915906846523285
3.42106640625,-3.01339300442487,-1.3840264003552496,10.049840332204102,0.5290874242782593,0.0376362055540084,0.2748648524284363
3.43104638671875,-2.8700831423819064,-1.250815323000401,9.84547978913188,0.5089770555496216,0.1051959171891212,0.1699948012828827
3.441027099609375,-2.7082705321818588,-1.1183055257827044,9.52275823957324,0.5032885074615479,0.165420114994049,0.0702751278877258
3.451007080078125,-2.621342190313339,-0.9447545469939708,9.05178791026473,0.4721691906452179,0.2572440803050995,-0.008676747791469
3.46098828125,-2.595204709494114,-0.7509680779714137,8.306689674174786,0.3929058015346527,0.382241427898407,-0.0451876185834407
3.47096826171875,-2.635032277491689,-0.5259889270992949,7.34068366483748,0.2913551926612854,0.4253209829330444,-0.0483756884932518
3.480947998046875,-2.5964865659981964,-0.377652249870263,6.231312556138635,0.2168868333101272,0.296953946352005,-0.0462310463190078
3.490928955078125,-2.62730898976326,-0.5808288073223083,4.915861240968108,0.1820211857557296,0.0648709833621978,-0.0463826395571231
3.500908935546875,-2.814452440574765,-0.8428565264653414,3.248847481679916,0.1797079592943191,-0.1510668992996215,-0.0542762465775013
3.510889404296875,-3.188655171045661,-0.5954263647343963,1.217725684955716,0.2802804112434387,-0.3710487484931946,-0.0665262937545776
3.520870361328125,-3.52941155898869,0.1839503721249289,-0.6835515882372856,0.5037949681282043,-0.7773565649986267,-0.0961819216609001
3.53085009765625,-3.6189945070192215,1.3161743687480687,-2.654541864603757,0.815499484539032,-1.3932853937149048,-0.1306116431951522
3.5408310546875,-3.480260574589669,2.821947472505271,-4.45779364785254,1.020527720451355,-2.1271955966949463,-0.1437002718448639
3.550811279296875,-3.082430008032918,4.633659625585377,-6.4122635820508,0.9246273636817932,-2.6820030212402344,-0.158462569117546
3.560791259765625,-2.20938840585798,5.678945215603709,-8.261617191261053,0.5563215613365173,-2.864697217941284,-0.2541169226169586
3.570772216796875,-0.96669296868816,5.543643011188506,-9.43722748954296,-0.0549652986228466,-2.7109007835388184,-0.4687956273555755
3.580751953125,0.4271946082070469,5.799858829182386,-10.912688164883852,-0.9813472032546996,-2.1969172954559326,-0.7699578404426575
3.590732177734375,1.7670469357930123,6.971795407387614,-13.728885403299332,-2.05351996421814,-1.3661093711853027,-1.1432570219039917
3.60071337890625,3.041120969305932,7.139156299364567,-16.392123784577844,-2.976303577423096,-0.3776102364063263,-1.5415703058242798
3.610693359375,3.849919816412032,6.067861531081795,-18.42308834491372,-3.5653345584869385,0.3755681216716766,-1.8493573665618896
3.620674072265625,4.059446363945305,5.43940113094747,-21.0197344853878,-3.722686052322388,0.7742891311645508,-1.932602405548096
3.630654052734375,3.747019121646881,5.171783044451475,-23.33906356765032,-3.365913152694702,0.7824691534042358,-1.7238655090332031
3.64063427734375,3.292918094074726,4.565620985364913,-24.47018356682062,-2.617598295211792,0.5718601942062378,-1.2734240293502808
3.650615234375,2.8565038221016525,3.910787249828875,-24.63066755876541,-1.6315195560455322,0.3072642087936401,-0.7450749278068542
3.660594970703125,2.7083459355056285,2.937285039517284,-23.18159570865631,-0.5991614460945129,0.0305758677423,-0.3138183355331421
3.6705751953125,2.7391367950886485,1.903538788384199,-20.555787771105766,0.2523594796657562,-0.1652256399393081,-0.0263481717556715
3.68055615234375,2.613166190381348,1.5719092713572085,-17.539853557765483,0.8250688314437866,-0.2562612891197204,0.1381424963474273
3.690536376953125,2.4093941147215663,1.5343071243241428,-14.30340261632204,1.1259629726409912,-0.2793926298618316,0.2266100198030471
3.70051611328125,2.234956854617596,1.3229108373962342,-11.174131946659088,1.178352952003479,-0.2575067579746246,0.273260623216629
3.7104970703125,2.103918445126712,0.924138459944725,-8.4840049739331,1.020122528076172,-0.2049122452735901,0.3148056268692016
3.72047705078125,1.987585437336564,0.312758154753223,-6.253478795239329,0.7239209413528442,-0.1252637505531311,0.352884292602539
3.730458251953125,1.9779516398116943,-0.5934433011583984,-4.352015059563517,0.3480809330940246,0.0567166693508625,0.3761366605758667
3.740438232421875,1.922944330599904,-1.7547867352873086,-2.509870358818769,-0.0138980513438582,0.3719126880168915,0.3551123440265655
3.75041796875,1.64670688431859,-2.7908161289215085,-0.4830418753743171,-0.2823405563831329,0.7176645994186401,0.2682197093963623
3.76039892578125,1.1486662503201517,-3.1904870626479385,1.4413719432562588,-0.475518524646759,1.0190606117248535,0.0948109030723571
3.770379150390625,0.4840227761704474,-3.0270927362144,2.840781060051918,-0.6086152195930481,1.2740411758422852,-0.1443480551242828
3.780359375,-0.2472447952266782,-2.805661231353879,3.868210967645049,-0.6960084438323975,1.4536851644515991,-0.4059360027313232
3.79034033203125,-1.054519647635892,-2.8974726690888404,4.688338433495163,-0.7130271196365356,1.4749343395233154,-0.6678030490875244
3.800320068359375,-1.766014377874881,-3.185811179791391,5.432655748340487,-0.6440853476524353,1.344685196876526,-0.9242497086524964
3.810300048828125,-2.184480320703238,-3.587170212735236,6.217018657848239,-0.5073045492172241,1.1498876810073853,-1.1172884702682495
3.82028125,-2.416211101260036,-3.99898312741518,7.056630576369166,-0.3404383659362793,0.912161648273468,-1.2112258672714231
3.83026123046875,-2.478697806441784,-4.39798186096847,7.579766561722755,-0.1449866890907287,0.6968019008636475,-1.1913659572601318
3.840241943359375,-2.47525438798964,-4.652994732913375,8.154992215275763,0.0943691805005073,0.5097177624702454,-1.0650324821472168
3.850221923828125,-2.356971415175497,-4.833549745245278,8.77216666676402,0.3583730161190033,0.3739173710346222,-0.874108612537384
3.8602021484375,-2.15510765735507,-4.811048575101792,9.280673822784424,0.6240757703781128,0.2584094107151031,-0.6650126576423645
3.870183349609375,-1.828995442444831,-4.568807798707485,9.694242348960042,0.8793893456459045,0.1534826159477234,-0.4590255916118622
3.8801630859375,-1.5871657310694456,-4.293009912887215,10.02537809112072,1.0952681303024292,0.0617931745946407,-0.2499639987945556
3.89014306640625,-1.4750183384008704,-4.017717638501525,10.2667108127594,1.2592953443527222,-0.0119585441425442,-0.041894145309925
3.9001240234375,-1.4556816236376762,-3.724515028893948,10.394564454734326,1.3768539428710938,-0.0875907242298126,0.1659085750579834
3.910104248046875,-1.4724479033909736,-3.3592797409936783,10.43480294162035,1.4567818641662598,-0.2044875621795654,0.351966917514801
3.920085205078125,-1.4655536138325929,-2.997962795580924,10.2851700140357,1.4805628061294556,-0.3466929197311401,0.5137364268302917
3.93006494140625,-1.5174226250186562,-2.683863236156106,10.110990674215554,1.454418420791626,-0.4212501049041748,0.6635319590568542
3.940045166015625,-1.495800721927732,-2.2924495509043337,9.994930345886946,1.4245874881744385,-0.4775764942169189,0.7820188999176025
3.950026123046875,-1.2735085085846485,-2.044175047303736,9.966745869410037,1.4137141704559326,-0.5319012999534607,0.8443973064422607
3.96000634765625,-1.1171619087055324,-1.94423144877851,9.994718748962878,1.423792600631714,-0.5603111386299133,0.8693386316299438
3.969986083984375,-1.041331591695547,-1.7154145098417997,10.062130489456653,1.42738938331604,-0.563308596611023,0.8683474659919739
3.979967041015625,-0.9682847679242492,-1.3504723596692083,9.951061978065969,1.406997561454773,-0.5442707538604736,0.8493074774742126
3.989947021484375,-0.893127966261655,-1.0174107640124856,9.800850958332418,1.362620234489441,-0.5293267369270325,0.8100310564041138
3.99992724609375,-0.757151369716227,-0.7899510849036276,9.564916880866884,1.2799738645553589,-0.5522451400756836,0.7531659007072449
4.0099072265625,-0.6445560140844434,-0.6435860000085085,9.1827336730361,1.1918001174926758,-0.590455174446106,0.6989434361457825
4.019887939453125,-0.5831118036929518,-0.47963747375831,9.014409488984942,1.0964351892471311,-0.6023232340812683,0.6551058888435364
4.0298681640625,-0.4620245871130377,-0.2456060881089419,8.8656036598742,0.9968667030334472,-0.5917763710021973,0.5902164578437805
4.03984814453125,-0.2049310364365577,-0.0212339997518807,8.58391437792778,0.8543907999992371,-0.5697749853134155,0.4942627549171448
4.049829345703125,0.116086193422228,-0.0201164669640362,7.752818358817696,0.681657612323761,-0.4548145234584808,0.3852260112762451
4.05980908203125,0.3859697406321764,-0.27450324289985,6.870553293484449,0.5623852610588074,-0.2746428847312927,0.2344343811273574
4.0697900390625,0.6895420608237386,-0.3988016766112297,6.4010132892400025,0.5251562595367432,-0.066702663898468,0.0274608880281448
4.07977001953125,0.8783354707993567,-0.2447228755336254,6.052117433983087,0.496891051530838,0.1538121402263641,-0.1851693540811538
4.089750244140625,0.95345873551853,-0.0127877315111458,5.253074841737747,0.4313517212867737,0.2937207818031311,-0.3589951992034912
4.09973095703125,0.9665556060440836,-0.1183260082382708,3.848148422825336,0.3309692144393921,0.2861132025718689,-0.462606817483902
4.109711181640625,0.9359566157713533,-0.3356266969043761,1.812349281939864,0.2154992520809173,0.2217905670404434,-0.4183154702186584
4.119691162109375,0.7691158752109855,0.1707755957912653,-0.6413683970242738,0.1652070581912994,0.0916173756122589,-0.2316164076328277
4.12967236328125,0.8435431935552508,1.6229104136675596,-2.9847318503469227,0.1321071535348892,-0.2045330554246902,0.06965022534132
4.13965234375,1.090646899810806,3.4210867933481928,-5.470588880893588,-0.1786914616823196,-0.7036017179489136,0.4148249328136444
4.149633056640625,1.5310536754861472,4.036795263937115,-9.036367638292909,-1.044755935668945,-1.2313475608825684,0.7024549245834351
4.159613037109375,1.9283866677843036,2.6406886958181857,-13.98482181982994,-2.309837102890014,-1.5893033742904663,0.8149684071540833
4.169593017578125,2.40823515394479,0.8034278215922415,-18.66673577323556,-3.5156071186065674,-1.792410969734192,0.6399809122085571
4.17957421875,3.210018861591816,0.4101366154981777,-22.4228933101058,-4.28488302230835,-1.67734694480896,0.1727804243564605
4.189557373046875,4.101913048274815,1.4139645886316894,-25.66662271811962,-4.274573802947998,-1.055667757987976,-0.4741018712520599
4.199537353515625,4.613424354547262,2.882510662278533,-27.348713050508497,-3.370173692703247,-0.105760246515274,-1.129319429397583
4.2095185546875,4.6422877531990405,4.488406812781095,-27.70135744464397,-2.010223627090454,0.8448830246925354,-1.59979510307312
4.219498291015625,4.350234898148477,5.081534618249536,-26.364927638852595,-0.2908226251602173,2.0350921154022217,-1.7589967250823977
4.229478271484375,3.555466622221469,4.647252097608149,-22.26316685853004,1.1089837551116943,2.468001127243042,-1.6945297718048096
4.239459228515625,3.084317429214716,4.684076392136514,-21.095179894733427,1.933359980583191,2.467642307281494,-1.4541510343551636
4.249439453125,2.247437858267128,4.705976966038346,-18.59383303411007,2.259541749954224,2.1336395740509038,-1.0754534006118774
4.259420166015625,1.5379165469929574,4.375660723567009,-15.440210013478993,2.2576358318328857,1.5740348100662231,-0.653571605682373
4.269400390625,1.209641601090878,4.086403928975761,-12.143809337985514,2.0336556434631348,1.1160014867782593,-0.2670864164829254
4.27938037109375,1.0445102217316626,3.966667542482912,-8.839078641042112,1.6971745491027832,0.7495291233062744,0.075975053012371
4.289361572265625,0.9266491275914012,3.5260496813401576,-6.000799334678054,1.3181071281433103,0.4769659042358398,0.352850466966629
4.299341552734375,0.8813112717397511,2.7830384806573387,-3.4877538529545067,0.9171708226203918,0.3361672461032867,0.5546035170555115
4.3093212890625,0.8268848311558366,2.010732065776736,-1.3124036180377006,0.4740331768989563,0.289646565914154,0.6827104687690735
4.31930224609375,0.8376474865801632,1.523401261036843,0.1209340718448162,-0.025089805945754,0.3518532216548919,0.748572826385498
4.3292822265625,0.7593095706634223,1.2069830494061111,1.2274340090215206,-0.5658137798309326,0.4134943187236786,0.7633029818534851
4.339262451171875,0.5657277573674917,0.7469231864947825,1.8496043691009283,-1.0910576581954956,0.4045594036579132,0.7534269094467163
4.3492431640625,0.1486678819447755,0.0587297820673324,2.2762913200467825,-1.5115227699279783,0.3427966833114624,0.744269609451294
4.359223388671875,-0.3765580614253878,-0.7677988012630492,2.8463340180039403,-1.7537673711776731,0.2467750906944275,0.7337884902954102
4.369204345703125,-0.924806276203692,-1.3148343523159622,3.4173616353452205,-1.768706440925598,0.1738982498645782,0.7026699185371399
4.3791845703125,-1.4368459902644155,-1.5557897650748491,4.161905744683742,-1.5644630193710327,0.1410244554281234,0.6526610851287842
4.389164306640625,-1.895433953992277,-1.6936685419797897,4.89271300509274,-1.1551223993301392,0.1581928879022598,0.5840710401535034
4.399145263671875,-2.2291680420830846,-1.7166485816814003,5.805328785026073,-0.614534854888916,0.1775932163000106,0.5004333853721619
4.409125244140625,-2.42642869002223,-1.6556665819741785,6.702907739347219,-0.0519463717937469,0.1880494505167007,0.4153380692005157
4.419105224609375,-2.5546748384460805,-1.6392508692242205,7.441077052956819,0.4293859004974365,0.1857079863548278,0.3554992377758026
4.42908642578125,-2.6378075874239206,-1.7807513437576592,8.10054458577335,0.8037240505218506,0.150903895497322,0.3372265100479126
4.43906640625,-2.675763808591664,-2.0091266764067117,8.814423507735132,1.0458109378814695,0.1124068424105644,0.3410574793815613
4.44904638671875,-2.6381319970726964,-2.2067428597852587,9.489611172252893,1.217026710510254,0.1251865178346634,0.3838145434856415
4.45902734375,-2.6980840692102905,-2.4115384332738814,10.382760619693991,1.3072335720062256,0.1681624799966812,0.4513339400291443
4.469007568359375,-2.6768179938197134,-2.392362023638934,10.947822606629131,1.3447017669677734,0.2534011006355285,0.5231397747993469
4.478988525390625,-2.672316883008182,-2.1315420728504657,11.459925741314889,1.3570982217788696,0.3029486536979675,0.5877997279167175
4.48896826171875,-2.6404426121026274,-1.7471261375315486,11.78252804840803,1.3572698831558228,0.292935162782669,0.6485965847969055
4.4989482421875,-2.741798707774281,-1.2445286439463497,11.926965745437144,1.358497142791748,0.2500713169574737,0.7203443050384521
4.508929443359375,-3.004026333403587,-0.6763368345528841,12.061148590433596,1.3515039682388306,0.1830426603555679,0.8069996237754822
4.518909423828125,-3.22323431699574,-0.1022424500521272,12.122236973124744,1.3331785202026367,0.076830469071865,0.8919328451156616
4.528889404296875,-3.2594735051125285,0.2524969436012208,12.12621055293083,1.28207266330719,-0.0352321304380893,0.9660419225692748
4.538870361328125,-3.2560482068389653,0.3970851550169288,12.10556757787466,1.2029118537902832,-0.123944953083992,1.0440726280212402
4.548850341796875,-3.2641210386574264,0.4593978188060224,12.036322776734828,1.1000151634216309,-0.2245231717824936,1.112343192100525
4.55883154296875,-3.243670955824852,0.4801749416358769,11.819369294071198,0.9802499413490297,-0.342452734708786,1.1491022109985352
4.568811279296875,-3.20874285030663,0.5109358444720506,11.47633093267083,0.8523706197738647,-0.4148984551429748,1.146154761314392
4.578791259765625,-3.1680443446934223,0.5895464398503303,11.137734937632084,0.7455515265464783,-0.43345507979393,1.0926589965820312
4.588772216796875,-3.015485300529003,0.6364920231595635,10.860604926425218,0.6510712504386902,-0.4235507845878601,0.9851743578910828
4.59875244140625,-2.8208061935156583,0.7122220946654677,10.523299555718898,0.5221955180168152,-0.3396918177604675,0.8550645709037781
4.608732666015625,-2.7334523197114464,0.846681126254797,9.922086058950423,0.310717225074768,-0.1567171365022659,0.7181689739227295
4.618713134765625,-2.519335814039409,0.8484306002706289,9.124794694286583,0.0450251027941703,0.040657453238964,0.5440533757209778
4.628693359375,-2.18311122430712,0.5011304897725581,8.203071478790044,-0.2632875144481659,0.1650007218122482,0.2948378920555115
4.638674560546875,-1.8279589390039443,0.0927193463601172,6.931680839142203,-0.5987371206283569,0.2851130068302154,0.0137985227629542
4.648654541015625,-1.706890719385445,-0.4658984328716993,5.499322223424911,-0.9346407651901244,0.4902448356151581,-0.2270183265209198
4.658635498046875,-1.7089761473573744,-1.097562451352924,3.762540515905618,-1.159151911735535,0.5899205803871155,-0.4293797016143799
4.668615234375,-1.6409934751078483,-1.540782165557146,1.860526745131612,-1.1963714361190796,0.5016818642616272,-0.5792629718780518
4.67859521484375,-1.7745486897252498,-1.3444802796475588,-0.1808639321506023,-1.0683170557022097,0.1909485161304474,-0.571852445602417
4.688576416015625,-2.0585349965676665,-0.1558189958084374,-2.5990935336261987,-0.8322282433509827,-0.361362874507904,-0.3259356915950775
4.698556396484375,-2.4521064443752167,1.528126097601652,-5.005567815378308,-0.6650160551071167,-1.2546130418777466,0.2037968784570694
4.708537109375,-2.6411644966363905,2.991076250937581,-8.03407275647819,-1.070320963859558,-2.2621006965637207,0.9959535002708436
4.718517333984375,-2.378482843629271,3.581004383581877,-13.326231654369831,-2.18624210357666,-3.028902530670166,1.7520060539245603
4.72849755859375,-1.1047439603548497,2.212092696380615,-18.975472052061555,-3.580324172973633,-3.309765338897705,1.991267204284668
4.738478515625,0.8902068911831825,-0.3384752547359094,-22.85281149805784,-4.664278030395508,-2.977573871612549,1.60365629196167
4.748458251953125,2.599121590676904,-1.468809985280037,-25.539947472274303,-4.901941776275635,-1.8561773300170896,0.8313950300216675
4.758438232421875,2.772419471487402,-0.4397776839915662,-26.79332373180389,-4.048718452453613,-0.5190588235855103,-0.1240704208612442
4.76841943359375,2.172368442627042,1.8668823977686464,-27.132383837223053,-2.3643057346343994,0.4834512770175934,-1.0718233585357666
4.7783994140625,1.5963171519048511,3.7586513995125888,-25.628572681188583,-0.2322645336389541,1.5023895502090454,-1.705482840538025
4.788379638671875,0.5381260857472195,4.667285708594322,-22.04006186749935,1.3988043069839478,1.8097771406173704,-1.888755440711975
4.798360107421875,-0.1279255381673574,4.825177053697407,-21.229746186089518,2.2351040840148926,1.759695053100586,-1.8145456314086916
4.80834033203125,-0.3823619253985583,4.588256011021137,-18.91742669032812,2.3858425617218018,1.3902761936187744,-1.668030858039856
4.818321533203125,-0.179869879611954,3.878902457529306,-16.20686775494814,2.1007020473480225,0.9520201683044434,-1.5227572917938232
4.828301513671875,0.2370835397616028,2.835717054660618,-13.144765664672851,1.6220495700836182,0.6601866483688354,-1.4055277109146118
4.83828125,0.7037879552539438,1.8087687931045888,-10.055722960501909,1.080506443977356,0.5381598472595215,-1.2942535877227783
4.84826220703125,1.029187418784946,1.3046917284861206,-7.625995228934287,0.570874035358429,0.5308971405029297,-1.1619454622268677
4.8582421875,1.0185017741195856,1.122222406965494,-5.788305754032731,0.1636809408664703,0.5406144857406616,-1.0198054313659668
4.868222412109375,0.7939724493741989,0.9378143724672496,-4.231299014383554,-0.0977640077471733,0.4977563321590423,-0.877875804901123
4.878203369140625,0.5708337752696127,0.6120371616650372,-2.665553672483563,-0.2125265449285507,0.3866476714611053,-0.7427670359611511
4.888183349609375,0.370369728179276,0.1606421051159501,-1.0993757843852043,-0.2451006174087524,0.3117730915546417,-0.5972437262535095
4.898163330078125,0.1658805902913212,-0.1127985135210677,0.3419757006049156,-0.2339811325073242,0.2741452753543854,-0.4406072795391083
4.90814453125,0.0547720391511917,-0.1837653892131522,1.6603355966985225,-0.1967843770980835,0.2026239335536956,-0.3203046321868896
4.91812451171875,-0.0341207346580922,-0.4320771926168352,3.027830402839184,-0.1585690826177597,0.1227155178785324,-0.235814481973648
4.928105224609375,-0.143127052821964,-0.7647667400907725,4.417690770044922,-0.1244920864701271,0.0641244426369667,-0.1712118089199066
4.938085205078125,-0.2785327176116406,-0.937399288860336,5.599858819407224,-0.1061983034014701,0.0546371899545192,-0.1192849576473236
4.948065185546875,-0.3951138549439609,-1.0031791903685778,6.609746056047082,-0.0755619928240776,0.0762435644865036,-0.0880622565746307
4.95804638671875,-0.4721551551789045,-1.0703951890945431,7.640753822126984,-0.0111164283007383,0.1126263439655304,-0.0669620335102081
4.968026123046875,-0.6026786008849739,-1.1678081731636076,8.639241128352284,0.0532252378761768,0.1563990265130996,-0.04058837890625
4.97800634765625,-0.7826175271451473,-1.3120008824557066,9.450397936761378,0.1212695389986038,0.1979099810123443,-0.0107423327863216
4.9879873046875,-0.9492714398965238,-1.4132907810233533,10.11396589063406,0.1813898384571075,0.2224079668521881,0.0183513555675745
4.997967529296875,-1.1136812269829213,-1.4785450512222944,10.681329724770784,0.2286527007818222,0.2228873372077942,0.0427725426852703
5.007948486328125,-1.2691801239915192,-1.5430284831792116,11.127191331785916,0.2556503415107727,0.1994431912899017,0.0637891590595245
5.01792822265625,-1.376039493254572,-1.5249001212924718,11.394051293390987,0.2618283331394195,0.1512367874383926,0.0880329832434654
5.027908203125,-1.4680268720783292,-1.4712129547685384,11.482976946556567,0.258287638425827,0.0665157213807106,0.1166271120309829
5.037889404296875,-1.5437147118777037,-1.482521115246415,11.529233670818805,0.2423171699047088,0.0016115587204694,0.1512793600559234
5.047869384765625,-1.554779126727581,-1.4922034280881284,11.583755534601211,0.2283785343170166,-0.0380725935101509,0.1935859322547912
5.057849365234375,-1.4718465764969586,-1.488275879380852,11.579572695958614,0.2247664928436279,-0.0863658189773559,0.2248458564281463
5.067830322265625,-1.3381288647942244,-1.526333661226928,11.563268042367696,0.2330463230609893,-0.1282485127449035,0.2423203587532043
5.077810302734375,-1.2240544495858252,-1.5671319739528,11.548574331104756,0.2524466514587402,-0.1578351706266403,0.2613169550895691
5.08779052734375,-1.1991535248242318,-1.5826479613840578,11.49060145008564,0.2970004379749298,-0.1797805577516555,0.2744715511798858
5.097771484375,-1.2063849373824893,-1.6120263238206505,11.43709431630373,0.3536091148853302,-0.195528894662857,0.2728217244148254
5.107751220703125,-1.2388108508214353,-1.5774351951718328,11.40342585545778,0.4169736206531524,-0.2060924172401428,0.2634714543819427
5.117732177734375,-1.2440800233960152,-1.4995913463823496,11.245698468744754,0.460453450679779,-0.2301016151905059,0.2451699376106262
5.12771240234375,-1.23208344226256,-1.4278256484627725,10.925450615823268,0.4849599301815033,-0.2519107758998871,0.2175884246826172
5.1376923828125,-1.1737896587260066,-1.4007447493135927,10.635296287870409,0.5145881175994873,-0.2650191187858581,0.1859135776758194
5.147673095703125,-1.0762257949441671,-1.4654688581585884,10.491576383721828,0.5415401458740234,-0.2542741894721985,0.1448817998170852
5.1576533203125,-0.9642012980028988,-1.4863037025250494,10.251008216714858,0.5691192746162415,-0.1856442540884018,0.1077610775828361
5.16763330078125,-0.910302972946316,-1.3792479339070618,10.05301194797754,0.5849165320396423,-0.0934149697422981,0.0879913419485092
5.177614501953125,-0.9177731626965104,-1.2038880060002206,9.826851076507568,0.5686733722686768,0.014905116520822,0.0815006867051124
5.1875908203125,-1.011827630117908,-1.0364752377055584,9.389320075464248,0.5030643343925476,0.1597694903612136,0.1102970391511917
5.19757080078125,-1.2271164675049484,-0.9317870750017464,8.797826593199371,0.3803248405456543,0.2629864513874054,0.1544895321130752
5.207551513671875,-1.4856053449973463,-1.0752642564356327,7.836245999088883,0.2300588190555572,0.2613194584846496,0.1745187789201736
5.217531494140625,-1.8389634403601287,-1.3893566554673016,6.530998682546615,0.0787973925471305,0.1907470524311065,0.1629537343978881
5.2275126953125,-2.3455595020622013,-1.5048850688762965,4.776822188112139,-0.0615483596920967,0.0600744821131229,0.1783084422349929
5.237492919921875,-2.818430404295027,-1.2813077841587364,2.539687404933572,-0.1421142965555191,-0.2296074032783508,0.2096738219261169
5.24747265625,-3.052112611180544,-0.7575043478723615,0.1934638860046863,-0.1304503083229065,-0.6565682291984558,0.3030166625976562
5.25745361328125,-3.340562473303079,0.3093370577307417,-2.21775320636034,-0.122919425368309,-1.280728101730347,0.5450058579444885
5.267433837890625,-3.448526881198585,2.5042364445850254,-5.526064099878073,-0.2626556158065796,-2.261052131652832,0.8748477101325989
5.277413818359375,-2.65507845569849,4.93495464849472,-9.668193715468048,-0.7069731950759888,-3.23514723777771,1.1796729564666748
5.287394775390625,-1.0221874768950046,5.948691546300053,-13.576584717810151,-1.519265055656433,-3.686607599258423,1.3200435638427734
5.29737451171875,1.1681773718021808,5.328662874424457,-17.046428235542773,-2.569814443588257,-3.44887113571167,1.1431795358657837
5.307355712890625,3.447155885106325,4.188684738276899,-20.147445455145835,-3.6131112575531006,-2.546208620071411,0.6597722768783569
5.317335693359375,4.954429748815298,3.3176769800171253,-23.026802621829507,-4.31513786315918,-1.1885006427764893,0.0445988290011882
5.32731591796875,4.901327396441996,2.8418858064234254,-25.571740786898136,-4.3157267570495605,0.2276831120252609,-0.5453805327415466
5.337296875,3.525963172100484,3.2536846925780174,-27.095713271951677,-3.441957950592041,1.20708167552948,-0.9914759993553162
5.347276611328125,1.967749394749105,4.556236486425996,-27.46683557206392,-1.842610239982605,1.556758165359497,-1.2276935577392578
5.357256591796875,0.7727829463511705,5.3091912812352176,-26.234015778350827,-0.0298156775534153,1.4169952869415283,-1.2358967065811155
5.36723779296875,-0.0005153565104585,5.148873293507099,-23.99268062087297,1.4417191743850708,1.0900434255599976,-1.1061129570007324
5.3772177734375,-0.0471376398491905,4.924918992170691,-21.172098299241064,2.2957534790039062,0.7967700362205505,-0.9563162326812744
5.38719775390625,0.3107462669415399,4.608746718125045,-17.704617418986558,2.616996049880981,0.6268596053123474,-0.8508115410804749
5.397178466796875,0.6984349768534303,4.167666207906604,-13.880451929295065,2.558135986328125,0.5281192064285278,-0.7962074279785156
5.407158935546875,1.0114385577350855,3.745085815496743,-10.339958419799803,2.2101852893829346,0.4818184673786163,-0.7877517938613892
5.417138916015625,1.182376796742156,3.1420942031398416,-7.463332723906635,1.6474205255508425,0.4612988233566284,-0.8084354996681213
5.42711962890625,1.262515113144368,2.277790326432884,-5.374659486445784,0.9248030185699464,0.4572474360466003,-0.8487415313720703
5.437099609375,1.3357125974327324,1.2908496656164523,-3.9730087282031774,0.1527536511421203,0.4667202830314636,-0.8977513909339905
5.447080810546875,1.367537037847191,0.3624433556267991,-2.851516973599791,-0.4944351315498352,0.5086287260055542,-0.9521649479866028
5.457060791015625,1.3224324062295256,-0.363570350362733,-1.354440094256401,-0.8440663814544678,0.6610848307609558,-0.9333316087722778
5.46704052734375,1.0958058169439435,-0.9230445272281764,0.9380687856197356,-0.9033128023147584,0.840594470500946,-0.852078378200531
5.477021484375,0.722606856688112,-1.1383179478503762,2.9219600446134804,-0.8265069723129272,0.9846131205558776,-0.8069881796836853
5.487001708984375,0.5422158758115023,-0.9987838780190796,4.220896278312802,-0.7222741842269897,1.0954654216766355,-0.7977577447891235
5.49698193359375,0.3662858198665082,-1.047502023958787,5.372546439814567,-0.6641477346420288,1.2092019319534302,-0.8223161101341248
5.506962890625,0.0787866095323115,-1.1581556709382683,6.41504181459248,-0.6730426549911499,1.320253610610962,-0.8881082534790039
5.516942626953125,-0.183092641050741,-1.317439420247823,7.389292505183816,-0.7544687986373901,1.4178494215011597,-0.9783539772033693
5.526922607421875,-0.4229081630595028,-1.6796788873329758,8.220233041471243,-0.8609467148780823,1.478077054023743,-1.0431166887283323
5.53690380859375,-0.7451823341768234,-2.2179900838561357,8.884823324128984,-0.9508371949195862,1.4559518098831177,-1.0493189096450806
5.5468837890625,-1.1648207548506555,-2.7759447230041023,9.272427387964726,-0.98440420627594,1.3489432334899902,-0.9891480803489684
5.55686474609375,-1.6176893180184064,-3.260341812379658,9.569635726082325,-0.8863836526870728,1.158735752105713,-0.8628447651863098
5.566844482421875,-2.0137167806759475,-3.5804300908252595,9.982298827850816,-0.6475995779037476,0.869647741317749,-0.6753630638122559
5.57682470703125,-2.3015328749395905,-3.752304953095317,10.428401257884502,-0.2926010191440582,0.5357674956321716,-0.4467730224132538
5.586805908203125,-2.4489684386104345,-3.7435207581371066,10.84846206868887,0.0875641554594039,0.2079512923955917,-0.1993229985237121
5.596785888671875,-2.435756928729266,-3.5905920038774606,11.12183360414505,0.4199817776679992,-0.084918662905693,0.0402738712728023
5.606765625,-2.29756104869917,-3.3730715349808333,11.32250698313713,0.6456246376037598,-0.3155988752841949,0.2585088014602661
5.61674658203125,-2.06570883371979,-3.118006640587747,11.443463266813756,0.752988874912262,-0.4715921878814697,0.4440877139568329
5.626726806640625,-1.8042934012562035,-2.9329058015197518,11.478072807902096,0.7372905015945435,-0.5418207049369812,0.5907215476036072
5.636707763671875,-1.503760741021484,-2.8470673007145524,11.36980298731923,0.628228485584259,-0.5627720355987549,0.703708291053772
5.6466875,-1.306998982515186,-2.795275154156983,11.210839921331406,0.4616084694862366,-0.5756981372833252,0.774491548538208
5.656667724609375,-1.1898841766975818,-2.746228799176216,11.057568929505347,0.2618175745010376,-0.5729303359985352,0.8185594081878662
5.666648681640625,-1.1364485007166862,-2.8327999981701373,10.827323419070243,0.0558149367570877,-0.5317809581756592,0.8350474834442139
5.67662890625,-1.1150241660244762,-2.9436276865422726,10.513345147937535,-0.1181288957595825,-0.4896601140499115,0.8338208198547363
5.68660888671875,-1.0918946348495782,-3.059543637964129,10.186112258434296,-0.2333014458417892,-0.4301714897155761,0.8153715133666992
5.696589599609375,-1.1921449612364172,-3.2369647361844778,9.815131412619351,-0.2702056467533111,-0.3651706576347351,0.8005587458610535
5.706569580078125,-1.3157768938630818,-3.306279387690126,9.411682129397988,-0.2286373972892761,-0.3477139174938202,0.7726504802703857
5.7165498046875,-1.3351190154537558,-3.331527810715139,8.849030710735917,-0.1343345940113067,-0.375038743019104,0.7344335913658142
5.72653076171875,-1.2838311651565133,-3.475309381923079,8.212594509416817,0.0073731923475861,-0.3975602388381958,0.6851805448532104
5.736510498046875,-1.1696249402619898,-3.795719147408009,7.594362073308229,0.1968832015991211,-0.3974577188491821,0.6221411228179932
5.746491455078125,-1.0459348477073014,-3.993142584693432,6.870430543887615,0.4037158787250519,-0.3522341847419739,0.5376561284065247
5.756471923828125,-0.8791916492372751,-3.893168298768997,5.973043312746286,0.6156026124954224,-0.2657639980316162,0.4217745363712311
5.766451904296875,-0.6491120699536055,-3.692652156165242,4.9466480088979,0.7980104684829712,-0.1418299674987793,0.2809100449085235
5.776432861328125,-0.406673432899639,-3.600792787635326,3.857122002875805,0.9312683939933776,0.0083273109048604,0.1325189769268036
5.78641259765625,-0.1925933867804706,-3.821842599701881,2.550672324806452,1.017367243766785,0.1081961393356323,-0.023613978177309
5.796392578125,-0.0004332768507301,-4.246910717274249,1.0834095689684151,1.070841670036316,0.1608284413814544,-0.1876758784055709
5.806373779296875,0.2562294081278145,-4.4365214349821205,-0.3247574393004179,1.1537673473358154,0.1998907029628753,-0.3598956763744354
5.816353759765625,0.7947646226651967,-4.191803454819321,-1.663824023336172,1.2901989221572876,0.1664808094501495,-0.5481984615325928
5.826333740234375,1.5110171418905258,-3.3244583107203245,-3.25570333892405,1.4360448122024536,0.0545428842306137,-0.6853968501091003
5.836314697265625,2.090684285022318,-1.7462566612206398,-5.227412577214837,1.439947485923767,-0.1656427383422851,-0.6341462135314941
5.846294921875,2.460732818423212,0.3537597349662333,-8.026305629608034,1.058132886886597,-0.4389295578002929,-0.2858740091323852
5.85627587890625,2.1695333653315902,2.059526784083992,-12.05927695134282,0.0908264443278312,-0.9493504762649536,0.2660967409610748
5.866255859375,1.6766089783683418,2.944545678170025,-17.912400922244785,-1.4714049100875854,-1.6398553848266602,0.7313191890716553
5.876235595703125,1.92818793034181,2.3812089075922964,-24.57421677274704,-3.06332802772522,-2.093436479568481,0.8550139665603638
5.886216796875,2.748488853062689,1.312773912654817,-28.550300670611858,-3.892784118652344,-2.082602977752685,0.5335707068443298
5.89619677734375,3.7436592898249614,1.8033482293605805,-29.353920069253444,-3.4841105937957764,-1.4296685457229614,-0.083740159869194
5.906177001953125,4.019442270337045,4.105151299543678,-27.67859148608446,-1.785836696624756,-0.3671489953994751,-0.7348223924636841
5.916157470703125,3.7127410044699904,6.480427602216601,-23.80315290527344,0.5976362228393555,0.7180595397949219,-1.205845594406128
5.9261376953125,3.3001974374279377,6.490676024508476,-19.233000706219677,2.565232276916504,1.6164648532867432,-1.4249595403671265
5.93611767578125,2.986286970834434,5.5101148355960845,-16.184323914706706,3.534578561782837,2.0855863094329834,-1.4237353801727295
5.946098876953125,2.6553894213438034,5.3489107126832005,-14.365000702100993,3.660805940628052,2.0700042247772217,-1.2304645776748655
5.95607861328125,2.0214991051152347,5.139098918467759,-12.234859143698214,3.216766357421875,1.5825645923614502,-0.8875977993011475
5.9660595703125,1.373086342537403,4.202192162364721,-9.959987627321482,2.374672174453736,0.911426842212677,-0.4203080236911773
5.97603955078125,0.7514560806840658,3.0703043936923144,-7.819029491350054,1.3794821500778198,0.2141643613576889,0.1263409405946731
5.986019775390625,0.3468935024585575,1.8937674820847807,-5.711584333401918,0.4034214317798614,-0.4310122728347778,0.6512848734855652
5.996000732421875,0.2627344061076641,1.2707276456944645,-3.91116046705544,-0.3840486705303192,-0.9558650851249696,1.1130937337875366
6.005980712890625,0.2156580360256135,0.9815249193780125,-2.0272224511981007,-0.8999677300453186,-1.340422511100769,1.4893468618392944
6.015960693359375,0.1073263291876763,0.924658684426546,-0.3113730570703745,-1.196514129638672,-1.462296724319458,1.7845004796981812
6.02594189453125,-0.0940219533912837,0.9233528625249862,1.290755849853158,-1.346993327140808,-1.2931581735610962,2.016565084457397
6.035921875,-0.2522533075710758,0.7906298609480261,2.792304321652651,-1.4004136323928833,-0.9865376949310304,2.141955852508545
6.045901611328125,-0.1484557735640555,0.7915113199576735,4.046498911827802,-1.4078118801116943,-0.6895284652709961,2.1431591510772705
6.055882568359375,-0.0561339203552342,0.7803043548319488,4.979928347209095,-1.3888612985610962,-0.3747960329055786,2.0558278560638428
6.065862548828125,-0.122160873693414,0.5216696391280741,5.971845627394318,-1.325106501579285,-0.0404367260634899,1.9078086614608765
6.075843017578125,-0.3275140445321798,0.074520147726871,7.061805348658561,-1.2050522565841677,0.2725882828235626,1.72111976146698
6.08582373046875,-0.6153643333263695,-0.3973566289020702,8.200563879883289,-1.021675944328308,0.5390039086341858,1.495127558708191
6.0958037109375,-0.9524801728099584,-0.7063466267608106,9.261476370361446,-0.8048475384712219,0.7614577412605286,1.23608136177063
6.10578466796875,-1.326226099424064,-0.853113862716034,10.175440057772397,-0.587005615234375,0.8937334418296814,0.961025059223175
6.115764892578125,-1.6791873044237493,-0.95523736256361,10.782076748633385,-0.418778508901596,0.9513818621635436,0.7096154689788818
6.125744873046875,-1.955760558530688,-1.068302454598993,11.14913779065609,-0.3485510349273681,0.9439589977264404,0.5013336539268494
6.1357255859375,-2.122671807043999,-1.3202999242454767,11.216844130182263,-0.3884481191635132,0.8935650587081909,0.3493417501449585
6.14570556640625,-2.1519556230649357,-1.6122499034434556,11.092322262978554,-0.5267153382301331,0.8352718949317932,0.2692533433437347
6.155685546875,-2.11317318020612,-1.886461104594171,10.85612631970644,-0.7398942112922668,0.7918378710746765,0.2599615752696991
6.165666748046875,-2.1068714497134087,-2.182873908419907,10.508134719812867,-0.969432294368744,0.735652506351471,0.3135290741920471
6.175646728515625,-2.0562571147635578,-2.5696914980530736,10.135642300391195,-1.147594332695007,0.6206976771354675,0.4049665629863739
6.185626708984375,-2.004701115049422,-3.0828461876183746,9.832401696372033,-1.2119781970977783,0.4624907374382019,0.5019034743309021
6.195607177734375,-2.096907835712284,-3.4488387236267326,9.690938631239533,-1.1361616849899292,0.304309606552124,0.5853046774864197
6.205587158203125,-2.2600229068130253,-3.4690579203128813,9.764742118597033,-0.9409101605415344,0.129683032631874,0.6645526885986328
6.215568359375,-2.4615005879253147,-3.47059842775315,9.73786697115302,-0.6625219583511353,-0.0326382219791412,0.7216721773147583
6.225548095703125,-2.554939042340219,-3.553402967689931,9.681234398826955,-0.3214934468269348,-0.1918812692165374,0.723970353603363
6.2355283203125,-2.553496734577417,-3.573216798445582,9.728760120111705,0.0296065136790275,-0.3638716638088226,0.6605474352836609
6.245509033203125,-2.537700615030527,-3.460278693790733,9.593024784976244,0.3243222832679748,-0.4988351762294769,0.5614013075828552
6.255489501953125,-2.450221799672395,-3.2707372419267893,9.26971053022146,0.5458320379257202,-0.6035515069961548,0.4455300867557525
6.26546923828125,-2.1954376219168306,-3.1255338212221857,9.027622606301309,0.6712955236434937,-0.6600711345672607,0.3175416886806488
6.2754501953125,-1.822453911846876,-3.021312983769178,8.791357104924321,0.7062641382217407,-0.6410479545593262,0.1923025548458099
6.28543017578125,-1.3833238050438463,-2.8858088270410893,8.5190137434721,0.6699272394180298,-0.5394969582557678,0.0869907438755035
6.29541015625,-1.0220705725170671,-2.6803856231734158,8.126458194708823,0.5610228776931763,-0.3910377323627472,0.022390179336071
6.30539111328125,-0.7477662862554192,-2.4501103021219373,7.296238373911381,0.4120253622531891,-0.2462685108184814,-0.0095313480123877
6.31537109375,-0.5080877615645527,-2.226991720957309,6.259837808877229,0.2576427161693573,-0.1312902569770813,-0.0315804556012153
6.32535205078125,-0.3671620912443846,-2.076663212323934,5.207915265062451,0.1165693327784538,-0.082963079214096,-0.0626695752143859
6.335332275390625,-0.2130466844834387,-2.1307376245997847,4.035345065128803,-0.0248258784413337,-0.1219725310802459,-0.105395995080471
6.3453125,-0.1410745772715657,-2.432544250293076,2.277518816015124,-0.1256697475910186,-0.1954357028007507,-0.1459957510232925
6.355293212890625,0.0261363117754459,-2.444770402398705,0.2157248176515102,-0.1534755378961563,-0.2683216035366058,-0.1935472786426544
6.365273193359375,0.289740267259255,-1.4127553589724005,-2.072110809716582,-0.080300435423851,-0.328292578458786,-0.2258151024580001
6.375253173828125,0.4100141216296702,0.748840564423427,-4.568489234277606,0.1001497656106948,-0.3593032360076904,-0.195320576429367
6.385234375,0.3076606124185025,3.293676803487539,-6.915656756058335,0.3669097125530243,-0.3684541583061218,-0.1103079617023468
6.395214111328125,0.1918840694673359,5.400355068716406,-8.843122363474965,0.6374384164810181,-0.4283007383346557,-0.023475594818592
6.4051943359375,0.3314391820866614,6.423202909216284,-10.670112749707698,0.7489950060844421,-0.5636810660362244,0.0026392042636871
6.415175048828125,0.4911790411332621,6.735872435837984,-12.97979020652771,0.602271318435669,-0.7264334559440613,-0.0863924026489257
6.4251552734375,0.6636749213784933,7.644017792358994,-15.53492243335247,0.1870882958173751,-0.9008651375770568,-0.284255713224411
6.435136474609375,0.986896017957106,8.98373436473608,-18.15672288882732,-0.4523678421974182,-0.994782030582428,-0.5468087792396545
6.4451162109375,1.58273739323318,9.36667862006724,-20.681476344001293,-1.1763076782226562,-0.93386572599411,-0.81316077709198
6.45509619140625,2.275298948008567,8.492812549766898,-22.64540910307169,-1.6724218130111694,-0.697614848613739,-1.0479708909988403
6.4650771484375,2.778890713328123,7.32361854826808,-23.171104709780217,-1.6945310831069946,-0.2954640090465545,-1.2328906059265137
6.475057373046875,2.9526711169585584,6.815218359753489,-22.256746470093727,-1.2003991603851318,0.221684068441391,-1.3353149890899658
6.485037109375,2.7813720087498424,6.622922933006286,-20.39458598628044,-0.3748012483119964,0.7207686901092529,-1.3387845754623413
6.49501806640625,2.325832034415752,6.015922669529915,-17.9343847905159,0.4612323939800262,1.0458184480667114,-1.2603988647460938
6.504998291015625,1.8402762765243648,4.8693251152426,-15.550957037830353,0.9811330437660216,1.1568195819854736,-1.1527796983718872
6.514978271484375,1.413469936982542,3.8328374564468857,-13.593511302691695,1.146683931350708,1.0762877464294434,-1.02589213848114
6.52495947265625,1.0464322758354243,3.0638325673297047,-11.48942539204359,1.0883474349975586,0.8573366403579712,-0.8406634330749512
6.534939208984375,0.6377397581983357,2.2971330325454478,-9.060738109439612,0.9146525263786316,0.5581318140029907,-0.6089559197425842
6.544919189453125,0.2587626163998618,1.6563754608958958,-6.637334320196509,0.6827594041824341,0.2151801288127899,-0.3502063751220703
6.554900146484375,0.0120628513026982,1.1451298928875475,-4.350389504188299,0.4193195104598999,-0.1053763106465339,-0.1047515943646431
6.56488037109375,0.0046239334736019,0.514436692199856,-2.168774363657832,0.0895714089274406,-0.2909960448741913,0.1324175298213958
6.574861083984375,0.0374523998314514,-0.2072467660330235,-0.3034001784950494,-0.2816577851772308,-0.3225057721138,0.3193434774875641
6.584841064453125,0.1018265992602333,-0.8683146467182785,1.4852823966532944,-0.6363112926483154,-0.2479549199342727,0.4225719273090362
6.5948212890625,0.1461975463084876,-1.4212535765960812,3.1135335868269203,-0.9648119807243348,-0.0893090814352035,0.4345183372497558
6.604802490234375,0.0864813287533819,-1.7292469281002878,4.37659011337161,-1.2377318143844604,0.1174749284982681,0.3676984310150146
6.6147822265625,-0.062121890457347,-1.9519186422802504,5.2847313782393925,-1.426479697227478,0.3193942308425903,0.2379076778888702
6.62476220703125,-0.2938946469923481,-2.291226292719692,5.982513151881099,-1.4954164028167725,0.54535973072052,0.0509265810251235
6.6347431640625,-0.5540525171428918,-2.769306892424822,6.67784051810801,-1.4157050848007202,0.7838076949119568,-0.1788951754570007
6.64472314453125,-0.7783885112732648,-3.180545806609094,7.393171392443776,-1.1961482763290403,1.004194259643555,-0.4441957771778106
6.654703125,-0.9626389440570026,-3.492436457812786,8.016430716803669,-0.8700213432312012,1.1493663787841797,-0.7061142325401306
6.66468408203125,-1.15013522689417,-3.7693081103444097,8.45444570197165,-0.4835641086101532,1.2031021118164062,-0.9184571504592896
6.674664306640625,-1.3888652186885475,-4.040942739005387,8.761942209869623,-0.0811154618859291,1.176430106163025,-1.0350185632705688
6.684644287109375,-1.585540467955172,-4.285817955556512,9.045095719149709,0.3124750852584839,1.0473737716674805,-1.0510081052780151
6.69462548828125,-1.678925146356225,-4.429751794716716,9.373419326499103,0.6689215898513794,0.8762230277061462,-0.9850853085517884
6.704605224609375,-1.7049582900181413,-4.365292474287748,9.711863345846533,0.9702240824699402,0.6669871807098389,-0.8589863777160645
6.714586181640625,-1.6576346671767532,-4.116470858198404,9.985027376031876,1.1979669332504272,0.4544706046581268,-0.6916905641555786
6.724566162109375,-1.5705106566056608,-3.7620384116023775,10.25818614552021,1.3482141494750977,0.2617239952087402,-0.5074270367622375
6.734546142578125,-1.4602929168254135,-3.3830782574713227,10.502027635109425,1.416560411453247,0.1102034300565719,-0.3013889193534851
6.74452734375,-1.371257519675046,-3.05487009319514,10.720636483764649,1.3954880237579346,0.0219581667333841,-0.0855459719896316
6.75450732421875,-1.297921942090243,-2.755672627086937,10.86254203196764,1.292744278907776,-0.0346116349101066,0.1232146993279457
6.7644873046875,-1.2102034727573394,-2.447671092276275,10.91970359660387,1.1266701221466064,-0.0898972079157829,0.3119978606700897
6.77446826171875,-1.1488690063506364,-2.2471289384484288,10.956023448741435,0.8954038619995117,-0.1475913822650909,0.4656350910663605
6.784448486328125,-1.1305286091484128,-2.1275832522220908,10.891142688030005,0.62119060754776,-0.1788810640573501,0.5829545259475708
6.79442822265625,-1.2078382049307226,-2.066327842400968,10.777662439322471,0.3344206213951111,-0.2040673792362213,0.6736753582954407
6.8044091796875,-1.2936331588551402,-2.0372586920440194,10.634942067605255,0.0828516706824302,-0.2395347654819488,0.7291387319564819
6.81438916015625,-1.3870841804906726,-2.0414330551192164,10.429090993714333,-0.0989005491137504,-0.2885164022445678,0.7452836632728577
6.824369384765625,-1.4676324659332631,-2.0925152998417613,10.143407089173794,-0.1943608969449997,-0.3358126282691955,0.7401166558265686
6.83435009765625,-1.486163563401997,-2.108627645730972,9.892430925399063,-0.2169716656208038,-0.3491015434265136,0.7018704414367676
6.844330322265625,-1.417883807902038,-2.025987648706138,9.59476958281696,-0.1984045803546905,-0.3352821469306946,0.640836775302887
6.854311279296875,-1.2820100872091948,-1.858124360165,9.084189712175728,-0.1519467979669571,-0.3299355804920196,0.5646194815635681
6.864291259765625,-1.0482700126565991,-1.6998808406233787,8.429935530093312,-0.1166357994079589,-0.3355535268783569,0.4711723029613495
6.87427099609375,-0.8235042488068341,-1.7629041368998586,7.473704480317234,-0.0884140133857727,-0.3051503598690033,0.3853905498981476
6.884252197265625,-0.6495841444447636,-1.993443223454058,6.51592152492404,-0.047090295702219,-0.2292511165142059,0.3094724714756012
6.894232177734375,-0.5487785222627222,-2.0756372302770614,5.499648386639357,0.0428465157747268,-0.1038756221532821,0.2529577910900116
6.904212158203125,-0.5082525236722082,-1.793139846818149,4.555525707808137,0.1824318170547485,0.0557002387940883,0.2131460458040237
6.914193115234375,-0.4966181269146502,-1.3734639436781406,3.5115327879488465,0.3404408693313598,0.2096858024597168,0.1726220697164535
6.92417333984375,-0.4131908519696444,-0.9335541577395052,2.2001146738171578,0.5170117020606995,0.3028814792633056,0.0950792282819747
6.9341533203125,-0.2635991331782192,-0.6583893091257661,0.8964549187272787,0.7077534198760986,0.3085463047027588,0.0167450066655874
6.94413427734375,-0.2734820831585675,-0.4840412251425907,-0.5507061293244362,0.8847423791885376,0.1776330471038818,-0.0068301642313599
6.9541142578125,-0.2526593676213174,0.2583631322208792,-2.1948019543617963,0.948223114013672,-0.1079369112849235,0.070853441953659
6.964093994140625,-0.3348812853645533,1.3772227116897702,-4.47799180175066,0.7730038166046143,-0.5029932856559753,0.2732804417610168
6.9740751953125,-0.4855737319394946,2.786032986298203,-7.61491269390583,0.1437449008226394,-1.1486793756484983,0.5745676159858704
6.98405517578125,-0.4152713115055114,4.809965163779259,-12.798687789446117,-1.1955602169036863,-1.92767071723938,0.918724000453949
6.9940361328125,0.4611680433489382,5.518157272276282,-20.124415292692184,-2.96003532409668,-2.310847282409668,1.116376876831055
7.00401611328125,1.6911767251640557,3.505436809161305,-25.851883423924445,-4.365522861480713,-2.005833864212036,0.9869449138641356
7.013996337890625,2.586023331911862,1.943036686035991,-28.588521387934684,-4.742206573486328,-1.2615234851837158,0.5244553089141846
7.023977294921875,2.923262943905592,2.9620205445840955,-29.69215015358925,-3.736985206604004,-0.2245008796453476,-0.1486301571130752
7.033957275390625,2.5187536302372813,5.416153526350856,-28.218794926095008,-1.6418161392211914,0.8688303232192993,-0.7600842118263245
7.043937255859375,1.778395866672695,6.312717166149616,-25.12320206962824,0.7433858513832092,1.6667557954788208,-1.15210223197937
7.05391845703125,1.4338162671796977,5.388251373946666,-22.292430362415317,2.561033010482788,2.060779333114624,-1.3482507467269895
7.063898193359375,1.3965757930658758,4.990574828907847,-19.974279676282404,3.529569149017334,2.1554982662200928,-1.3144339323043823
7.073878173828125,1.071466325457394,4.772630289380252,-17.147377503979204,3.827503204345703,1.7948558330535889,-1.1035946607589722
7.083859130859375,0.7869665161348879,4.548536579573154,-14.0207792683959,3.625625371932984,1.1761174201965332,-0.7837106585502625
7.093839111328125,0.5636816384926439,4.1604052769929165,-10.86586211630106,3.020570516586304,0.5057953000068665,-0.4635379314422607
7.1038193359375,0.6677623368225991,3.12397840847373,-8.221222637030483,2.126767158508301,-0.0099217351526021,-0.1834658831357956
7.11380029296875,0.955588733284548,1.7015293384827672,-5.901424768212437,1.1334468126296997,-0.2873988747596741,0.0472466982901096
7.1237802734375,1.2121823716148734,0.3075611706320196,-3.647230129161477,0.2582163512706756,-0.3763575851917267,0.2340829819440841
7.133760009765625,1.3232520520493387,-0.4896886199124157,-1.2766624425709248,-0.3405461311340332,-0.3822666108608246,0.4097986221313476
7.1437412109375,1.220662469059974,-0.7791082769151777,1.0405343038380146,-0.6577229499816895,-0.338241696357727,0.6009156107902527
7.15372119140625,0.8407886341501026,-0.8979605009846389,3.050303515931964,-0.7396167516708374,-0.2865550816059112,0.7980356216430664
7.1637021484375,0.3267920869331807,-0.8536115831051021,4.903634212079644,-0.6855313777923584,-0.3203911185264587,0.9694644212722778
7.173682373046875,-0.1385039230659604,-0.5244462642345578,6.373064959606528,-0.6179124116897583,-0.4499171376228332,1.0772223472595217
7.183662109375,-0.4412471720222383,-0.1492574088031426,7.378580557033419,-0.6112368106842041,-0.6040336489677429,1.116000413894653
7.193643798828125,-0.6248882407359778,-0.1443708788705989,8.158557214280963,-0.6677438020706177,-0.7207688093185425,1.0909738540649414
7.2036240234375,-0.7184511983133852,-0.4832358270438388,9.00654123982787,-0.7610021829605103,-0.7762219905853271,0.9985716938972472
7.21360400390625,-0.6620310266289859,-1.0478126242779195,9.688133510690928,-0.8678476214408875,-0.7531976103782654,0.8245879411697388
7.2235849609375,-0.5089683803239837,-1.7097867330878973,10.27133087377548,-0.9416056871414183,-0.6546494960784912,0.5788537263870239
7.233564697265625,-0.2956776214189827,-2.3396356649711727,10.78281441525817,-0.9619227051734924,-0.5138593912124634,0.2901225984096527
7.243544677734375,-0.0730359005184844,-2.773593775963783,11.127363181221485,-0.9233288764953612,-0.3287124037742615,-0.0121291056275367
7.25352587890625,0.0643544352823868,-3.059521426132321,11.25885254935026,-0.8494176268577576,-0.0443275682628154,-0.2781956791877746
7.263505859375,0.1377271665398031,-3.2528251531392334,11.2667622995615,-0.7025132179260254,0.2420354038476944,-0.5043008327484131
7.27348583984375,0.2657369854571297,-3.404323290073872,11.260442448890208,-0.4783493280410766,0.4586739540100097,-0.6774744391441345
7.283466796875,0.2716177140587941,-3.4940132056102158,11.28054532572031,-0.2094711810350418,0.595518946647644,-0.7835264205932617
7.293447021484375,0.1562016384504735,-3.421618708267808,11.222516330599785,0.0605472587049007,0.6723061203956604,-0.809659481048584
7.303427978515625,-0.0008502601537853,-3.278232858379185,11.071127499258518,0.296267032623291,0.659679114818573,-0.7546724677085876
7.313407958984375,-0.1812236323084682,-3.1536978394329545,10.900069506329295,0.4896335899829864,0.5642731785774231,-0.6360328793525696
7.3233876953125,-0.3159872728675603,-3.001462035873532,10.73329839693904,0.6012735962867737,0.4131359755992889,-0.4621954262256622
7.333368896484375,-0.4585962931647896,-2.8214555973351,10.516441944909095,0.6330581903457642,0.2488189339637756,-0.2338844835758209
7.343348876953125,-0.6521450079087168,-2.56086726334542,10.228677142441272,0.6019936800003052,0.0683911219239234,0.0001957047497853
7.3533291015625,-0.7117732549194246,-2.359103458768129,10.003659595787523,0.508083701133728,-0.1013057678937912,0.2316052168607711
7.363309814453125,-0.7739521362610161,-2.2083637389853594,9.777185420584678,0.367627888917923,-0.23909792304039,0.4440937042236328
7.373289794921875,-0.7413455324929207,-1.9848492903709407,9.40662426148653,0.185212567448616,-0.3647743463516235,0.6003421545028687
7.38327001953125,-0.6188246298480778,-1.830400486937165,8.983470160841941,-0.0278678406029939,-0.4576275050640106,0.7040439248085022
7.3932509765625,-0.5405010347176343,-1.865915452432632,8.451625383853912,-0.2393872737884521,-0.5102776885032654,0.7575172781944275
7.40323095703125,-0.4958983612727373,-1.963575031673908,7.812028672677278,-0.4333877265453338,-0.5045222043991089,0.7744905352592468
7.413210693359375,-0.4916667150523513,-2.0816320867776867,6.985179789617657,-0.6046939492225647,-0.4299539625644684,0.7637460231781006
7.42319189453125,-0.5980713628178462,-2.208631450010836,6.057004621502757,-0.6967044472694397,-0.281623899936676,0.7215775847434998
7.433171875,-0.626218758687377,-2.100242094701529,5.228832965406776,-0.6978549361228943,-0.1449107974767685,0.6459105014801025
7.44315283203125,-0.5439009428216144,-1.9153698036924005,4.173229687252641,-0.6386913657188416,-0.0181407891213893,0.5448600053787231
7.4531328125,-0.5555892982561141,-1.836354134644568,2.7150878109812733,-0.5586921572685242,0.1076847836375236,0.4168181121349334
7.46311279296875,-0.5242680581234396,-1.8443579928800464,0.9735153620541096,-0.4563454985618591,0.1878025233745575,0.2594287693500519
7.473093994140625,-0.4573492157131433,-1.9784572512462733,-0.9489987604349852,-0.2722121477127075,0.2906740307807922,0.1110648810863494
7.483073974609375,-0.439090359314531,-2.037966840313375,-2.527366852542758,0.0327901802957057,0.4359485208988189,0.0184096302837133
7.4930537109375,-0.5913092848043888,-1.072235483198985,-3.841480197107792,0.4390151798725128,0.5165184140205383,0.0023973728530108
7.50303466796875,-0.9261631707053632,1.2627449763774872,-5.494502840444445,0.8658325672149658,0.4418020844459533,0.0358188338577747
7.513014892578125,-1.3243766721650958,3.95709453523457,-6.890032485458255,1.206162929534912,0.2516427934169769,0.0840438902378082
7.5229951171875,-1.529337373087555,5.496783060336113,-7.681030302935838,1.2373687028884888,-0.0495684631168842,0.0997877120971679
7.53297607421875,-1.4319250466056168,5.288711972308159,-8.959273292696475,0.803257405757904,-0.3968390822410583,0.0179335884749889
7.542955810546875,-0.964868602805212,4.635667166015505,-11.27075107693672,-0.0033486038446426,-0.6388196349143982,-0.1901249587535858
7.552935791015625,0.0086451518137007,4.677663310223817,-13.944196379452944,-0.910089671611786,-0.6607526540756226,-0.4737966358661651
7.5629169921875,1.0587219946965574,5.037058932185173,-16.09012938122749,-1.6510785818099976,-0.3584119975566864,-0.745324969291687
7.57289697265625,1.7699191302284598,5.202574488556385,-17.52148787999153,-2.0457310676574707,0.1096915453672409,-0.9347199201583862
7.582876708984375,2.1684975925430656,5.435741439396143,-18.606812927192447,-1.969578504562378,0.5517352223396301,-1.0197240114212036
7.592857666015625,2.2044589866317805,5.957203938579559,-19.13462801027298,-1.389689326286316,0.811989963054657,-0.9317530393600464
7.602837890625,1.795656505814195,6.076098029029369,-18.644899204480648,-0.4712651669979095,0.8768071532249451,-0.6596037149429321
7.612818115234375,1.0614986198030412,5.895505315035582,-17.567397398251295,0.4740262329578399,0.7489256262779236,-0.3381654918193817
7.622799072265625,0.4680548802532255,5.94153524480462,-16.554359004104136,1.1509113311767578,0.5122631788253784,-0.1079985052347183
7.63277880859375,0.1631670204836875,5.926350535154342,-15.327211410808562,1.4776076078414917,0.2576093077659607,-0.0121127255260944
7.642760009765625,0.0436633467681705,5.633545984953641,-13.534654624575376,1.5346989631652832,0.0560383647680282,-0.0280205719172954
7.652739990234375,0.0722056967720389,5.489714437124133,-11.350936958807706,1.429508924484253,-0.0502087101340293,-0.1067689135670661
7.662719970703125,0.1789064414072781,5.329553685784339,-9.020264060232044,1.248674988746643,-0.077904038131237,-0.2086510360240936
7.67270068359375,0.3101734720222652,4.8405543633103365,-6.714083797878026,1.00766122341156,-0.061047289520502,-0.2945355772972107
7.6826806640625,0.4180472790248691,4.172568592995405,-4.75371428424716,0.697582483291626,-0.0380296558141708,-0.3506140112876892
7.6926611328125,0.516914699685946,3.3022549544796345,-3.2618016557991503,0.307404100894928,-0.0134806390851736,-0.3667442202568054
7.70264208984375,0.5774260862067342,2.124017814825475,-2.1342671139001843,-0.1324144899845123,0.0319875031709671,-0.350648283958435
7.7126220703125,0.5947513880822807,0.9366092344611884,-1.1124714128017426,-0.5555702447891235,0.0844757482409477,-0.327522724866867
7.722601806640625,0.6945854618184268,0.0481602928612381,-0.0616717355370521,-0.9219036102294922,0.1303903460502624,-0.313814252614975
7.7325830078125,0.8142104968912899,-0.5244021328318864,0.9837024095475672,-1.2135143280029297,0.2031929194927215,-0.2947369813919067
7.74256298828125,0.9280755071327088,-0.9622095396637916,1.968615363928676,-1.421031832695007,0.3301376402378082,-0.2482563555240631
7.75254296875,1.0201029257059098,-1.4351543839156626,2.985136924016476,-1.5540708303451538,0.4742602109909057,-0.1800346970558166
7.762523681640625,1.0859369685541838,-2.0206343049794437,3.903619550156593,-1.619479775428772,0.6125010848045349,-0.1025906801223754
7.77250390625,1.039243825636059,-2.6757681925058363,4.64578640896976,-1.6151257753372192,0.7497153878211975,-0.0171697884798049
7.78248486328125,0.9000799773566425,-3.324544235438108,5.349460747781396,-1.5375750064849854,0.8745057582855225,0.0584389828145504
7.792465087890625,0.6700280897974967,-3.899013517665863,5.954446748825907,-1.3808146715164185,0.965696096420288,0.1335422545671463
7.80244482421875,0.3003197481364011,-4.452697786018252,6.497957413688302,-1.1151362657546997,1.0240310430526731,0.2071473002433776
7.81242578125,-0.1065844978444278,-4.990096690002083,7.178697451636195,-0.7533842325210571,1.026304841041565,0.2695646286010742
7.82240576171875,-0.4713775949351489,-5.373142652142048,7.830234775975346,-0.3296453654766083,0.9520081281661988,0.3063512146472931
7.832385986328125,-0.783516083420068,-5.509930711200833,8.300829842230677,0.103930577635765,0.7900261282920837,0.34323650598526
7.842366943359375,-1.1456002138130366,-5.454288318955898,8.629804606965184,0.5231038331985474,0.5687322020530701,0.3955742418766022
7.8523466796875,-1.4907900541588663,-5.298085365331173,8.90023891992569,0.8746432065963745,0.3951718807220459,0.4845262169837951
7.862326904296875,-1.8809879338800903,-5.036993465733528,9.144674868276716,1.164578557014465,0.255828320980072,0.6016009449958801
7.87230810546875,-2.008819656284153,-4.62618388287723,9.4247678209424,1.4151804447174072,0.0773808062076568,0.7099828124046326
7.8822880859375,-1.9908337716080249,-4.220220278747379,9.723865333807469,1.6217000484466553,-0.104433074593544,0.795462429523468
7.892267822265625,-2.0448890407919884,-3.818315010097623,10.067888030070064,1.7654407024383545,-0.2570913434028625,0.8403915762901306
7.902248779296875,-2.075525440465659,-3.3284272143512963,10.349937377500533,1.8391588926315308,-0.3760394155979156,0.8568897247314453
7.912228759765625,-2.063740748517215,-2.7706124220654367,10.522729062354564,1.8369667530059812,-0.4576397240161896,0.8511044979095459
7.922208984375,-2.040138339133561,-2.2383295459210872,10.609251161509752,1.7591341733932495,-0.4962344467639923,0.8256796598434448
7.93218994140625,-1.9928084326818585,-1.7810381978750227,10.657473048365116,1.6231379508972168,-0.4847868382930755,0.7877820730209351
7.942169921875,-1.9517716350249943,-1.3693737517550586,10.676391683846711,1.4285869598388672,-0.4352455139160156,0.7411508560180664
7.95214990234375,-1.8870562940083444,-1.0504644539609551,10.615282258367538,1.194680094718933,-0.4047406017780304,0.6815181970596313
7.962131103515625,-1.744485706025362,-0.8839564524862915,10.410585030686857,0.9399742484092712,-0.3638378977775574,0.6298088431358337
7.972111083984375,-1.568142612300068,-0.7224762891110033,10.180456424629687,0.6775309443473816,-0.2754097580909729,0.5752420425415039
7.982091796875,-1.2360333489321171,-0.5924643731236457,9.945210913950204,0.4262311160564422,-0.1543394178152084,0.5220850110054016
7.99207177734375,-0.930490751580894,-0.5107286679947749,9.586219781136512,0.1965119242668151,-0.0142102651298046,0.4569489359855652
8.0020517578125,-0.652512452981621,-0.3706290001699701,9.169463857096432,-0.0337957963347435,0.1180029809474945,0.3915295302867889
8.012031982421876,-0.3842304957494139,-0.1730631222065538,8.393525077062845,-0.2869697213172912,0.1766609698534011,0.3650971055030823
8.022011962890625,-0.1085566747002303,0.0430944517058786,7.12329705145359,-0.5155487060546875,0.4964284002780914,0.3748644292354584
8.031992919921874,-1.0850571900449693,0.1278853522874415,5.7188177917867895,-0.51984041929245,1.6996691226959229,0.0052706790156662
8.041972900390626,-2.115216522601992,-1.017149190466851,1.4437380878657102,-0.3813102841377258,0.9600996375083924,-0.5086765885353088
8.051952880859375,-0.3779224816463887,-2.69752643532753,0.099359953418374,-0.2136067897081375,1.087012529373169,-0.8338368535041809
8.061933837890624,-2.176246014712751,-2.2362356423817573,-0.4300765933841466,0.1086032018065452,1.211518168449402,-0.7879784107208252
8.071913818359375,-2.6811858336403964,-1.548716173426807,-1.808753303274512,0.6841160655021667,0.9841675758361816,-0.6851092576980591
8.081894775390625,-1.9255198801763356,-0.108435258543957,-2.7970161526054143,1.4741781949996948,0.7110140919685364,-0.6428605318069458
8.091874755859376,-1.882733754634112,0.7677644606020301,-2.914517911913991,2.357640266418457,0.3984876275062561,-0.6767170429229736
8.101855224609375,-1.3074836972922086,1.2855197027653456,-2.715593422415852,3.1395881175994877,0.0099775549024343,-0.7610948085784912
8.1118359375,-0.2801237861953675,1.8711366942122576,-2.9275901594549416,3.527441024780273,-0.537906289100647,-0.8200071454048157
8.12181591796875,1.2213910755954682,2.44747045513764,-3.8896985768318175,3.2926347255706787,-1.0181528329849243,-0.7054101228713989
8.1317958984375,3.002725187677145,2.911719513367116,-5.51360969197452,2.3507354259490967,-1.205719828605652,-0.3214949071407318
8.141777099609374,5.063287598419189,3.487647469970584,-8.17700530964136,0.7087345719337463,-0.9124990701675416,0.0171094816178083
8.1517568359375,8.104415874248742,3.788108380143344,-12.6920020231843,-1.5395067930221558,-0.3211492598056793,0.241521805524826
8.16173681640625,9.705047236090898,3.127658850552141,-19.130903436791897,-3.745509147644043,0.0591076463460922,0.383416086435318
8.1717177734375,8.718228155827521,0.9975029713630676,-24.059426006412505,-5.089350700378418,0.1740691214799881,0.550425112247467
8.181697998046875,5.894003678300977,-0.7033470796186476,-24.80553546537161,-5.161398887634277,-0.253873735666275,0.6602206826210022
8.191677978515624,3.567450490003824,0.0961057008627802,-22.63488303288221,-4.048111438751221,-0.8164105415344238,0.6588893532752991
8.201659423828126,2.205586529356986,2.1236735314324497,-18.572729455804826,-2.2963647842407227,-1.39226496219635,0.7061447501182556
8.211639404296875,0.6653235653683542,4.085190461532771,-14.83772576612234,-0.4693639576435089,-1.9741989374160769,0.8109925985336304
8.22161962890625,0.4475517520591616,4.482963160422444,-11.701263139128685,0.8373225331306458,-2.0762059688568115,1.089205622673035
8.2316005859375,1.0636141506522894,3.589692132428288,-9.193150437632202,1.4331449270248413,-1.71416175365448,1.364360809326172
8.241580322265625,2.2191914224699136,2.7781805192321536,-7.900167559379339,1.521944522857666,-1.265816569328308,1.3895032405853271
8.251560302734376,3.576646772894263,2.161764192634821,-6.167663967570662,1.3323578834533691,-1.0354474782943726,1.2484519481658936
8.26154150390625,2.778592899425328,1.8480185612142088,-3.474382914727926,0.959628403186798,-1.0920249223709106,0.9220151901245116
8.271521484375,-0.0774081607859581,1.7559581171542404,-0.7749158667266368,0.4107037484645843,-1.1982245445251465,0.5550254583358765
8.28150146484375,-2.037221574904025,2.1631066932849583,0.7036264080166816,-0.1729952841997146,-0.5884283781051636,0.4119985401630401
8.291482421875,-0.868034076211229,1.9140090367332097,1.2686433867663145,-0.6322214603424072,0.269399493932724,0.3922293782234192
8.30146240234375,1.2350450685471297,1.5578741701334713,1.1774912897229195,-0.9719797372817992,0.9522764086723328,0.139052152633667
8.311443603515626,1.6976298468261957,1.314089817558974,1.4630629660606382,-1.3376251459121704,1.5525059700012207,-0.3071468770503998
8.321423583984375,1.1966405190899967,0.8309550032041967,1.39204004933238,-1.8057624101638796,2.228401660919189,-0.6885527968406677
8.3314033203125,0.9350390625350176,0.2103536460071802,0.5847253033041954,-2.334970474243164,2.939504384994507,-0.9272732734680176
8.34138427734375,0.5887051667205989,-0.7480222337778657,-0.1985311062663793,-2.810570478439331,3.512861490249634,-1.1113295555114746
8.351364501953125,-0.1289879067018628,-1.8678043349191544,-0.5847749876648187,-2.932765483856201,3.5910756587982178,-1.407479166984558
8.3613447265625,0.1075526122242212,-2.6023013897567986,0.2810644280463457,-2.233785629272461,2.7051055431365967,-1.8247159719467163
8.37132568359375,0.943374198551476,-5.856074637401104,2.1765753927975893,-1.666332483291626,2.565605640411377,-1.5506458282470703
8.381305419921874,-0.9821329682737588,-6.026229544010758,0.7906722387850285,-0.8687464594841003,1.5348156690597534,-1.2675873041152954
8.391285400390625,-1.2088228320538996,-6.338026963973045,2.1691613171488044,-0.3017044067382812,0.3240844905376434,-0.83531653881073
8.4012666015625,-2.1343585915759204,-6.0064259423881765,1.6839099490314722,0.0144762340933084,-0.65821772813797,-0.4627977311611175
8.41124658203125,-2.450745969676971,-5.420847237125039,1.2931371920317412,0.1192204877734184,-1.2709871530532837,-0.1515666246414184
8.421226318359375,-3.2789287316888567,-5.047345348399877,1.8547423165112733,0.3287994265556335,-1.615484595298767,0.3507087528705597
8.431207275390625,-5.385078004607558,-5.567460524627566,3.968867390614748,0.7173818349838257,-1.9132754802703855,0.9401901364326476
8.4411875,-5.769099533781409,-4.478120104305446,5.632171189469099,1.2307885885238647,-2.0754435062408447,1.3783718347549438
8.451167724609375,-5.055899241733551,-3.0576793053969737,6.340455067902803,1.7454402446746826,-2.265504837036133,1.3684313297271729
8.4611484375,-3.222066442260146,-1.6733493920505045,7.039723280709982,2.171669006347656,-2.039414167404175,0.9990738034248352
8.47112841796875,-1.125283255840838,-1.4570951436974109,9.123344495478271,2.361130475997925,-1.648144245147705,0.5036858916282654
8.4811083984375,-0.4135387155592441,-1.8803969822496172,9.720651047936082,2.084238290786743,-1.1711007356643677,0.153285413980484
8.491089599609374,-0.800720608460158,-2.4168641583412884,9.096820061168074,1.6873711347579956,-1.0643945932388306,-0.0898614525794982
8.5010693359375,-1.053067183805257,-2.005083976887166,9.367049791467188,1.2924644947052002,-0.9437586069107056,-0.3529477119445801
8.511049560546875,-0.6181161893177777,-0.8967036327913402,9.82477953093052,0.8548834323883057,-0.4756536781787872,-0.6538297533988953
8.5210302734375,-0.8608958948943763,-0.7351856216236948,10.039335304802655,0.3185009360313415,-0.0114818569272756,-0.9522401690483092
8.5310107421875,-1.14332576607503,-1.350019209074229,9.13353095844984,-0.3292829096317291,0.2041803896427154,-1.194826364517212
8.54099169921875,-0.1327285545349121,-2.1658596452549097,7.561931629824638,-0.8374027013778687,0.6429291367530823,-1.1749621629714966
8.550971435546876,-1.183384585545212,-3.219526110127568,8.481492698851227,-1.1189217567443848,1.298097848892212,-1.0624539852142334
8.560951416015625,-1.1490420248299835,-3.438701068232953,8.500470955565572,-1.1933538913726809,1.4827885627746582,-0.9948150515556335
8.5709326171875,-1.6444100055530666,-3.254849352443218,5.87366816175878,-1.051876664161682,1.0798392295837402,-0.8639422655105591
8.58091259765625,-1.6762141338318586,-3.267510681095719,3.4954870775550604,-0.7339276671409607,0.2479484230279922,-0.6570201516151428
8.590892333984375,-1.2824250977508722,-3.893129135802388,2.245825454634428,-0.2586053907871246,-0.7196565866470337,-0.2917593419551849
8.600873291015626,-1.5641332305282354,-4.378206316396594,1.88188400593698,0.3139585256576538,-1.5066546201705933,0.161864697933197
8.610853515625,-2.563529176031053,-3.3035978935211894,2.416764205098152,0.9819312691688538,-1.9263941049575808,0.5609572529792786
8.620833740234374,-2.1524150572702285,-1.5132652130782602,3.8016362624973055,1.5472630262374878,-2.078822374343872,0.7407272458076477
8.630814697265626,-1.2012345688819883,0.150154832566902,4.016788248696923,1.8311989307403564,-1.933943271636963,0.678910493850708
8.64079443359375,0.2028499193135648,1.121278331048414,3.230223445230722,1.7966080904006958,-1.5660442113876345,0.5177425742149353
8.6507744140625,1.268562138223648,1.2147663967587052,1.6380378401726483,1.5021493434906006,-1.1296764612197876,0.355238676071167
8.660755615234375,1.6063561692297457,0.9564163432151078,-0.8972533756285905,1.022064447402954,-0.668387770652771,0.2741834819316864
8.670735595703125,1.3715373595297335,0.9208218096774072,-3.501270921653509,0.4512768387794494,-0.3123250305652618,0.2996800541877746
8.680715576171876,1.1098841727875173,1.251321957348287,-6.097777361395955,-0.1129722893238067,-0.2037906497716903,0.3540181219577789
8.6906962890625,0.8688936887152493,1.9217397771157323,-9.090136053359508,-0.5497655868530273,-0.1205540895462036,0.4065985083580017
8.700676513671874,0.5284986448979004,2.852827179415524,-11.546091282117366,-0.8204002976417542,-0.0849088728427887,0.4421170353889465
8.710656494140625,0.5943211799714714,3.719466513332725,-13.95337688025236,-0.9031559228897096,-0.0467303283512592,0.4929578304290771
8.720637451171875,0.5627957955688238,4.161385520201922,-15.77377093695998,-0.7299356460571289,-0.0038567348383367,0.6439094543457031
8.730617431640624,0.1478513779301196,4.299070820361376,-16.330539727324247,-0.4083158075809479,0.0395448021590709,0.9157204031944276
8.740597412109375,-0.2835315853448584,4.753635373792052,-15.934244407510755,0.0334148854017257,0.0617850199341774,1.1283602714538574
8.750578369140625,0.0206374586308374,5.130609322541952,-14.708336000621316,0.4636493623256683,-0.0215130671858787,1.1738739013671875
8.760558349609376,0.9277908449724316,5.878819553172588,-13.098090422737595,0.7214078903198242,-0.0202814750373363,1.0723031759262085
8.770539306640625,1.4482242933690548,6.147173552727699,-11.294965480738878,0.670905590057373,-0.0336313694715499,0.969539761543274
8.78051953125,1.575761270610243,5.680517579486966,-10.186413871729371,0.3832540214061737,-0.0120504358783364,0.8796287178993225
8.79049951171875,1.7069377733975648,4.688568442858755,-9.610567455929518,0.0094761736690998,0.0956920087337493,0.7245147824287415
8.800480712890625,1.8366478568941356,3.493482751995325,-9.164334677514434,-0.2996708452701568,0.2767070531845093,0.5483419895172119
8.81046044921875,1.4507698861986398,2.549625446102023,-8.276624790778756,-0.4961876273155212,0.4291122853755951,0.3930674195289612
8.8204404296875,1.0168569295220076,1.963936704593152,-6.83808310251236,-0.5607185959815979,0.5103468298912048,0.2694985568523407
8.83042138671875,0.8063673821754753,1.3718828119665385,-4.804081950959563,-0.543681800365448,0.5277335047721863,0.1520403772592544
8.8404013671875,0.8228331446122378,0.8889851673685014,-2.6068396177083253,-0.511540949344635,0.5200002193450928,0.0364458039402961
8.850381591796875,0.8577453219089657,0.835851835335046,-0.4324415689498186,-0.5174416899681091,0.4645135104656219,-0.0890250355005264
8.8603623046875,0.8039022341709584,1.2557929652824995,1.3971166219443083,-0.5920105576515198,0.3453761637210846,-0.2144646346569061
8.870342529296876,0.5698107158321887,1.2140171127613633,3.0057196933180093,-0.7169753909111023,0.2104806900024414,-0.3200853168964386
8.880322509765625,0.532148582240194,1.0794204262670128,4.117349394598603,-0.8574776649475098,0.053989689797163,-0.416422963142395
8.8903037109375,0.6455343575973064,0.6711567285012453,4.642210888570546,-0.9800890684127808,-0.0976592302322387,-0.5046377778053284
8.900283447265625,0.6245446879953146,0.1118446103297173,4.784962824469805,-1.0820236206054688,-0.2973906397819519,-0.5613812804222107
8.910263427734375,0.2142920083694159,-0.1703470681808888,4.302685503727197,-1.095895290374756,-0.4626238048076629,-0.582193911075592
8.920244384765626,-0.0518739065568894,-0.4368994982067495,4.244030485662818,-1.0193983316421509,-0.6137388944625854,-0.5858669281005859
8.930224365234375,-0.2060559122806415,-0.8283856641728431,4.355421068614721,-0.8939999341964722,-0.6953823566436768,-0.5403074026107788
8.94020458984375,-0.3721287006758153,-1.3463260536447166,4.69475999097526,-0.7612478137016296,-0.6788502335548401,-0.4498308002948761
8.950185546875,-0.5970386587692424,-1.8509810642816125,5.094066767564415,-0.6347876191139221,-0.585232138633728,-0.3380177319049835
8.96016552734375,-0.9068208299189804,-2.262595679910481,5.576682526481151,-0.5257623195648193,-0.5507457852363586,-0.2338710874319076
8.9701455078125,-0.9385602223984896,-2.6391777067333457,6.0706052768319845,-0.4213142395019531,-0.5465686321258545,-0.118068054318428
8.980126708984375,-0.8085545169562101,-3.040801820354164,6.781286279535293,-0.3307104408740997,-0.5466067790985107,-0.0257732700556516
8.9901064453125,-0.5462210563322529,-3.345743675333261,7.66996764165163,-0.2512680888175964,-0.495787501335144,0.0572899244725704
9.00008642578125,-0.4214745500598102,-3.464656470483541,8.634460908338427,-0.1689178943634033,-0.3117593824863434,0.1291429996490478
9.0100673828125,-0.5408791107824072,-3.5630107539907097,9.608094343814251,-0.0763190016150474,-0.1156335324048996,0.1588569581508636
9.020047607421876,-0.5175998324058949,-3.65942150221467,9.931038596212863,-0.0027350748423486,0.1179697960615158,0.1566663235425949
9.030027587890626,-0.3295926774371415,-3.606317104014754,9.878464359366893,0.0574473068118095,0.3260793387889862,0.1225035563111305
9.040008544921877,-0.206143444433622,-3.666497139689326,9.912125805950163,0.0987856835126876,0.4838443100452423,0.0924609526991844
9.049988525390624,-0.0721593916785903,-3.807756498943269,9.826074831438063,0.1446852684020996,0.5693520307540894,0.0748454704880714
9.059968505859375,-0.0331555428877472,-3.851584534753859,9.753468444910643,0.1935445964336395,0.5720028281211853,0.0493671484291553
9.069949462890625,0.0811558959469199,-3.7824224434614178,9.741544782882928,0.2662973701953888,0.5017629861831665,0.0242695175111293
9.079929443359376,0.189962380689755,-3.682172263205051,9.80422248059213,0.3515666127204895,0.3619527816772461,-0.0085603976622223
9.089910400390623,0.3532505433350801,-3.520455222333968,9.846794963383674,0.44315966963768,0.1907708793878555,-0.0401883646845817
9.099890625,0.5190391079613939,-3.399708197493851,9.893117154097556,0.5082074403762817,-0.009772035293281,-0.0479414463043212
9.109870361328126,0.5620918485505506,-3.2911993074581023,9.78419442256391,0.5538622736930847,-0.3413672745227813,-0.074971467256546
9.1198515625,0.7434598212331534,-3.065840107759833,9.617721419337393,0.5894560813903809,-0.6966578960418701,-0.1021934747695922
9.12983154296875,0.9298518691554664,-2.738033217760921,9.57999579205513,0.5720579624176025,-0.9505537748336792,-0.124564029276371
9.1398115234375,0.76364299675785,-2.494067225009202,9.111104022586344,0.490277498960495,-1.0375930070877075,-0.1572834700345993
9.14979248046875,0.408630887110345,-2.25399064091146,8.27327957200408,0.3540134131908417,-0.9690743088722228,-0.1951347142457962
9.1597724609375,0.1278903846555855,-1.9583242715388536,7.098149750715494,0.152915358543396,-0.7526134848594666,-0.2270949929952621
