seconds_elapsed,ax,ay,az,gx,gy,gz
0.07237451171875,0.0982158248845487,0.7631359970837831,1.1582149268448352,-0.0556891150772571,0.0265598408877849,0.1681115329265594
0.082354736328125,0.1197902355719357,0.8994204905346035,0.9516922373026608,-0.0587136670947074,0.0629878863692283,0.1210207194089889
0.092333740234375,-0.1875109689496457,0.4695008412778377,0.4203226766109466,-0.0549758151173591,0.0972233787178993,0.1103319898247718
0.1023134765625,-0.1665348894815891,0.1983630562230944,0.5347644638270139,-0.0240786187350749,0.2207421213388443,0.1083157137036323
0.112292724609375,-0.1166601939179003,0.0142068045288324,0.7001373968571424,0.0400765687227249,0.3508143424987793,0.1173840388655662
0.1222724609375,-0.2042170429483056,0.0575751138731837,0.7874070995092392,0.1253358125686645,0.4699077010154724,0.102386973798275
0.13225244140625,-0.3519143993604928,0.2638470435246825,0.8889590100139378,0.2046257108449936,0.5723505020141602,0.0670012906193733
0.142231689453125,-0.6473791817463934,0.3390986838638782,1.043715856483579,0.2677218616008758,0.6828519701957703,0.0300952047109603
0.15221142578125,-0.8382956482905894,0.2466378423094749,1.4075474150657652,0.3119722902774811,0.76713627576828,-0.0100286426022648
0.16219140625,-1.1947747252181171,0.1843620033994317,1.018261681753397,0.3439337015151977,0.6299411654472351,-0.0609496161341667
0.172170654296875,-1.131376019757986,-0.0016942366972565,0.4889274262815714,0.3761467337608337,0.3163793981075287,-0.1003293842077255
0.182150390625,-0.8060418765481561,-0.4294757048815488,0.153297879832983,0.3812607824802398,-0.1366783380508422,-0.1028876155614852
0.192129638671875,-0.5531063223339617,-0.8715119083896279,-0.0828653302133083,0.355903297662735,-0.6267821192741394,-0.0628740116953849
0.20210986328125,-0.1435577723894268,-1.1103586584314704,0.1814414397776126,0.2988091111183166,-1.000543236732483,-0.0143626676872372
0.212089599609375,0.1909521223794668,-1.0703463815167549,0.6021966625869274,0.2157065719366073,-1.196247100830078,0.0038181911222636
0.22206884765625,0.3321146336628124,-0.791540253791213,0.7960802353084087,0.0947077125310897,-1.2116167545318604,-0.0292159244418144
0.232048583984375,0.3084694445833563,-0.4089169009774923,0.7760913402467966,-0.0980769768357276,-1.049018144607544,-0.1293394565582275
0.242027587890625,0.3479212015384808,0.0089551676109433,0.5855144078552723,-0.3612550795078277,-0.7684875726699829,-0.2930609881877899
0.2520078125,0.008979680997692,0.1999701991587877,0.5969155073136091,-0.6142099499702454,-0.4613640904426574,-0.405454933643341
0.261987548828125,-0.4480776025641709,0.2180795640841126,0.6267191094249487,-0.867739737033844,-0.1659654825925827,-0.4976724684238434
0.271966552734375,-0.483697562804073,0.2693663914680481,0.5484978056252002,-1.0802417993545532,0.034715786576271,-0.5598534345626831
0.281946533203125,-0.5567028855212033,0.2172688322231173,0.3266904531896114,-1.2251228094100952,0.1031217351555824,-0.5589317083358765
0.291926513671875,-0.6691574444428086,0.1436624748729169,0.1634586238414049,-1.3113079071044922,0.1057283282279968,-0.4915731549263
0.301905517578125,-0.7693588171213864,0.1538480610616505,0.225697345611453,-1.3226271867752075,0.1113859415054321,-0.3651209473609924
0.3118857421875,-0.7878850922845304,0.1180444878831505,0.4042413103818893,-1.244658350944519,0.1662565171718597,-0.2394929975271225
0.321864501953125,-0.7451191327475011,0.016069821921736,0.5983259586334229,-1.088370680809021,0.2659298479557037,-0.147739365696907
0.3318447265625,-0.6863268981695175,-0.0701131084069609,0.6945955448210239,-0.8830384016036987,0.3825619220733642,-0.0888054817914962
0.341824462890625,-0.6190003517411649,-0.1030913950316607,0.6474509318083524,-0.6593677401542664,0.5087619423866272,-0.0771331191062927
0.3518037109375,-0.439044583944045,-0.0821941529534757,0.4655120639026164,-0.4428175389766693,0.6209278106689453,-0.1167823821306228
0.36178369140625,-0.1769942876430228,0.0610943740405142,0.1013221934020519,-0.2557256817817688,0.6157450675964355,-0.2074257284402847
0.3717626953125,0.1027641358386725,0.3134038322456181,-0.4338993665426969,-0.1185040771961212,0.4692841470241546,-0.305182009935379
0.38174267578125,0.2129406668256968,0.3490383324675262,-0.6764110688328743,-0.0517740547657012,0.3031947612762451,-0.3709149360656738
0.39172265625,0.0465917283702641,0.2475551032848656,-0.561706246766448,-0.0629623979330062,0.2314351052045822,-0.3630179762840271
0.401700927734375,-0.3707029787216335,0.1476665959477424,-0.1900000092864036,-0.109028160572052,0.2648423314094543,-0.283153235912323
0.41168115234375,-0.8116855084583163,0.0886819075375795,0.0927209537953138,-0.1594623625278473,0.361476868391037,-0.1836060285568237
0.421660888671875,-1.2674717126384376,0.2461167410448193,0.2113672069638967,-0.2042415589094162,0.5129558444023132,-0.0825310796499252
0.43164013671875,-1.484636207704246,0.4981431445248425,0.2466027709960937,-0.2369710803031921,0.6477314233779907,-0.0156765393912792
0.4416201171875,-1.3759455313608049,0.6751099231064319,-0.0135620768845081,-0.2374272793531417,0.7166356444358826,0.019913412630558
0.451598876953125,-1.324542822512239,0.874231834872812,-0.3704582832455634,-0.2110978662967682,0.8354817628860474,0.0406984537839889
0.4615791015625,-1.4142869524538515,1.133346296917647,-0.6177145497143268,-0.1659825891256332,1.0738317966461182,0.0774221122264862
0.47155908203125,-1.2724272892192006,1.1085793737992644,-1.1165040293186903,-0.1237929388880729,1.246932864189148,0.1341961622238159
0.481537841796875,-0.7523451384782791,0.888182034292072,-1.5453724159568547,-0.0598352588713169,1.375667929649353,0.1856199502944946
0.49151806640625,-0.2316451480999588,0.6706893301852047,-0.868966023299098,0.0198274124413728,1.6285208463668823,0.24612458050251
0.501496826171875,-0.1705383529692888,0.4417869049221277,-0.3177957835942506,0.0656249895691871,1.9941691160202024,0.343167781829834
0.511476806640625,-0.2599890529222786,0.1314652566008269,-0.1135118128895759,0.0523695312440395,2.4428718090057373,0.4813996851444244
0.521457275390625,0.0041243864536285,-0.5247606639459729,0.1150660565942525,-0.0269508566707372,2.943305253982544,0.5855486989021301
0.53143603515625,0.6892489230960607,-1.2076891518488526,0.1867366235762834,-0.1450296342372894,3.44164514541626,0.6091200709342957
0.541416015625,1.1706263723894954,-1.6332503136351704,0.1742091504365205,-0.2491001039743423,3.7818198204040527,0.5383958220481873
0.55139599609375,0.9965689053833484,-1.4834057891264556,0.1454009891033172,-0.297499805688858,3.6925244331359854,0.3576027750968933
0.561375,0.4546300198823213,-0.6882474909685552,-0.1299848087847232,-0.2680601775646209,3.0939106941223145,0.0823528245091438
0.57135498046875,0.1459749895989894,0.3462394955292344,-0.6439443849921226,-0.2010485529899597,2.19671368598938,-0.2350382059812545
0.581333984375,0.4980339850619435,0.8658898307241499,-1.058088665229082,-0.1254062503576278,1.3285846710205078,-0.5032978653907776
0.59131396484375,0.547448296572268,0.4312650725163519,-1.233427111956477,-0.059541817754507,0.6995560526847839,-0.6167697906494141
0.6012939453125,0.1531479499682784,-0.189658063980937,-1.4921487752914429,-0.0546266846358776,0.5550609230995178,-0.5799569487571716
0.61127294921875,0.3736734458997845,-0.3971626041673123,-1.1811819609344003,-0.1091507002711296,1.0326061248779297,-0.4803496897220611
0.6212529296875,0.7094190199434757,-0.2936921466901898,-0.3936147024273872,-0.1437622010707855,1.894621014595032,-0.3803674280643463
0.63123291015625,0.5159361369773745,-0.1941346248731017,0.0376595763087272,-0.0796542763710022,2.1293859481811523,-0.3134131729602813
0.6412119140625,0.5180445074334741,-0.2240427102722227,0.6525929708719254,0.458371639251709,-0.2268871665000915,-0.3920858800411224
0.651192138671875,1.357961254119873,-0.489045499703288,4.193113368374109,0.83607417345047,-1.2741297483444214,-0.3971642553806305
0.6611708984375,-0.5849959369391202,-0.0597061345525085,2.341434531086683,0.668185830116272,-1.0050376653671265,-0.0772855877876281
0.671151123046875,-0.750918612806499,-0.1572346347600221,-0.8216682655513287,0.2617565393447876,-0.8728116154670715,0.3770284056663513
0.681131103515625,-0.5754419266521931,-0.1600103830836713,-1.8361457525908944,-0.1137323975563049,-1.0171045064926147,0.7131134867668152
0.69110986328125,-0.1146446163117885,0.4987226979784667,-0.6387152521669864,-0.4203252494335174,-0.9976106286048888,0.9342334866523744
0.701090087890625,-0.3886220087066293,0.4467240690633654,0.0721545511066913,-0.66314297914505,-0.8825202584266663,1.065365433692932
0.711069091796875,-0.2751213017329573,0.1723342964753508,0.0772299546748399,-0.7703221440315247,-0.5581613779067993,1.0709549188613892
0.721048828125,-0.7237506198957562,-0.3585401741757988,0.9025029667198656,-0.7717940807342529,0.0625101625919342,0.9543749690055848
0.731029052734375,-0.8109118937373161,-0.341777255423367,1.480993759548664,-0.7730579972267151,0.7665725946426392,0.6128755807876587
0.741008056640625,0.0094657474815845,0.0027649346686899,0.5707260040462017,-0.8273206949234009,0.9715848565101624,0.1170977503061294
0.75098779296875,0.5300324668690561,-0.0610183861948549,-0.1559428413838148,-0.7998480200767517,0.5836789011955261,-0.3371172845363617
0.760968017578125,-0.8392574059948325,-0.1396495859697461,0.8219985204190016,-0.8275915384292603,1.1825947761535645,-0.4833179116249084
0.77094677734375,-1.1843433475747704,0.1387744105704128,1.117689439710975,-0.8219135403633118,1.3033130168914795,-0.5303895473480225
0.780927001953125,-0.9259370337992906,-0.0054134033508598,0.9062170188069344,-0.709605872631073,1.191222906112671,-0.5938489437103271
0.79090625,-1.377470841231942,-0.3834202753450721,1.7898469427525996,-0.5450436472892761,0.8186222910881042,-0.5750763416290283
0.800885986328125,-2.600098034493625,-0.2281179968871176,2.0276853925347327,-0.4774968326091766,0.7274417877197266,-0.4327340722084045
0.810865966796875,-3.605452888400853,1.1093649712190032,1.8260709333002567,-0.4973537623882293,0.2260728329420089,-0.3119560182094574
0.82084521484375,-4.051052921870351,1.7999711541429162,1.9624352139890195,-0.5266328454017639,-0.2182628065347671,-0.3659231066703796
0.830824951171875,-3.9100717950358974,1.6613263613015412,3.00551277256906,-0.5551905632019043,-0.4051074087619781,-0.4548999965190887
0.840804931640625,-3.350509282299876,1.2476269022226334,2.942953732803464,-0.6460911631584167,-0.4992349743843078,-0.4704339504241943
0.8507841796875,-3.4000206244438886,0.4852883391268551,2.722317177712917,-0.6666774749755859,-0.5691332817077637,-0.4139485359191894
0.860763916015625,-3.252818723398447,-0.2150301864508539,2.9858903727322814,-0.5907760262489319,-0.7067883610725403,-0.4094773530960083
0.870742919921875,-2.9078625456780194,-0.0928115912208333,2.985622661706805,-0.4682276546955108,-0.8102527260780334,-0.4360911250114441
0.880722900390625,-3.0513796207308768,0.6059386986594647,2.625495802861452,-0.375865489244461,-0.7146412134170532,-0.5068340301513672
0.890703125,-3.0642136756017804,1.3319589439876376,2.126705154213309,-0.3138000667095184,-0.8023190498352051,-0.6193609237670898
0.900681884765625,-3.189723677060008,1.4947693330533802,1.8804326380848884,-0.2461565732955932,-1.1425937414169312,-0.7350481152534485
0.910661865234375,-3.2156051372915506,1.4858881074614825,2.365633152797818,-0.1958987265825271,-1.4771175384521484,-0.8465338349342346
0.92064208984375,-2.730678471083939,1.2136826931752265,2.531620418334007,-0.1958558410406112,-1.7054212093353271,-0.9334665536880492
0.93062109375,-2.134964740775525,0.7959821086961776,2.55017197406888,-0.2250965237617492,-1.8102370500564573,-0.9517335295677184
0.940600830078125,-1.7962591478824614,0.5888899487029761,2.4374913513064382,-0.2514945566654205,-1.8133760690689087,-0.9131661653518676
0.950580078125,-1.5239929433196782,1.0578531029075384,2.2287954093784093,-0.2578360736370086,-1.7369168996810913,-0.8708711266517639
0.960559814453125,-1.314083241687715,1.650121515067667,1.8270593598157163,-0.2947000861167907,-1.6937534809112549,-0.8372082114219666
0.970539794921875,-1.0976783328175543,1.9626329285182056,1.1974796002626418,-0.3961263597011566,-1.640305757522583,-0.8263062834739685
0.98051904296875,-0.6739388335004448,1.8895409504309293,0.6695365068882704,-0.5555450320243835,-1.4572906494140625,-0.8017807006835938
0.990498779296875,-0.5108388138383627,1.4428523910723623,0.5764350293427706,-0.7055442333221436,-1.1687312126159668,-0.7071412801742554
1.00047802734375,-0.3857940918043255,1.127934866328165,0.6476759727358817,-0.8087590336799622,-0.9567436575889589,-0.5808984041213989
1.0104580078125,-0.3823609024852514,0.9345769979812204,0.8125479705065488,-0.820712685585022,-0.8924827575683594,-0.4621047675609588
1.02043798828125,-0.4853071899577975,0.9161015762224792,1.2033587214291095,-0.7621510624885559,-0.8967115879058838,-0.4013008177280426
1.030417236328125,-0.33224618762061,0.9874766673892736,1.1502098995655774,-0.711432695388794,-0.855366051197052,-0.3986870348453522
1.040397216796875,-0.2115796806707978,0.9050616382267326,0.9245148920416832,-0.6844915747642517,-0.6936476826667786,-0.4151584208011627
1.050376953125,-0.1491024739697575,0.7197595774982124,0.9124696494609116,-0.6462815403938293,-0.4360042214393616,-0.4679518640041351
1.060356201171875,0.1648275741070508,0.4044206855367869,1.2512614593327045,-0.5309962034225464,-0.1472901105880737,-0.5596340894699097
1.070336181640625,0.2125157924771308,0.0298958104394376,1.7544938898205755,-0.3228386640548706,0.1707745492458343,-0.6603838801383972
1.08031494140625,0.1951619220942258,-0.1824480595368892,2.01230369900763,-0.0522780306637287,0.4973547756671905,-0.7528019547462463
1.090294921875,-0.241730781045556,-0.2287190315201878,1.8968442591816184,0.2038868367671966,0.6055346131324768,-0.8029486536979675
1.10027490234375,-0.5652110400170087,-0.0313388488546013,1.446170283448696,0.4105918109416961,0.6334690451622009,-0.7538051009178162
1.11025390625,-1.2171154441028833,0.1493621478192508,1.3349550570636988,0.5627227425575256,0.4521405100822449,-0.575766921043396
1.12023388671875,-2.515307581436634,0.516213565679267,0.92526658719182,0.5721982717514038,-0.2168452888727188,-0.3416350483894348
1.1302138671875,-2.624527250090241,0.9343516647927462,0.9193348590552808,0.4427498877048492,-1.0845941305160522,-0.1325982362031936
1.14019287109375,-1.7849075866542756,0.866201088630408,1.246291854226589,0.2072649598121643,-1.837703347206116,-0.0019733810331672
1.150173095703125,-0.6013331776253878,0.1243104894753545,1.682686544716358,-0.1142043322324752,-2.1143369674682617,0.0604389980435371
1.160152099609375,0.5687013663507998,-0.7590623179040848,2.4239812968701124,-0.3680768013000488,-1.9125937223434448,0.0850002691149711
1.170132080078125,1.290298753735423,-1.0070471178431064,3.5643916869550942,-0.4356894195079803,-1.5686664581298828,0.0881610363721847
1.18011181640625,1.6384668792396784,-0.6028074879616498,3.897006854018569,-0.3874177634716034,-1.2441704273223877,0.0410220175981521
1.190091064453125,1.5249626651346682,-0.151495360455662,3.8677386739581823,-0.3551365733146667,-0.9396459460258484,-0.067664235830307
1.200071044921875,1.4741314725637436,0.0668926850557327,3.617548692125082,-0.4943176209926605,-0.696023166179657,-0.2463980317115783
1.21005078125,1.4005511264376342,0.1582525065656751,2.512656774666905,-0.8469744920730591,-0.4801985025405884,-0.4503757953643799
1.220030029296875,1.4714119844719766,-0.0074723086420446,1.0488041195333004,-1.271159291267395,-0.1465954929590225,-0.590826690196991
1.230010009765625,1.5792212018057703,-0.5230168890185654,-0.3059638915032148,-1.5246838331222534,0.1353385597467422,-0.6293193101882935
1.239989013671875,1.6624927747324107,-0.911216872920841,-1.5746569626301523,-1.5009335279464722,0.3190399408340454,-0.6200805306434631
1.249968994140625,2.1543591770753263,-0.984518109844625,-2.557516491612792,-1.2256767749786377,0.4294255375862121,-0.6431069374084473
1.25994921875,2.4968618241637945,-0.7953782245188951,-3.4685260053932665,-0.8389629125595093,0.4845630824565887,-0.645153820514679
1.269927978515625,2.6372628130227325,-0.1216796295151114,-4.690754846987128,-0.5098733901977539,0.533808708190918,-0.5864037871360779
1.279908203125,2.8499688673749564,0.955822322844714,-5.939107140874862,-0.3234635591506958,0.5333296060562134,-0.5168989896774292
1.28988818359375,3.009882658216357,2.034343827510625,-7.177790273663401,-0.3188520669937134,0.5787848234176636,-0.4533765017986297
1.299866943359375,3.372971289476752,3.083354137140512,-8.469840839502215,-0.4866120219230652,0.630231499671936,-0.3549410104751587
1.30984716796875,3.7540094189256425,3.992871366536617,-10.356030433678626,-0.7692195773124695,0.6212954521179199,-0.2072242647409439
1.319825927734375,4.138443620553613,4.85936603128612,-12.26280279715657,-1.0250800848007202,0.5933117270469666,-0.0578435659408569
1.329805908203125,4.140839575779438,5.551187435218692,-14.40273159008026,-1.209878921508789,0.2651752829551697,0.1198234930634498
1.3397861328125,4.0911520002856845,6.320796427708864,-16.21539242218733,-1.2449902296066284,-0.1661947667598724,0.3171746730804443
1.349764892578125,4.542358183199167,6.632276452285051,-16.734384731864928,-1.095673680305481,-0.4554381966590881,0.5210280418395996
1.359744873046875,5.042521289244294,6.010824469608068,-16.920557291817666,-0.867317795753479,-0.6679643392562866,0.7320079207420349
1.369723876953125,5.110348624801635,5.379398205405473,-17.23073383257985,-0.6635770201683044,-0.8041831254959106,0.9486584663391112
1.379703857421875,5.047566882196069,5.0166766538918015,-17.019238615322113,-0.5383637547492981,-0.8711576461791992,1.0585048198699951
1.38968408203125,5.113899010759591,4.6528743214041,-16.19187476847768,-0.4961244761943817,-0.8332183361053467,1.012558937072754
1.399662841796875,5.0000470061302185,4.219568244579434,-15.109565854227542,-0.5038247108459473,-0.6580899357795715,0.8395346403121948
1.409642822265625,4.837048401015997,3.840562205480039,-13.939918848264217,-0.5252513885498047,-0.3188270032405853,0.561866044998169
1.419622802734375,4.584001276186108,3.3980294506266717,-12.754468708491324,-0.5062227845191956,0.0271261483430862,0.2193235903978347
1.429601806640625,4.057686660796404,2.804098219820857,-11.32138937728405,-0.4371053874492645,0.2576406002044678,-0.1175728067755699
1.439581787109375,3.43073374261558,2.236094334214925,-9.78423183196485,-0.3823364078998565,0.4100548923015594,-0.4145983755588531
1.449560791015625,2.8847657477289435,1.58103994166553,-8.27219703746438,-0.3666738867759704,0.4935363531112671,-0.6412163376808167
1.459540771484375,2.330325546442717,0.5692962635040283,-6.804732621574401,-0.3781286776065826,0.437021940946579,-0.7744185924530029
1.469520751953125,1.8948530853644008,-0.5159089567095041,-5.440630965003371,-0.3987694084644317,0.3653272092342376,-0.8020159602165222
1.479499755859375,1.5352657402232288,-1.5934627853870391,-4.090800410369038,-0.3606297671794891,0.2780934870243072,-0.740983247756958
1.489479736328125,1.2497506163783372,-2.776130893225968,-2.537607091528177,-0.2416108399629593,0.1790842413902282,-0.620602548122406
1.4994599609375,0.9036166270501912,-3.965285440474749,-0.8953753067970275,-0.0443185493350029,0.099397949874401,-0.447602242231369
1.509438720703125,0.4864427698589861,-5.012507843774557,0.823166979676485,0.1991573274135589,0.0529598258435726,-0.2601440548896789
1.5194189453125,0.0161271050669252,-5.775854853260517,2.312165766504407,0.4153721928596496,0.0449809990823268,-0.0927324444055557
1.529397705078125,-0.4734247367233037,-6.167013394707441,3.535018292954564,0.5924988985061646,0.0633588954806327,0.0205164868384599
1.539377685546875,-1.050828903359175,-6.272384571239352,4.630018346473574,0.7546728849411011,0.118829071521759,0.0921909436583519
1.54935791015625,-1.918133569317311,-5.960201366829872,5.966877775853872,0.965315580368042,0.1301213502883911,0.1154987886548042
1.559336669921875,-2.5939126238569616,-5.252152466195821,7.60706022683978,1.2308305501937866,0.0293350890278816,0.036375742405653
1.569316650390625,-2.740665319830179,-4.448668384371698,9.097737176012991,1.4915356636047363,-0.1343402713537216,-0.1708702445030212
1.579296875,-2.717959567025304,-3.8908869098335503,10.41124437137842,1.6645724773406982,-0.2243077158927917,-0.4269598126411438
1.589275634765625,-2.5652479626476765,-3.5644168213963505,11.420373483127356,1.6810061931610107,-0.185152068734169,-0.6621425151824951
1.599255615234375,-2.3526826319403944,-3.400148342476785,12.013608256101609,1.550174355506897,-0.0315191075205802,-0.8596803545951843
1.60923486328125,-2.126759222488105,-3.355392378166317,12.371770536875724,1.317545771598816,0.1590761691331863,-1.0304558277130127
1.619214599609375,-1.9402990777656437,-3.3527693361863493,12.582172698199749,1.040807604789734,0.3037236332893371,-1.1557761430740356
1.62919482421875,-1.8321447002559896,-3.3507395839244127,12.596685207676886,0.7592161297798157,0.423579454421997,-1.2194185256958008
1.639174072265625,-1.6773502982549369,-3.4321590992435813,12.353410704320668,0.4993235170841217,0.5573787689208984,-1.2299225330352783
1.64915380859375,-1.4718201268814504,-3.5975624274119733,11.958916880971191,0.3244186341762543,0.6718200445175171,-1.215984344482422
1.6591337890625,-1.3952534584209322,-3.723508482199907,11.541786862921716,0.2546952068805694,0.7432215213775635,-1.16935133934021
1.66911279296875,-1.660865319661051,-3.706013449780643,11.180332554864885,0.3051632642745971,0.7707206606864929,-1.0263779163360596
1.6790927734375,-2.0395931263409555,-3.5126626687616107,10.84881278182268,0.4172591865062713,0.6982898712158203,-0.8443079590797424
1.68907177734375,-2.2363068079218267,-3.2448879303991798,10.596023431146143,0.5501977801322937,0.5182799100875854,-0.6399017572402954
1.6990517578125,-2.397996960785985,-3.1306147777482867,10.46615085056424,0.6357550621032715,0.2540818154811859,-0.427350640296936
1.70903173828125,-2.366169305501133,-3.120610393345356,10.323411774146557,0.6331808567047119,0.0342544317245483,-0.2158710062503814
1.7190107421875,-2.252491196133941,-3.163969058078527,10.141281767582893,0.5539973378181458,-0.1184448301792144,-0.0338013470172882
1.72899072265625,-2.0772464190393687,-3.1224349784240126,9.917426250445844,0.4609154760837555,-0.2180315852165222,0.1060957014560699
1.738970947265625,-2.072422944405675,-3.0550019028812647,10.03708723361492,0.4090584218502044,-0.3069332242012024,0.2141103148460388
1.748949462890625,-2.0593530349522826,-2.89636353880316,10.120318474531173,0.3825013935565948,-0.3729502558708191,0.2876545786857605
1.758929931640625,-1.818402444498986,-2.7100533239454028,9.892062676608562,0.3639870882034302,-0.3963450491428375,0.2918658256530761
1.768908935546875,-1.5237458366908132,-2.7134119867235422,9.432362513855098,0.3345280587673187,-0.3370508253574371,0.2497270256280899
1.778888671875,-1.2496641071386634,-2.881364999374747,8.67977655235827,0.3183522820472717,-0.183854877948761,0.1563688516616821
1.788868896484375,-1.0572548447534442,-2.856952734912932,7.953612149319052,0.3788349330425262,0.0334907211363315,0.0063374121673405
1.798847900390625,-0.8613206231124698,-2.4377783515542744,7.484681216883659,0.5098323225975037,0.2179782837629318,-0.1822735071182251
1.80882763671875,-0.5493139443136751,-1.849106940972805,6.619490035948157,0.6373215317726135,0.315024584531784,-0.3950366377830505
1.8188076171875,-0.3011944851443171,-1.290376787407696,5.038890239265561,0.6691604256629944,0.4326148629188537,-0.5342108011245728
1.828786865234375,-0.0487678303003311,-0.655396264789626,2.7412188620597124,0.5277466177940369,0.5596985816955566,-0.5660801529884338
1.8387666015625,0.1825597762830555,0.3834430716987699,-0.7239215925484895,0.1658869236707687,0.7261615991592407,-0.5473563075065613
1.848745849609375,0.4801066987052559,2.017901372884214,-4.748133269244432,-0.3444157838821411,0.929621160030365,-0.5494976043701172
1.8587255859375,0.7057168044246733,3.798079739059508,-8.754920932930707,-0.8843847513198853,1.0263415575027466,-0.5493098497390747
1.868705810546875,0.8493374859824776,5.614829009523987,-12.422745521831512,-1.3218107223510742,0.8869577646255493,-0.4975156188011169
1.87868505859375,1.0330617760002612,7.394706931447982,-15.748997730231284,-1.5872613191604614,0.5505560040473938,-0.3405755162239074
1.888664794921875,1.491865720566362,8.404490123191476,-18.381885396909716,-1.6719975471496582,0.079101338982582,-0.101880133152008
1.898644775390625,2.0665699805937705,8.329381982976198,-20.21450414441824,-1.6284700632095337,-0.3604925274848938,0.1795022785663604
1.9086240234375,2.931514054900408,7.673700398439168,-21.55421194896698,-1.4969861507415771,-0.6682811975479126,0.3689582049846649
1.918603759765625,3.829871300117672,7.104592935505509,-22.35709485002756,-1.209382176399231,-0.7805033326148987,0.3872179090976715
1.928582763671875,4.741132450571656,6.94061993240118,-21.884789472723007,-0.7314835786819458,-0.6946361064910889,0.2505017518997192
1.93856298828125,5.358756399393082,6.957585095727444,-20.430985333395004,-0.1974539756774902,-0.4295682907104492,0.0230627320706844
1.948542724609375,5.575627464470267,6.98342096325159,-19.09942576398849,0.1488234847784042,-0.0344910807907581,-0.1910049468278885
1.958521728515625,5.302523055517673,6.795291424012183,-18.378986168336866,0.2069475054740905,0.3419408798217773,-0.3061650991439819
1.968501708984375,4.665824403870105,6.195224759191274,-17.461202630376814,0.0891754552721977,0.5790396928787231,-0.2969416379928589
1.978481689453125,3.9255677625924346,5.269045733329653,-15.751253984725476,-0.0545060783624649,0.6808656454086304,-0.2013847529888153
1.988460693359375,3.196758982524276,4.490537979590893,-13.653435317778586,-0.1630889028310775,0.6744384169578552,-0.0629396587610244
1.998440673828125,2.444121436970681,3.799375916349888,-11.558680714577436,-0.2252798378467559,0.5628090500831604,0.1074318066239357
2.008419921875,1.5775902396030723,3.2846772122129795,-9.507331537860631,-0.2586518824100494,0.3437310457229614,0.3073830008506775
2.01839990234375,0.7039579780586064,3.0287673914283517,-7.53400843463242,-0.2809891402721405,-0.0062285521999001,0.5336526036262512
2.028379638671875,0.0127153969272971,2.7741625157624483,-5.464767042872309,-0.2994774878025055,-0.4379696249961853,0.7324475049972534
2.03835888671875,-0.2330214048892259,2.3236475299835204,-3.2782828350007533,-0.3372538983821869,-0.8458482027053833,0.8686258792877197
2.0483388671875,-0.2201658688388764,1.535426629873365,-1.1646212867558,-0.4177767634391784,-1.101937770843506,0.9391427040100098
2.058318603515625,-0.09600582068488,0.4085904455021023,0.8900269315063953,-0.5229772329330444,-1.1693804264068604,0.9445430636405944
2.0682978515625,0.1513651582047343,-0.8634624574467539,2.7943361197412013,-0.6217620372772217,-1.032810091972351,0.868503749370575
2.078277587890625,0.2862980909161269,-2.0777273344241083,4.46663454143405,-0.664543628692627,-0.7398971915245056,0.7361398339271545
2.0882568359375,0.1552905149549245,-2.9806214924186465,5.773800843340158,-0.6262845993041992,-0.4403226375579834,0.5836691856384277
2.09823681640625,-0.2257210187479853,-3.611507950656116,6.734284289863705,-0.4827660322189331,-0.1751764565706253,0.4446095526218414
2.108216796875,-0.7329831431433558,-4.102334196296334,7.746424858388305,-0.2365311980247497,0.0326385386288166,0.3357827067375183
2.11819580078125,-1.24675654912889,-4.351418847236037,8.786889604121447,0.0839951559901237,0.1637451648712158,0.245804876089096
2.128176025390625,-1.6500607247911392,-4.435532131683826,9.637744216668604,0.4032439291477203,0.197450041770935,0.1864589899778366
2.13815576171875,-2.045781751848012,-4.398479289096594,10.299390262567997,0.6726152300834656,0.2031899541616439,0.1687510907649994
2.148134765625,-2.369515401058644,-4.238446548050642,10.82083756418228,0.8486218452453613,0.2167790532112121,0.19547139108181
2.158114990234375,-2.571100780329108,-4.026544503557682,11.194487336945532,0.93480384349823,0.2450258880853653,0.2492792308330536
2.16809375,-2.7450366667822004,-3.75298942822814,11.449972502577303,0.9437805414199828,0.2441238462924957,0.3061453104019165
2.17807373046875,-2.8570693470299244,-3.4509944403558968,11.610491565835476,0.8937339186668396,0.2345191687345504,0.3580705523490906
2.1880537109375,-2.9906928045779466,-3.228756003026664,11.714431248259544,0.8081644177436829,0.198711097240448,0.3973974585533142
2.19803271484375,-3.093044925549626,-3.0452950401201844,11.724157692503928,0.7003950476646423,0.1516021788120269,0.42543625831604
2.2080126953125,-3.158019502024352,-2.884696189624071,11.569870801633597,0.5751932263374329,0.0633229687809944,0.4270248413085937
2.21799267578125,-3.1937399269640445,-2.804740024855733,11.287643759548663,0.4534726142883301,-0.0411863960325717,0.4155924320220947
2.2279716796875,-3.2422967448621987,-2.6663088747650385,10.971412741053104,0.3129213452339172,-0.070443756878376,0.3911775052547455
2.237951904296875,-3.0421956128001213,-2.482735099133849,10.575956794673203,0.1473832428455352,-0.0643421858549118,0.3190449774265289
2.247931884765625,-2.781227339582145,-2.467165774080157,10.135993013525008,-0.0373521298170089,-0.0226192157715559,0.2026137262582779
2.257910888671875,-2.582326815481484,-2.642961901447177,9.919198520815373,-0.1894463300704956,0.0680774003267288,0.0612571202218532
2.267890869140625,-2.4267997152917085,-2.8978672213643786,9.710449387395382,-0.2759427428245544,0.2069960981607437,-0.0897069573402404
2.277869873046875,-2.294623826203495,-3.0291940924078222,9.395562184724213,-0.281307965517044,0.3304751515388489,-0.2506359219551086
2.287849853515625,-2.2319226014882325,-3.068898910808563,9.129450411137938,-0.2158402055501938,0.4245122075080871,-0.4135804772377014
2.29782958984375,-2.13307205889672,-3.1585020248442888,8.893343899714946,-0.1252636909484863,0.4748406410217285,-0.5672739148139954
2.307808837890625,-1.894707101022452,-3.4166678078621624,8.422486383131146,-0.05747677013278,0.482585996389389,-0.6786879301071167
2.317788818359375,-1.5759603003136813,-3.896182970415056,7.878700992980599,-0.0283465813845396,0.5070796012878418,-0.7319173216819763
2.3277685546875,-1.2449660124503077,-4.353784407323599,7.289953010031581,-0.0221406649798154,0.5278335809707642,-0.7423068284988403
2.337747802734375,-0.8646889305017889,-4.712036704468727,6.578896159753203,-0.0160359013825655,0.5115131735801697,-0.7295604348182678
2.347727783203125,-0.466453874797374,-4.984889184486866,5.964305295017361,0.0383698008954525,0.4899244308471679,-0.7220172882080078
2.35770654296875,-0.1286195117808878,-5.2031736234933135,5.562761553156376,0.1627319604158401,0.5773317813873291,-0.7131662964820862
2.36768701171875,0.2554324125312268,-5.2237458714008325,5.16813679690361,0.3632546663284302,0.7559193968772888,-0.728502094745636
2.3776669921875,0.4818703473769128,-5.143025736522675,4.539211117345094,0.6152267456054688,0.9625574946403505,-0.7501802444458008
2.387645751953125,0.3147768741644918,-4.876795889514685,3.8769963316470384,0.9003070592880249,1.138152003288269,-0.7697523236274719
2.3976259765625,0.2380519464023411,-3.953251596070826,2.8044688066989183,1.1272578239440918,1.2105984687805176,-0.8076586723327637
2.4076064453125,0.2002276810511946,-2.203071623926609,0.4537725262701511,1.1467374563217163,1.1402000188827517,-0.7713027000427246
2.417585205078125,-0.3124968004032969,0.1543194779656827,-3.2914889380544423,0.8756111860275269,0.9452670812606812,-0.5385916829109192
2.4275654296875,-1.1570885531634092,2.740765857595205,-7.662555904090404,0.3768771588802337,0.563646137714386,-0.077766016125679
2.43754443359375,-1.672917722634971,5.390345131355524,-11.547095490723848,-0.1323341429233551,-0.1488495469093322,0.4384651184082031
2.4475244140625,-1.0970677997037768,7.693537902331352,-14.173725266051292,-0.5180272459983826,-1.1362334489822388,0.804180383682251
2.45750439453125,0.5024561854183673,9.33258228919804,-16.63307539794445,-0.8534291982650757,-2.097578763961792,0.993511974811554
2.4674833984375,2.420861703544855,9.937546662932634,-19.40386814501285,-1.2487908601760864,-2.589268207550049,1.0063832998275757
2.47746337890625,4.760256253236532,9.24826676017642,-21.54925286525488,-1.624343752861023,-2.426536321640014,0.7529981732368469
2.487443359375,6.786464558956027,8.191245431917904,-22.65342406722307,-1.767817735671997,-1.6718816757202148,0.2440956532955169
2.49742236328125,7.720506573277712,7.819217122876644,-22.901623752021788,-1.5117329359054563,-0.6811556220054626,-0.3426440358161926
2.50740234375,7.646181107872724,7.290626963770389,-21.655820558094977,-0.8622027635574341,0.1838740110397339,-0.8142070174217224
2.51738134765625,6.671328359735012,6.57091918952465,-19.881880794048307,-0.148349329829216,0.8195428252220154,-1.0191271305084229
2.527361328125,5.285252187243104,5.977306230887771,-18.827077141839265,0.3127479553222656,1.0630733966827393,-0.9658432602882384
2.53734130859375,3.888711027099192,5.617456435418129,-18.063508014035225,0.4430457651615143,0.9200499653816224,-0.7384577989578247
2.5473203125,2.674258956986665,5.205133525389432,-16.475957083040473,0.3889789283275604,0.5615983009338379,-0.4331833720207214
2.557300537109375,1.9160824820064009,4.566875077079236,-13.92612763879895,0.3074124157428741,0.2026460617780685,-0.1433464735746383
2.567280517578125,1.5899524391785262,4.089555378744006,-11.041846459716558,0.2498330473899841,-0.0384637527167797,0.0255306866019964
2.57725927734375,1.516611600896716,3.775161804808676,-8.303198324927687,0.1874391734600067,-0.1419789493083953,0.0579613298177719
2.587239501953125,1.482159588457644,3.4161434917271136,-5.866764373719692,0.0701268166303634,-0.1191204190254211,-0.0234119575470685
2.59721826171875,1.3989036514915525,2.924859857708216,-3.6757337545901536,-0.1154939085245132,-0.0394980236887931,-0.1776316165924072
2.6071982421875,1.2179508720137178,2.178722341698408,-1.6096709928661583,-0.3541012108325958,0.017543476074934,-0.3530881106853485
2.617178466796875,0.9067577015548944,1.2420429646104574,0.2638262929975986,-0.6310079097747803,0.0671120956540107,-0.4915940761566162
2.6271572265625,0.4676686574146151,0.2798221729002892,1.8272440687328573,-0.9081899523735046,0.1977772414684295,-0.536057710647583
2.63713720703125,0.0474805669687688,-0.6519255930043757,3.078145462581515,-1.1318379640579224,0.3675593733787536,-0.4683590531349182
2.647117431640625,-0.3221827665068209,-1.7795841996744275,4.213526626327633,-1.2502189874649048,0.4530271589756012,-0.3140983879566192
2.65709619140625,-0.8139091758571565,-2.825227517089248,4.981183315706253,-1.2281107902526855,0.3929579854011535,-0.0884479507803917
2.667076171875,-1.3398591957181691,-3.612163199694455,5.728038040074706,-1.0532073974609375,0.2428293079137802,0.1902521103620529
2.677056396484375,-1.856746349810064,-4.1843768119499085,6.529129381543398,-0.7739819288253784,0.0219483189284801,0.5047626495361328
2.687035400390625,-2.3249081975691017,-4.649080482079088,7.327013451403379,-0.4462318122386932,-0.2273583114147186,0.8334525227546692
2.697015380859375,-2.623558112797141,-5.1437657412350175,8.274139988225699,-0.0983523949980735,-0.4726338684558868,1.130913019180298
2.706994384765625,-2.7800065656155346,-5.581640441149473,9.375164124339818,0.2536103725433349,-0.7055053114891052,1.354960322380066
2.716974365234375,-2.7992800058841705,-5.770798738914728,10.408052881860732,0.5809213519096375,-0.8869062662124634,1.4894779920578003
2.726954345703125,-2.7154016992360352,-5.593569363874197,11.187178475236893,0.8478197455406189,-1.0059856176376345,1.525401592254639
2.736933349609375,-2.573728206223249,-5.111634572958946,11.722896294265984,1.044910192489624,-1.045701026916504,1.4766724109649658
2.746913330078125,-2.426436727198213,-4.47504464238286,12.112310622394084,1.1627602577209473,-1.0160406827926636,1.379927635192871
2.756893310546875,-2.4415252829976377,-3.699009416237473,12.288693609738347,1.169239163398743,-0.8554711937904358,1.2701842784881592
2.766872314453125,-2.328942713782191,-2.894049124380946,12.259479205691814,1.0658575296401978,-0.6304551362991333,1.1474783420562744
2.776852294921875,-2.191439930582792,-2.4720813109114763,12.249850961124896,0.8724638223648071,-0.4196390211582184,1.0219732522964478
2.7868310546875,-2.2221624011047183,-2.309236581184715,12.272941913855076,0.6142449378967285,-0.2498770505189895,0.8979090452194214
2.7968115234375,-2.3250242251642046,-2.197666111621261,12.170735923355815,0.3066670894622803,-0.143554076552391,0.7946627736091614
2.80679150390625,-2.5478005687624217,-2.1648763333059846,11.918607082414626,-0.0126196471974253,-0.1042134836316108,0.7353214621543884
2.816770263671875,-2.7075977474868296,-2.223571829511225,11.484997054207325,-0.3230555355548858,-0.11332468688488,0.7151631712913513
2.82675048828125,-2.7533915304124355,-2.2853632459051907,10.816730713385343,-0.5932301878929138,-0.1686644703149795,0.7074682116508484
2.83673046875,-2.711184958323836,-2.4341857338897883,10.30917515900135,-0.7889724969863892,-0.2374696284532547,0.7150521278381348
2.846709228515625,-2.643864403244853,-2.6870471268892286,9.866842895156145,-0.915858805179596,-0.3178751468658447,0.7314614057540894
2.856689453125,-2.5221131697982546,-2.951742603936791,9.257363089823722,-0.9743724465370178,-0.4017077088356018,0.7568448185920715
2.86666845703125,-2.3925651449956,-3.116395405998826,8.526960903084278,-0.9533694982528688,-0.4809512197971344,0.7703598141670227
2.876648193359375,-2.166808616542816,-3.290776698131859,7.787528437671065,-0.8308995366096497,-0.5390366315841675,0.7865044474601746
2.886628173828125,-1.995843416463584,-3.5120027435481544,7.204917934563755,-0.5972681045532227,-0.5698440074920654,0.7877994179725647
2.896607177734375,-1.7306074027985334,-3.599806114685536,6.649861208814382,-0.2599379420280456,-0.6042408347129822,0.7733195424079895
2.906587158203125,-1.5075852677457031,-3.463433358429372,5.920325868037343,0.1614411026239395,-0.6222585439682007,0.7491164803504944
2.9165673828125,-1.2567168021291493,-3.0846596667811275,5.286997569605708,0.6259751915931702,-0.6194542646408081,0.6669395565986633
2.92654638671875,-0.9464819553084672,-2.4442059003837406,4.619664125719666,1.012537121772766,-0.5326505899429321,0.5257402062416077
2.9365263671875,-0.6777145526468753,-1.6127132831715043,3.4758161624014376,1.1771564483642578,-0.3433496057987213,0.3659332692623138
2.94650634765625,-0.0851648393273353,-0.7416089326694607,1.6588263611793517,1.0434517860412598,-0.058406114578247,0.180174320936203
2.9564853515625,0.3477893553197383,0.4259577598884701,-1.032707555735111,0.6782248020172119,0.2547683119773865,0.021144725382328
2.96646533203125,0.4101886744789779,2.555070559765398,-4.760677693518996,0.2011146694421768,0.6042175889015198,-0.0440024584531784
2.976444580078125,0.2968842207297683,5.612331347489357,-9.044519965088368,-0.2814948558807373,0.8682247400283813,-0.029617927968502
2.98642431640625,0.4861766662687063,8.821344246909021,-13.18656482500434,-0.6712896227836609,0.913715124130249,-0.1214612945914268
2.996404296875,1.2599785804040728,11.554901196038722,-16.51949344242811,-0.9075891971588136,0.6402454972267151,-0.4115471839904785
3.006383544921875,2.1920354122579098,13.338046010804176,-19.24519850901365,-0.936388909816742,0.2656607329845428,-0.8446165919303894
3.01636328125,3.2189082704901693,14.085969825708863,-20.7282334190011,-0.7476162910461426,-0.0001464374363422,-1.3046337366104126
3.026343505859375,4.273329645383358,13.646112427544592,-20.900702447772023,-0.4451016187667846,-0.1372573375701904,-1.7618314027786257
3.036322265625,5.385244593346119,11.992380759155749,-19.83290019778013,-0.1983432173728943,-0.0072255595587193,-2.1298203468322754
3.046302490234375,6.3532701258122914,9.78139923888743,-18.55972267471552,-0.1006952300667762,0.2921087443828583,-2.289296865463257
3.056281494140625,6.541351734256744,7.802546558582782,-17.70956013608575,-0.1886671632528305,0.5720887184143066,-2.144047498703003
3.06626123046875,6.062851593965291,6.461897673791647,-17.463422644513845,-0.4629399478435516,0.6796303391456604,-1.7222554683685305
3.076241455078125,5.235845474517345,5.454567720419168,-17.256388498318195,-0.812849760055542,0.5775841474533081,-1.1273009777069092
3.086220458984375,4.45095737209171,4.557494669793546,-16.44782404448986,-1.0881564617156982,0.2965119779109955,-0.5222734808921814
3.0962001953125,3.8921898091256617,3.793401225854456,-15.171483088958263,-1.1644459962844849,-0.0425593145191669,-0.0175279900431633
3.106180419921875,3.4926606219574805,3.088295100674033,-13.229350658285616,-1.040099024772644,-0.287413090467453,0.3362376987934112
3.1161591796875,3.2188346207320686,2.384854570618272,-10.964923379033804,-0.8562958240509033,-0.353158563375473,0.5052088499069214
3.12613916015625,3.0861563350796697,1.7747405590355396,-8.824940810096264,-0.7131273746490479,-0.3080117702484131,0.4857290387153625
3.136118408203125,2.8776211366713045,1.111146009416878,-6.835450415921211,-0.6091303825378418,-0.1952963769435882,0.3198857605457306
3.14609814453125,2.411784370858967,0.1833516573131084,-4.573728888496756,-0.4936567544937134,-0.0652864351868629,0.1004022657871246
3.156078369140625,1.8323332085654136,-1.026937740162015,-1.90299635207057,-0.2956512570381164,0.0312305204570293,-0.1190722957253456
3.166057373046875,1.1962711012557148,-2.353533549681306,0.9921744698166848,-0.0329843796789646,0.0990234389901161,-0.3069195449352264
3.176037353515625,0.677634034756571,-3.604724866387248,3.469747656142712,0.2322400957345962,0.1479174792766571,-0.4423146545886993
3.186017333984375,0.1504571034491062,-4.685314701759815,5.542474551931023,0.4509164094924927,0.1657044887542724,-0.4961511492729187
3.19599658203125,-0.4855357380166649,-5.416923341679572,7.2214137268126,0.5796541571617126,0.1463286578655243,-0.459669828414917
3.205976318359375,-1.1303561751909554,-5.696822233077883,8.424376726922393,0.6072754263877869,0.1063172817230224,-0.3403348922729492
3.215956298828125,-1.716406151227653,-5.759467197561264,9.319073988327384,0.5500118732452393,0.0604211650788784,-0.165370300412178
3.225935302734375,-2.108735051628202,-5.709767639368772,10.02616018140912,0.4370317161083221,-0.0085280919447541,0.0150072006508708
3.235915283203125,-2.29132814565897,-5.747122679772973,10.496895532917977,0.2978591918945312,-0.1087875813245773,0.1566167920827865
3.245894287109375,-2.337715948954969,-5.750580126750469,10.830970835661889,0.1776736080646515,-0.1814520061016082,0.2430574148893356
3.255874267578125,-2.3284099220797416,-5.638825971183181,11.08753736678958,0.1099129319190979,-0.1603589802980423,0.274317055940628
3.265854248046875,-2.1277273368678986,-5.393026917785406,11.078590674746035,0.0877183675765991,-0.0691946521401405,0.2352781891822815
3.275833251953125,-1.9595036905817689,-5.296590158337354,11.019002175223829,0.1110188961029052,0.0677240490913391,0.1469232887029647
3.2858134765625,-1.9013477080807089,-5.309222845417261,10.911256086254118,0.1449722945690155,0.1878232210874557,0.0462012104690074
3.29579345703125,-1.9842218061223624,-5.223521414995193,10.563384897869824,0.1597142219543457,0.2819569110870361,-0.0466701388359069
3.3057724609375,-2.0872189469993114,-4.994484111306071,9.98268461229801,0.1489876061677932,0.2887893915176391,-0.1291592866182327
3.31575244140625,-2.263755663600564,-4.901100309687853,9.388889282831547,0.1224425509572029,0.2019290626049041,-0.1774325519800186
3.325732421875,-2.38500713083148,-4.861649173787236,9.00329655881822,0.0913595110177993,0.0989719331264495,-0.2033713310956955
3.335711181640625,-2.314359769417345,-4.8035588038682935,8.643319337576628,0.0627023056149482,0.0262876078486442,-0.2116886526346206
3.34569140625,-2.1650904144480823,-4.935733816173673,8.27629979660809,0.0348867774009704,-0.0158092807978391,-0.2002427875995636
3.35567041015625,-2.096208163010329,-5.248064904621243,7.975227768799662,0.035760823637247,-0.0366676896810531,-0.178452268242836
3.365650146484375,-1.9913417211301625,-5.608724262908101,7.745717586901783,0.0800569653511047,-0.0127178039401769,-0.1536023169755935
3.37563037109375,-1.904003629416972,-5.966140109229087,7.47678900232911,0.1855429112911224,0.0654441118240356,-0.1354105323553085
3.385609375,-1.9318534671120344,-6.177789640265702,7.212634792551398,0.3750269114971161,0.1314693540334701,-0.1473671942949295
3.395589111328125,-2.026194277194142,-6.077480423298478,7.052225619408488,0.6245967745780945,0.1470326036214828,-0.1858216375112533
3.405568359375,-2.100513605119288,-5.779827264022827,7.029872333303094,0.9127046465873718,0.1357896476984024,-0.2615656852722168
3.415547119140625,-2.1111590639047324,-5.435888738912344,7.075989356833696,1.1846359968185425,0.1042367741465568,-0.3659663796424866
3.425527099609375,-2.000147981789708,-5.194305257382989,7.044919095787406,1.3933634757995603,0.1235608905553817,-0.4913451969623565
3.43550732421875,-1.840009734542668,-4.94601497169137,6.905251681900024,1.4897172451019287,0.2080624550580978,-0.6158751845359802
3.445486083984375,-1.6997725579433145,-4.647824052277207,6.579563099229335,1.4984619617462158,0.3195381760597229,-0.7212402820587158
3.455466064453125,-1.5510336565889418,-4.1147874351561065,6.041396133482456,1.453518986701965,0.3851704597473144,-0.8169628381729126
3.465445068359375,-1.4280118186846376,-3.312220760437846,4.9266760649710895,1.3695591688156128,0.3935029804706573,-0.8811901807785034
3.475425048828125,-1.2829369927957652,-2.1842571794718504,3.3313620987594126,1.240148425102234,0.3970953226089477,-0.9409163594245912
3.4854052734375,-0.8220978891402483,-0.5556827486932278,1.3078940316587686,1.082465648651123,0.4595946371555328,-1.0491411685943604
3.49538427734375,-0.1363210260689258,1.5100805916927753,-0.9311685047119856,0.9137503504753112,0.5918813347816467,-1.151220679283142
3.5053642578125,0.5503245826609432,3.5282410539045928,-3.7289538881242272,0.7379711270332336,0.715628445148468,-1.1059116125106812
3.51534423828125,0.6101191261492669,4.997499075213074,-6.565681288871168,0.5821743011474609,0.816722571849823,-0.8345242738723755
3.5253232421875,0.3684270696789026,6.311691914755105,-9.116870915549994,0.3679861724376678,0.6890119314193726,-0.3780985474586487
3.53530322265625,-0.023571721984446,7.7867200438976285,-12.458384990489485,0.0076980190351605,0.1766607761383056,0.2015834748744964
3.545283203125,-0.1884323215782642,8.986779723781346,-15.691230600917338,-0.4928293526172638,-0.4740414619445801,0.7891278862953186
3.55526220703125,-0.0158662621736526,9.822076701712607,-18.426809411263463,-1.0045716762542725,-1.1013340950012207,1.1992648839950562
3.5652421875,0.9280905585713684,10.919411335659026,-20.26166804665327,-1.3037909269332886,-1.5426404476165771,1.2153432369232178
3.57522119140625,2.918236640176177,12.732033589321372,-20.66583453823328,-1.2314517498016355,-1.6230945587158203,0.7033825516700745
3.585201171875,5.042554606992006,13.637194961595537,-19.656725300228597,-0.8408886194229126,-1.202088475227356,-0.164213016629219
3.59518115234375,6.19107348473072,12.180936999374628,-18.02474018422365,-0.4539007246494293,-0.3265564143657684,-0.9729393720626832
3.60516015625,5.926956684353947,9.440418979060649,-16.91994822000861,-0.3594394326210022,0.547391951084137,-1.4738950729370115
3.615140380859375,4.877846567611396,7.391086987385154,-16.626764899623392,-0.5722633004188538,1.0478287935256958,-1.6361042261123655
3.625120361328125,3.566384906598925,6.245030700367689,-16.52625986782312,-0.9267356395721436,1.0943570137023926,-1.5193248987197876
3.63509912109375,2.5013316630542275,5.166365695577859,-15.799942320048808,-1.1538183689117432,0.8436773419380188,-1.2844210863113403
3.645079345703125,2.0054015184037386,3.839653566202521,-13.855524408787488,-1.1300586462020874,0.5196247100830078,-1.0377562046051023
3.655058349609375,1.8565708471126852,2.521633277326822,-11.35769987707138,-0.9397622346878052,0.3058250844478607,-0.828432559967041
3.6650380859375,1.8170717804171144,1.356067987719178,-8.946739389815926,-0.7456125020980835,0.223835676908493,-0.6660940051078796
3.675018310546875,1.7541906690903006,0.425832964465022,-6.882032134354114,-0.6287164688110352,0.2222819924354553,-0.5193822979927063
3.6849970703125,1.480393163307011,-0.3067591335341334,-5.0435675834268325,-0.5741382837295532,0.2001543641090393,-0.37187659740448
3.69497705078125,1.0256750267498194,-1.019843105725944,-3.0964088490247725,-0.522298276424408,0.0983366519212722,-0.2074865847826004
3.704957275390625,0.6762571934454142,-1.806898030796647,-0.9008376638561488,-0.4413172900676727,-0.0089530982077121,-0.0764232501387596
3.71493603515625,0.5166073142372072,-2.731840500600636,1.29627256744802,-0.3385783731937408,-0.0497705675661563,-0.0067160734906792
3.724916259765625,0.2272590419702231,-3.6845033365011215,3.3060967245996,-0.238456442952156,-0.0391831398010253,-0.0027425077278167
3.734896240234375,-0.2289361814022064,-4.3999613443478935,5.006171041968464,-0.15077905356884,0.0134742129594087,-0.0246707089245319
3.744875244140625,-0.5527769442491233,-4.859581135341525,6.4230281371712685,-0.0808377563953399,0.0562909953296184,-0.059765450656414
3.754855224609375,-0.9104945499956608,-5.2987938058614725,7.597849915423989,-0.0132826846092939,0.0214350074529647,-0.0892572999000549
3.764835205078125,-1.1993841187097132,-5.547215608978271,8.383631459558009,0.0380284413695335,-0.1175420582294464,-0.1191691234707832
3.774814208984375,-1.30086047976017,-5.555318251413107,8.933244532948732,0.0808571279048919,-0.2847923040390014,-0.1570637673139572
3.784794189453125,-1.4266830542989075,-5.497931061327457,9.592394085857272,0.1301537007093429,-0.4139154851436615,-0.1744617968797683
3.794773193359375,-1.5370416638545692,-5.4243280649781225,10.128333438682557,0.1673631221055984,-0.5191572308540344,-0.1573192924261093
3.804753173828125,-1.5162876296393573,-5.212974302017688,10.345519561058282,0.1785643398761749,-0.5471377968788147,-0.1372618228197097
3.814733154296875,-1.3686222027353945,-4.9040357786178586,10.331190591454506,0.1615339666604995,-0.4501561224460602,-0.1242584139108657
3.824712158203125,-1.2944265011899172,-4.74364297208786,10.241280603426697,0.1043151021003723,-0.2784782648086548,-0.1046787127852439
3.834692138671875,-1.2113333535701036,-4.658248707918823,10.042481201612947,0.0149029344320297,-0.1183578222990036,-0.0643850862979888
3.84467236328125,-1.2388527902670203,-4.607608654005825,9.706921797791123,-0.0811000391840934,0.0096481358632445,-0.0067560179159045
3.8546513671875,-1.2386984764881432,-4.541262496916949,9.370765597119927,-0.157807856798172,0.0593413934111595,0.0263199098408222
3.86463134765625,-1.2410446012228726,-4.666307218950987,9.14375015464723,-0.1836099475622177,0.0320673435926437,0.0724059119820594
3.8746103515625,-1.3691346823021768,-4.778355096767842,8.995582623440027,-0.1455717533826828,0.0069609265774488,0.1305150240659713
3.88459033203125,-1.4198657754994928,-4.607495841281116,8.807381188008188,-0.0593635737895965,-0.041037879884243,0.1535510867834091
3.8945703125,-1.4117774538509549,-4.426891729110479,8.56852683918178,0.040927343070507,-0.1340136229991912,0.147468164563179
3.904549072265625,-1.403315038193017,-4.35216849655956,8.422828328436612,0.114585131406784,-0.2257140278816223,0.114454947412014
3.914529296875,-1.387527248083055,-4.42504405541718,8.344856030961871,0.1515495330095291,-0.2833624184131622,0.0596771836280822
3.92450927734375,-1.3191159751579165,-4.583066333423554,8.208353218585252,0.1581658124923706,-0.274074912071228,0.0084921773523092
3.934488037109375,-1.1460077717006203,-4.690734096460044,8.108276056808233,0.1813385188579559,-0.16946941614151,-0.0397211611270904
3.944468017578125,-0.9741690036572516,-4.706886482098699,8.121415524366498,0.2184212207794189,-0.0205799266695976,-0.085097961127758
3.9544482421875,-0.8883170588485896,-4.836747664503753,8.098878113865851,0.2712700664997101,0.1080142706632614,-0.1305887550115585
3.964427001953125,-0.9677648357033728,-5.093484583762288,8.216421374228597,0.3570367395877838,0.2010862529277801,-0.1610228270292282
3.9744072265625,-1.0390526869781316,-5.282814146441221,8.33247468829453,0.5024559497833252,0.2636396288871765,-0.1934928745031356
3.984387451171875,-0.9872015037097036,-5.37026563540101,8.452626669850945,0.6808728575706482,0.3364502489566803,-0.2155317366123199
3.994365234375,-1.016108010850847,-5.30085132291317,8.46772428573966,0.8694504499435425,0.402442067861557,-0.1876654773950576
4.00434423828125,-1.0904174019038675,-5.551241795754432,8.359955400416254,1.0644301176071167,0.4992888867855072,-0.1158506795763969
4.01432421875,-1.1781731345072388,-6.025633916205168,8.288121751827001,1.218761920928955,0.6086230874061584,-0.0654612779617309
4.02430419921875,-1.0289802057750523,-6.392129725560546,8.065096840295196,1.287561058998108,0.7430906891822815,-0.0393477790057659
4.034283447265625,-0.5199858507595956,-6.345466758584976,7.071627069970965,1.264190435409546,0.9189096093177797,-0.0346161387860775
4.04426318359375,0.0966474795892834,-5.587237238243222,5.18339164918065,1.1064258813858032,1.0181671380996704,0.01171700283885
4.0542431640625,0.588798397962004,-3.709119891363382,1.677661994552612,0.7921704649925232,1.0380966663360596,0.2048206776380539
4.06422216796875,0.6361538772463798,-1.115248914691061,-3.228957955339551,0.3090143501758575,0.8886658549308777,0.5880387425422668
4.0742021484375,0.390082728908956,1.90783590105623,-8.818970503515004,-0.2930419445037842,0.5206918120384216,1.0777114629745483
4.08418212890625,-0.1183104453429579,5.682441825547814,-14.875371313905717,-0.7902405261993408,-0.0920869037508964,1.468708038330078
4.0941611328125,-0.303521320656687,10.286621966409683,-20.3923437603116,-0.913366973400116,-0.9516996145248412,1.5662332773208618
4.10414111328125,1.0386322696089745,13.517515273725984,-22.88421669014692,-0.593268871307373,-1.762065887451172,1.3328303098678589
4.114120361328125,2.831832614442706,13.821393006604907,-23.00384026391506,-0.1141289100050926,-1.9143017530441284,0.880231499671936
4.124100341796875,4.73619177929908,11.125855114746091,-20.471083535027503,0.1944979578256607,-1.3201192617416382,0.3278681635856628
4.134080322265625,6.2576294851779934,7.49506817086339,-18.026133684408663,0.2441150546073913,-0.4343498051166534,-0.1303167045116424
4.14405908203125,7.007102283090353,5.332141948711872,-16.819993807828425,0.0948736295104026,0.3415687680244446,-0.3974631726741791
4.154039306640625,6.806909381091594,4.628611986806988,-16.701194409924746,-0.1210677176713943,0.749946653842926,-0.4993530511856079
4.164019287109375,5.854559556663036,5.283391654068232,-17.32957531508207,-0.211217775940895,0.7943358421325684,-0.5210416913032532
4.173998046875,4.613959192076325,7.015816335421801,-17.749071477741,-0.1180611923336982,0.5717893242835999,-0.5405352115631104
4.183978271484375,3.8055011212319134,8.418805648791789,-17.012375159293413,0.0534513033926487,0.2809138596057892,-0.5754824876785278
4.193958251953125,3.239088304209709,8.357908404758572,-15.21079920030236,0.144033670425415,0.1496993601322174,-0.629863977432251
4.20393701171875,2.842901413206756,7.596289826500415,-13.004738769823312,0.1101801544427871,0.1550593823194503,-0.6962600350379944
4.213917236328125,2.835000723084807,6.926537631034851,-10.962663617408277,-0.038596536964178,0.2003661394119262,-0.7491629123687744
4.223896240234375,2.683430105435848,5.990962415796518,-8.911495057955383,-0.2379236221313476,0.2399169951677322,-0.7634064555168152
4.2338759765625,2.349065172095597,4.827549628047644,-6.904253318512439,-0.3978387117385864,0.1722255498170852,-0.7185382843017578
4.2438564453125,1.7871775774128733,3.484468839934468,-4.925550860333442,-0.4675510227680206,0.0115822041407227,-0.6344262957572937
4.25383544921875,1.24445806292817,2.125533480085432,-2.766719798541069,-0.463267058134079,-0.1642330288887024,-0.5223612785339355
4.263815185546875,0.9529954288557172,0.6764781427197158,-0.5847779102742672,-0.4225791096687317,-0.2944591641426086,-0.3694965243339538
4.273795166015625,0.7063556868501008,-0.9769457748942076,1.4293413137227295,-0.3514394164085388,-0.3589934110641479,-0.1663985401391983
4.283774169921875,0.3336613151155412,-2.672460090871155,3.3450527704596515,-0.2630863189697265,-0.4204267263412475,0.0557947121560573
4.293754150390625,-0.1268245911881327,-4.062390308442712,5.135839624410868,-0.1560874134302139,-0.4879666268825531,0.2855453491210937
4.303734130859375,-0.65084510429129,-5.012796013066172,6.658934742107987,-0.0513882525265216,-0.5107550024986267,0.5108675956726074
4.313713134765625,-1.2169218212269246,-5.435820349851251,7.788025865799188,0.0511306673288345,-0.5112437009811401,0.7205262780189514
4.323693115234375,-1.660167400524765,-5.45355825111568,8.55867939890623,0.1672669500112533,-0.5080982446670532,0.8939858078956604
4.33367236328125,-1.9713466885887083,-5.359928365781903,9.16555340565443,0.3184063732624054,-0.4980376362800598,1.0094345808029177
4.343652099609375,-2.1981803447537125,-5.307697827807068,9.85538042089939,0.4907501935958862,-0.5153186321258545,1.043717861175537
4.35363232421875,-2.313587908262014,-5.178734178763627,10.51859999972582,0.662929356098175,-0.5095017552375793,1.0004005432128906
4.363611083984375,-2.1869414501197637,-4.870121234056353,11.035163036429882,0.7987210154533386,-0.4353854656219482,0.9167198538780212
4.37359130859375,-2.121787279294431,-4.531093277341127,11.452170304882523,0.863083004951477,-0.3619495928287506,0.811923623085022
4.3835712890625,-2.1152175455152986,-4.032169357702136,11.635484552794694,0.8294618129730225,-0.3364570438861847,0.6700260043144226
4.39355029296875,-1.92609943362996,-3.3478456160485743,11.56803657194376,0.705930769443512,-0.3163949251174927,0.5727636218070984
4.4035302734375,-1.991917621321976,-2.816838166667521,11.524167035079,0.5171266794204712,-0.2357092052698135,0.5379093289375305
4.4135107421875,-2.3045538301959634,-2.477709379926324,11.591849993729593,0.284382164478302,-0.1559874862432479,0.5292513966560364
4.423489501953125,-2.3853420618742702,-2.1672015613831577,11.413566141200064,0.0289950221776962,-0.0939821302890777,0.5151538848876953
4.4334697265625,-2.2909658882178365,-2.1099523184634745,11.090641178023814,-0.1966823190450668,-0.0123698208481073,0.5033803582191467
4.44344873046875,-2.360250582976639,-2.307118273856491,10.83299561948776,-0.3500138521194458,0.0423679128289222,0.4791836440563202
4.453428466796875,-2.4592297203838824,-2.4489336595579982,10.500325507366655,-0.4267834722995758,0.0463826283812522,0.426401138305664
4.46340869140625,-2.376719487218559,-2.448862201756984,10.013531001460551,-0.4418030381202698,-0.0031495988368988,0.3452802002429962
4.4733876953125,-2.3208749965302644,-2.555888598150015,9.331530734318497,-0.3949505686759949,-0.0659570544958114,0.2473373711109161
4.483367431640625,-2.338130228844285,-2.7618174134522677,8.736031523543597,-0.2928989231586456,-0.0877536684274673,0.1132576093077659
4.49334765625,-2.203136505856365,-2.8122955548018216,8.307387008789181,-0.1715871393680572,-0.0895795375108718,-0.0488540679216384
4.503326416015625,-1.923957307034731,-2.7839918358594176,7.891387456074357,-0.0448249876499176,-0.0792122632265091,-0.2074775248765945
4.513306396484375,-1.6789745384559034,-2.847462145251036,7.565527608489989,0.0722803249955177,-0.0354224368929863,-0.3392225205898285
4.52328662109375,-1.443553671209514,-3.042086891728639,7.42229402655363,0.1736205071210861,0.0581357330083847,-0.4528139531612396
4.533265625,-1.2372644981622696,-3.1041502569317814,7.279886374047398,0.2386903315782547,0.1567728370428085,-0.546751856803894
4.54324560546875,-0.9633731766156852,-3.1063346152335405,6.945921545940637,0.3007042706012726,0.2538335621356964,-0.6145662069320679
4.5532255859375,-0.8267967144809663,-3.2546298644736407,6.520417667299508,0.3524303138256073,0.3324404954910278,-0.6560491919517517
4.56320458984375,-0.7091194524750113,-3.2634196123898027,6.0591305276155465,0.4014911353588104,0.4057499170303345,-0.6587656736373901
4.5731845703125,-0.556381544612348,-3.1684388969689605,5.366896451228857,0.4172996580600738,0.4862000346183777,-0.600724995136261
4.583163818359375,-0.3947213484950363,-3.053334261929989,4.401681300008296,0.3140269219875335,0.5493457913398743,-0.4303534924983978
4.5931435546875,-0.2770836878471076,-2.771842548382282,2.796536844655871,0.0529516488313674,0.6337299346923828,-0.1853994131088256
4.60312353515625,-0.0887998348288238,-2.46011001034975,0.4982090493679046,-0.3381868302822113,0.7908262014389038,0.0538090579211711
4.6131025390625,0.338048151897639,-1.9134373743250963,-2.4298481430768963,-0.814126193523407,0.9450677037239076,0.2938496172428131
4.62308251953125,0.8192617889314889,-0.9071269732587038,-6.558062630560994,-1.2926983833312988,1.0056134462356567,0.5121626257896423
4.633063720703125,1.50056530598104,5.993728957900404,-18.336825773477557,-1.538434386253357,0.7266209721565247,0.5022625923156738
4.643042724609375,2.971101968923211,11.292434500956537,-23.097272580850124,-1.1830527782440186,0.0682487562298774,0.1253705620765686
4.653022705078125,4.836512686704099,14.107578430926798,-23.819393261456486,-0.2064456045627594,-0.5817974209785461,-0.4831423163414001
4.663001708984375,6.654694035798311,12.84929569465518,-22.343038267624376,0.7617399096488953,-0.758445680141449,-1.0616803169250488
4.672981689453125,8.077184752973913,9.522992632851004,-20.93806742504835,1.169222712516785,-0.3458833992481231,-1.491299390792847
4.68296142578125,8.844144107738137,6.782602622830868,-19.925394941604136,1.0368156433105469,0.3851714432239532,-1.7370831966400146
4.692940673828125,8.726195189183949,4.817103929618001,-18.84461162948608,0.6467626094818115,0.9494512677192688,-1.741162896156311
4.70292041015625,7.9410209632933135,3.825951204064488,-17.98324848240614,0.2867864370346069,1.1030607223510742,-1.5207140445709229
4.712900390625,6.945307213434576,3.5972505849838257,-17.276255228304862,0.1155363917350769,0.8626579642295837,-1.1174262762069702
4.722879638671875,5.84345539432466,3.2823914393633604,-16.505415817236898,0.1376783549785614,0.4614342451095581,-0.5462854504585266
4.732859375,4.814445524063706,2.5551877564042806,-15.025425097250938,0.2624245584011078,0.0994062423706054,0.0709109455347061
4.742839599609375,3.895560746863484,1.6755696984484791,-12.891076150286198,0.4242870807647705,-0.1727570593357086,0.6491525769233704
4.75281884765625,2.905962265014648,1.2011617959067225,-10.279606534689664,0.5609229207038879,-0.4171705245971679,1.1141176223754885
4.762798583984375,2.094417918592691,1.3513256154976785,-7.724694672617316,0.6096440553665161,-0.6511049270629883,1.4385790824890137
4.77277783203125,1.2830107886843385,1.5045070293441414,-5.198133875760436,0.55256587266922,-0.8006991744041443,1.6296100616455078
4.7827578125,0.5332935144916177,1.2508256982639432,-2.7233821765959263,0.38998943567276,-0.903182089328766,1.6954193115234375
4.792737548828125,-0.1308805885806679,0.5773096202202141,-0.4222492607593536,0.1671627461910247,-0.9433196783065796,1.6563684940338137
4.802716796875,-0.6397852194860577,-0.2011388045467436,1.6846335871309042,-0.0636436864733696,-0.8747333884239197,1.5061028003692627
4.812696533203125,-0.8913662172861396,-0.888269712575525,3.4697137538731098,-0.209748700261116,-0.7503645420074463,1.2765144109725952
4.822676513671875,-1.0711448384180664,-1.4018909967392683,5.070419349995255,-0.2438676655292511,-0.5798852443695068,0.98798269033432
4.83265576171875,-1.2456046026147902,-1.7683976197496056,6.233555951151251,-0.1991300284862518,-0.395215779542923,0.6884739995002747
4.842635498046875,-1.5861702902913093,-2.1064568775631485,7.164683539330959,-0.1202334016561508,-0.217763602733612,0.4459484815597534
4.85261572265625,-2.050506880673766,-2.4678464498206973,7.901412591004371,-0.0320201851427555,-0.0800336971879005,0.2979901731014251
4.8625947265625,-2.5240216337680814,-2.8650194292515514,8.531858027476073,0.040102083235979,-0.0334458574652671,0.2350203841924667
4.87257470703125,-2.763540583983064,-3.239931769296527,9.163306503510476,0.0843307971954345,-0.0899954214692115,0.2312078028917312
4.8825537109375,-2.8460183761835096,-3.640713586874306,9.804763747861982,0.0996020436286926,-0.1856962144374847,0.2634001076221466
4.892533447265625,-2.9273461215659973,-4.095585891079902,10.471208133953809,0.1038913279771804,-0.2328634560108184,0.3126669824123382
4.902513671875,-2.845898256935179,-4.329414520698785,10.979189220273494,0.1252665370702743,-0.259299486875534,0.3464240133762359
4.91249267578125,-2.7451538634210824,-4.322630559647083,11.314078177487849,0.1812677532434463,-0.3033138215541839,0.3638709187507629
4.922472412109375,-2.624938168978691,-4.267804159960151,11.519998224961755,0.262498676776886,-0.3847681879997253,0.3657693564891815
4.93245263671875,-2.4541791589960456,-3.998669823682308,11.57547402846813,0.3438718318939209,-0.4279766380786896,0.3230754137039184
4.942431640625,-2.3324771715186534,-3.6629245418995615,11.608332341974974,0.4166847765445709,-0.4746427536010742,0.2866356670856476
4.952411376953125,-2.2180836073584853,-3.411864791494608,11.613721633797883,0.4682997763156891,-0.5251134037971497,0.2665199935436249
4.9623916015625,-2.243871397957206,-3.0450533403187987,11.54619649605751,0.4600414037704468,-0.4104577600955963,0.2728097140789032
4.97237060546875,-2.198480204483121,-2.403252689357102,11.423203738117218,0.3728726804256439,-0.1584774553775787,0.306555688381195
4.9823505859375,-1.903665921895206,-2.2120544101968407,11.244805319297312,0.2401238530874252,-0.0487367287278175,0.3190236985683441
4.99233056640625,-1.9006082878902557,-2.375851326081902,11.208581328749656,0.0924164205789566,-0.0575960017740726,0.3114760220050812
5.002309814453125,-2.139827962897718,-2.322087587190419,11.00605384632349,-0.0637062042951583,-0.1018005162477493,0.3054749965667724
5.01228955078125,-2.16643656836003,-2.05405712050125,10.525621276664731,-0.2153050601482391,-0.1078498885035514,0.2885998785495758
5.022268798828125,-1.993555159395933,-1.9930838886223727,10.02602924850583,-0.3109344244003296,-0.1121344566345214,0.2420888245105743
5.03224853515625,-1.9000126600846647,-2.1481597379133106,9.65705623538196,-0.3273099362850189,-0.1003265306353569,0.1857754737138748
5.042228515625,-1.910077542503178,-2.302266742172092,9.172893247023223,-0.2851171493530273,-0.0831304937601089,0.1238865479826927
5.052207763671875,-1.843495969223231,-2.39232315293327,8.652759366095065,-0.1895112842321396,-0.08307696133852,0.0401266738772392
5.0621875,-1.7699311129271984,-2.3978287646122274,8.135476198422909,-0.0588662289083004,-0.0962901785969734,-0.0632719025015831
5.07216748046875,-1.593043829322606,-2.3820286995425817,7.634052278661727,0.0714006945490837,-0.1098477989435195,-0.174764335155487
5.082146728515625,-1.2657086484886706,-2.3527277862563727,6.895404826146364,0.1705840826034546,-0.0964456871151924,-0.301933616399765
5.09212646484375,-0.7035534889109433,-2.165898515960574,6.0005146725177765,0.2397831082344055,0.0802949965000152,-0.4252065420150757
5.102106689453125,-0.2362044919047504,-1.913424660973996,4.810834347829222,0.2677558064460754,0.3498267829418182,-0.546834409236908
5.1120859375,0.1976788002859801,-1.1619114432752131,3.1652742954581976,0.2009823620319366,0.8309524059295654,-0.6479640007019043
5.122065673828125,0.6810739460773766,0.1726549797970801,0.6008715514630079,-0.0219646207988262,1.2974482774734497,-0.6768466234207153
5.132044677734375,0.6760308373436331,2.114638138192147,-3.122092156335712,-0.4676478207111358,1.6534976959228516,-0.5840775966644287
5.142024658203125,0.2813219099387526,5.036612357461452,-7.834287850758433,-1.16069495677948,1.830603003501892,-0.4190472960472107
5.152004638671875,-0.1027950424335897,7.95699185488522,-12.773992908650635,-1.8635225296020508,1.6823911666870115,-0.2633655667304992
5.161983642578125,-0.1476521290309727,9.453870581308006,-16.46960683723092,-2.2093639373779297,1.1210322380065918,-0.1936622709035873
5.171963623046875,0.3619843232803046,9.449784773299095,-17.856690140938756,-1.935204267501831,0.356082022190094,-0.2152410745620727
5.181943603515625,1.3466962021313609,9.289843802189829,-18.02742197065353,-1.2036495208740234,-0.3240519165992737,-0.1623566597700119
5.191922607421875,2.355484537618607,9.427497538167238,-18.740242907994983,-0.4530615210533142,-0.8391858339309692,0.0788053572177887
5.20190234375,3.0717741739839317,9.138800423285364,-19.72176154376268,-0.0450590513646602,-1.1393975019454956,0.5579800605773926
5.2118828125,3.4176807842969894,8.622753519409894,-20.626339563190932,-0.042052075266838,-1.289255142211914,1.1826554536819458
5.221861328125,3.566131224098801,8.168608068174123,-20.99399681754112,-0.2285877764225006,-1.422411322593689,1.7615907192230225
5.231841552734375,3.5665433120310306,8.33226718302369,-20.59061358529329,-0.3958601355552673,-1.509600281715393,2.142855167388916
5.24182080078125,3.964391121983528,8.20986829932332,-19.557251365041733,-0.4392184615135193,-1.4887431859970093,2.1901609897613525
5.251800537109375,4.027903516951203,7.267247257226705,-17.813207557564972,-0.3512278795242309,-1.2172772884368896,1.9024248123168943
5.261780517578125,3.860949452209472,6.044232233691215,-15.68878262324333,-0.1548446714878082,-0.7756931781768799,1.3516989946365356
5.271759765625,3.5646909621626137,4.859454878613352,-13.349280521523951,0.1051448360085487,-0.3019520044326782,0.7030075788497925
5.281739501953125,2.9079499317005277,3.693219142398238,-11.01957383763194,0.3439434170722961,0.0620146691799163,0.1289674639701843
5.291719482421875,2.0559357738547024,2.564504450803995,-8.878404689258337,0.4748782515525818,0.2377737164497375,-0.2715224325656891
5.30169873046875,1.1892400335751474,1.5023020666457712,-6.70288669655919,0.4936178922653198,0.2397426664829254,-0.4930308759212494
5.311678466796875,0.3483731465570628,0.444881217675656,-4.252042527204751,0.4323209822177887,0.0543278008699417,-0.5520811080932617
5.321658447265625,-0.2561573658049106,-0.7371269649498164,-1.6556518227964638,0.348838210105896,-0.2846302390098572,-0.4903603792190552
5.331637451171875,-0.5368562484744935,-2.112841464033723,1.0806436113864182,0.2728006839752197,-0.6434549689292908,-0.3647425174713135
5.34161767578125,-0.4318203683115542,-3.4119735125660893,3.790256790348887,0.240774855017662,-0.8893409371376038,-0.2618795335292816
5.3515966796875,-0.0655262920733541,-4.243520782575011,6.162108087009191,0.2581410706043243,-0.966813862323761,-0.2491749078035354
5.36157666015625,0.3590837795332074,-4.621751453387737,7.986397982111573,0.3152374625205993,-0.938739001750946,-0.3600122332572937
5.371556640625,0.437547075395286,-4.8171512758910655,9.266503258612753,0.3776435852050781,-0.837357223033905,-0.5414462089538574
5.38153564453125,0.2937928305856883,-4.794429740995168,10.160787263041732,0.442103624343872,-0.7067356109619141,-0.7350433468818665
5.391515625,0.0919945392169058,-4.622127300962806,10.771851122695209,0.4928775727748871,-0.5483052134513855,-0.90246319770813
5.40149560546875,-0.3070388637909665,-4.220598172149062,11.276222201824188,0.5185360312461853,-0.1425111591815948,-0.9710363149642944
5.411474609375,-0.4386345053058117,-3.709455699189007,11.52204638966322,0.5328598022460938,0.2609058320522308,-0.9380573630332948
5.42145458984375,-0.1815076368816197,-3.677827511999011,11.552599348837136,0.5457912087440491,0.5081402063369751,-0.8598851561546326
5.4314345703125,-0.1323079179700464,-3.8018198023706673,11.648335851061344,0.5563596487045288,0.6083528399467468,-0.7460816502571106
5.441413330078125,-0.3232420663014054,-3.6738486714959135,11.500602619618176,0.5409533977508545,0.6253288984298706,-0.5788737535476685
5.4513935546875,-0.591432034401223,-3.277958425351977,11.178450394380093,0.51207035779953,0.5932763814926147,-0.3821910321712494
5.46137255859375,-0.7617680697314441,-2.8055928422927856,10.807405251157284,0.4708110392093658,0.5205137133598328,-0.1975761651992797
5.471352294921875,-0.9015973961822688,-2.393799655226618,10.635939261949062,0.4155485928058624,0.4060931503772735,-0.0593477226793766
5.48133251953125,-0.9150923261146992,-2.110727540619671,10.55084222716093,0.3227178454399109,0.267787218093872,0.001465021749027
5.4913115234375,-0.8155670991320163,-1.9678826657399533,10.361574039280416,0.1627396196126938,0.1135715544223785,-0.0188053622841835
5.501291259765625,-0.6730763714522123,-1.986914113946259,9.91040029733181,-0.0690876543521881,-0.0669836103916168,-0.0897122919559478
5.511271484375,-0.5959126869466156,-2.094671454962343,9.390185167860984,-0.3017888069152832,-0.2452795803546905,-0.1526534408330917
5.521250732421875,-0.7076061253026127,-2.097639072596281,9.158100167039036,-0.4932043254375458,-0.2948538661003113,-0.1807123720645904
5.53123046875,-0.5292256074655801,-2.11581141975522,8.787466527226567,-0.6169055104255676,-0.2827109396457672,-0.2138551473617553
5.54121044921875,-0.3522779719758778,-2.388760199754685,8.321945110973715,-0.6986486315727234,-0.2351880669593811,-0.2102545350790023
5.551189453125,-0.2373932632979005,-2.599019591607153,8.197780971166491,-0.7645933032035828,-0.1241305246949195,-0.1841758042573928
5.56116943359375,0.0338129838831722,-2.847414214456081,8.14112443344295,-0.8625888228416443,0.0444705337285995,-0.1810698956251144
5.5711494140625,0.1737039043281227,-3.321414120718837,7.811008681979775,-0.9885592460632324,0.2427447438240051,-0.195543110370636
5.58112841796875,0.4550914999142288,-3.905574191355705,7.249995093652606,-1.0866186618804932,0.5400059223175049,-0.2807976901531219
5.5911083984375,1.0291042705461382,-4.627856784525513,6.654361442843079,-1.0546921491622925,0.8899186253547668,-0.4527995586395263
5.601087646484375,1.593706384884566,-5.436394350346923,5.988009411209822,-0.8440343141555786,1.414685606956482,-0.6893391013145447
5.6110673828125,2.098671630514413,-6.215556184080243,4.936195588466525,-0.4806494414806366,2.1033778190612797,-0.945289671421051
5.621047607421875,1.8787742033533752,-6.618789194202423,3.451847842314839,0.0055906819179654,2.705284595489502,-1.0565487146377563
5.63102685546875,1.9301554310224949,-6.349564257031679,1.398629949116707,0.4437158405780792,3.322077989578247,-0.9868841171264648
5.641006591796875,1.2618804685026406,-5.348711975240708,-0.7467892579168081,0.965653121471405,3.805928945541382,-0.6309201717376709
5.650986572265625,-0.2463764148943126,-4.197379793646931,-2.334086506411433,1.5053075551986694,3.333748817443848,-2.0760911866e-05
5.660965576171875,-1.8782275292560455,-2.2138865940600634,-5.175761884954572,1.9813878536224363,2.362800121307373,0.8383267521858215
5.670945556640625,-3.301355667552352,0.472295002041012,-5.785091468161344,2.3313353061676025,1.217369556427002,1.721219778060913
5.680925537109375,-2.997494885808229,3.487679034152627,-6.987455917856097,2.470247745513916,0.1929702907800674,2.3901400566101074
5.690904541015625,-2.48185714725554,6.793572929656505,-7.859397742095589,2.321931838989258,-0.4338603317737579,2.7129716873168945
5.700884521484375,-1.4270575866997242,9.825870248776674,-8.756392759048937,1.856836199760437,-0.845723569393158,2.6106436252593994
5.710863525390625,-0.530819817854464,10.800898353481292,-9.806200502666831,1.1658885478973389,-1.1981109380722046,2.193147897720337
5.72084326171875,-0.1697743828594684,9.42328079725504,-10.033614004546404,0.4549383521080017,-1.4714741706848145,1.6170568466186523
5.730823486328125,0.2470772566400468,7.5717404916554685,-9.171627757132052,-0.0475540496408939,-1.632441520690918,1.0084936618804932
5.74080224609375,0.7636446772582829,6.452153109368681,-8.474938454902171,-0.3224818706512451,-1.6931029558181765,0.525580883026123
5.750782470703125,1.651123239456117,5.7412517419129605,-9.151838768556711,-0.4653205275535583,-1.6562196016311646,0.1827033907175064
5.7607626953125,2.964387565976381,5.413320933273434,-10.478787044775483,-0.6270213723182678,-1.401092767715454,-0.0012190429260954
5.770741455078125,3.812570621226728,5.570528680026531,-12.843416573488712,-0.9310649037361144,-1.150847315788269,0.0191932879388332
5.780721435546875,3.6510265988349913,5.299755928891897,-15.707407828736304,-1.2916406393051147,-1.156327247619629,0.2894548773765564
5.79070166015625,3.023036738821864,4.493305106216669,-17.309689880394934,-1.4641515016555786,-1.387324571609497,0.7148365378379822
5.800680419921875,2.600612998278439,4.105783459967374,-17.102116805016994,-1.3367681503295898,-1.6534297466278076,1.0893666744232178
5.810660400390625,2.4380694434553383,3.7367777136176814,-16.254584614890813,-1.048151612281799,-1.799423098564148,1.335321068763733
5.8206396484375,2.4265730669289827,3.124516753134132,-14.829640659344197,-0.6584778428077698,-1.6963398456573486,1.4444900751113892
5.830619384765625,2.353502862282097,2.768242185802757,-13.318850311946868,-0.4073111116886139,-1.4535977840423584,1.3869199752807615
5.840599365234375,2.1802548119626937,2.7126357416540383,-12.017698740285637,-0.3132302165031433,-1.0960233211517334,1.1494417190551758
5.85057861328125,1.8037170626729728,2.5416899769276378,-10.281314507651327,-0.3550500869750976,-0.7831189036369324,0.7903611063957214
5.86055859375,1.498440861172974,2.0563339793920514,-8.373971650809048,-0.4728430211544037,-0.5033432841300964,0.4006735384464264
5.87053857421875,1.2911097778573632,1.1389533962097018,-6.23592677193582,-0.5986180305480957,-0.2153719216585159,0.0794840678572654
5.880517578125,1.332848732434213,0.0591074380069971,-3.8971711046695705,-0.6719567775726318,0.0628506690263748,-0.1791950315237045
5.89049755859375,1.404210233467072,-0.9755978674165904,-1.5231260973572731,-0.6850292086601257,0.299299955368042,-0.3632639348506927
5.9004775390625,1.1651842544008046,-1.7416167264603075,0.4198907149344682,-0.6572439074516296,0.4159891605377197,-0.4427914917469024
5.91045654296875,0.5584199185721576,-2.326628153229505,1.610951095804572,-0.6088782548904419,0.3626486957073211,-0.4108324944972992
5.9204365234375,-0.1191710807602852,-3.0324016562774774,2.8091584258198736,-0.4712755382061004,0.1983758211135864,-0.2995260953903198
5.93041552734375,-0.651930926766619,-3.4998201383233067,4.807372224676609,-0.2008422017097473,0.0313839092850685,-0.1833859086036682
5.9403955078125,-0.8473133597437292,-3.434657345800101,6.854639685037732,0.121061235666275,-0.07747233659029,-0.146526038646698
5.95037548828125,-0.8288171874579042,-3.1118741291821,8.303283080601691,0.373454600572586,-0.0889758616685867,-0.1844028532505035
5.960354248046875,-0.8748916139557957,-2.890201801303029,9.255432414022088,0.50687575340271,-0.0257749296724796,-0.2591531276702881
5.97033447265625,-1.0932611739624292,-2.6283745731681583,10.00415293226242,0.5315632224082947,0.101204052567482,-0.3325666189193725
5.980314697265625,-1.2560766045294702,-2.342533139978349,10.434366888290644,0.4500393867492676,0.2193756401538849,-0.3897565305233001
5.99029345703125,-1.3192986382484435,-2.387820288556069,10.540458780312536,0.3032843172550201,0.2755648791790008,-0.4531986117362976
6.000273681640625,-1.342907623503357,-2.5356296539753678,10.535279916369914,0.1190080493688583,0.2840346693992615,-0.5165597796440125
6.010253662109375,-1.4088508988797663,-2.592673145189881,10.200825843441486,-0.1189850717782974,0.2320354133844375,-0.5820189118385315
6.020232421875,-1.248877925197035,-2.6669088864848014,9.723016608023643,-0.3911831378936767,0.2578343749046325,-0.6740255951881409
6.03021240234375,-1.0536972984023392,-3.020074966406822,9.35507586055696,-0.6027012467384338,0.2463130056858062,-0.7355749607086182
6.040191650390625,-0.9766475956652312,-3.5374198011383413,8.86480052679777,-0.6483555436134338,0.1603922247886657,-0.7417374849319458
6.05017138671875,-0.930814503642544,-3.694671094772219,8.664968859326839,-0.511832594871521,0.1133887618780136,-0.7182681560516357
6.0601513671875,-0.7715169450033456,-3.4788562607496973,8.536947459569573,-0.2327513992786407,0.1506270170211792,-0.6667312383651733
6.070130615234375,-0.368398793432489,-3.108138449785113,8.418102468958496,0.1238157823681831,0.266082763671875,-0.615426778793335
6.0801103515625,0.2352815318409353,-2.8809277770012613,8.707464769750834,0.4301373660564422,0.5573266744613647,-0.6195511221885681
6.09009033203125,1.1305593696128575,-2.775533511854708,8.867485235837101,0.5447374582290649,1.082261085510254,-0.7377880215644836
6.1000693359375,2.1822166135549543,-2.621698748666048,8.297678100201487,0.439865231513977,1.890007734298706,-0.9957996606826782
6.110049560546875,3.116191407859325,-2.670602188044786,8.396551146885752,0.0788737535476684,3.3112127780914307,-1.3039565086364746
6.120029541015625,3.916902810099721,-3.107991442529857,7.564503526139259,-0.4863553941249847,4.862473487854004,-1.5498586893081665
6.130008544921875,3.5031045668214555,-3.1339637959152458,5.171111428800225,-1.11008882522583,6.171187877655029,-1.6225595474243164
6.139988525390625,2.5290140352278945,-3.061364423650503,2.3013439282387496,-1.6376019716262815,6.905322551727295,-1.428408980369568
6.1499677734375,1.5789052677243949,-4.566190017424524,-0.9167892662256956,-1.8765064477920528,6.640275478363037,-0.8062979578971863
6.159947509765625,-0.4890682960569858,-6.134407010135054,-3.2066356488943097,-1.8083189725875852,5.469384670257568,0.2043048292398452
6.169927490234375,-1.841937779995799,-6.742121559360623,-3.842829273629188,-1.3283026218414309,4.516040802001953,1.4156324863433838
6.17990673828125,-2.584718679054081,-7.851211513030528,-0.7355190913617611,-0.3122811615467071,3.706421613693237,2.568406343460083
6.189886474609375,-1.299245445778966,-5.548900785586238,-0.4304723147034645,0.6933937072753906,2.8546218872070312,3.10933256149292
6.199866455078125,0.7141922256946563,-3.646114276874065,-2.3589462223798034,1.434014081954956,2.270433187484741,3.1214656829833984
6.20984521484375,2.3375170653820034,-3.2354560851871965,-3.2816859214425085,1.966282844543457,1.9424118995666504,2.8414146900177
6.21982568359375,3.591170388287306,-2.136939694110304,-4.138986641389131,2.334490776062012,1.952309012413025,2.4133002758026123
6.2298056640625,4.918033324310184,-0.3501039158724248,-4.902848614659905,2.635245084762573,1.8377768993377688,1.8611791133880613
6.239784423828125,7.45252549868822,1.0544093921944495,-4.239063218644261,3.21058988571167,0.1654109954833984,1.2047892808914185
6.2497646484375,5.860710480508208,1.075350619544834,-2.7060464263916013,3.701124906539917,-1.4083049297332764,0.7561200261116028
6.25974365234375,4.047999379518628,0.2291773332143202,-3.637252925026417,3.705575466156006,-2.247483968734741,0.4315025508403778
6.269723388671875,4.419185977038741,0.6201810859583318,-3.615104806104302,3.812353610992432,-2.9855635166168213,0.2939273715019226
6.27970361328125,3.2163457265257835,0.9035353785075246,-4.701790035742521,3.549708843231201,-3.961678981781006,0.1131854355335235
6.2896826171875,0.4323053753495216,3.1543937127426265,-6.239700445255637,2.7532055377960205,-4.845585823059082,0.1480371654033661
6.299662353515625,-2.161344213657081,4.010735816790163,-5.453761664733291,1.6551892757415771,-4.704511642456055,0.5078394412994385
6.309642578125,-2.4561583501145243,3.106421124473214,-3.939933557075262,0.6155250668525696,-4.081948280334473,0.9759302139282228
6.319621337890625,-1.6829378891289233,2.299389871561527,-4.8304152466118335,-0.1267873048782348,-3.331451177597046,1.4784796237945557
6.329601318359375,-1.4259697914630174,1.9199688219204545,-5.569391200429201,-0.4964694678783417,-2.6685140132904053,1.994308352470398
6.33958154296875,-1.3367051156014202,2.274884083597362,-5.4630286747723815,-0.5984121561050415,-2.08518385887146,2.480273485183716
6.349560546875,-0.964187561738491,2.613649297723174,-4.997577985668182,-0.5626501441001892,-1.5407898426055908,2.8787589073181152
6.35954052734375,-0.6869830239906907,2.500515085974336,-4.645086736267805,-0.4583578407764435,-0.9729589223861694,3.1834371089935303
6.369519775390625,-0.2358279867425561,2.254203845270723,-4.1544940071225165,-0.3414956629276275,-0.4126155078411102,3.354979515075684
6.37949951171875,0.0910527283221483,2.117568346425146,-4.143156620550156,-0.2024075239896774,-0.1266670823097229,3.322012424468994
6.3894794921875,0.3806418236076831,2.464650576388836,-4.641312478426099,-0.075038656592369,-0.3288130164146423,3.018904447555542
6.399458740234375,1.0905088795796036,3.6508448125272985,-5.257935725772381,-0.0511811263859272,-0.8525862097740173,2.3661012649536133
6.409442138671875,3.7227623400077214,5.90337824036777,-5.6358057465791696,-0.2950531840324402,-1.60068678855896,1.050856113433838
6.419422119140625,6.701746294352412,6.667844609272479,-5.421292058283091,-0.687443196773529,-2.0609734058380127,-0.3347628116607666
6.429401123046875,4.663638292002678,3.1000644489228724,-2.965898555061221,-1.096737027168274,-2.023380756378174,-1.1068023443222046
6.439381103515625,3.033667146168649,0.838278185699135,-2.5915555393368006,-1.5362292528152466,-2.158115863800049,-1.5269372463226318
6.44936083984375,3.105081108041108,1.2052978727981447,-3.066495356798172,-1.9307446479797363,-2.57421875,-1.803452491760254
6.459340087890625,3.182306678801775,1.8886543768547477,-2.93551919888854,-2.1115143299102783,-2.892441272735596,-1.959666728973389
6.469320068359375,2.702873641574383,2.3206777203924958,-2.15137782317698,-2.0193357467651367,-2.849635362625122,-1.999091625213623
6.479298828125,2.2613918570786717,2.7057851451069115,-1.2333727514207362,-1.7272642850875854,-2.513935089111328,-1.9655529260635376
6.489279052734375,1.8397510836064812,2.9849744269311427,0.2918628854364156,-1.3178051710128784,-1.9794625043869016,-1.894671082496643
6.499259033203125,0.7746540739852935,2.810149190422893,0.9545172315955162,-0.9623764157295228,-1.5692660808563232,-1.7278095483779907
6.50923779296875,-0.452168196346052,2.124604528672248,1.343442314901948,-0.6990342140197754,-1.238062858581543,-1.4447969198226929
6.519218017578125,-1.3867423813156785,0.9801450093269348,1.678463958585262,-0.5174177289009094,-1.0393847227096558,-1.030123233795166
6.5291982421875,-1.8647778267048296,-0.3823451569268479,1.5240169087171551,-0.3787171244621277,-1.0277179479599,-0.5054623484611511
6.539177001953125,-1.632592434248328,-1.7702011620402336,1.2873515943676233,-0.2583177387714386,-1.1307480335235596,0.0477020181715488
6.549156982421875,-0.2225261316968128,-3.189805802385509,1.6919494631022214,-0.1453094035387039,-1.2178109884262085,0.5397495627403259
6.55913720703125,1.6656047692731022,-3.917579101926088,2.462090955033898,-0.0749564096331596,-1.2510701417922974,0.8567996621131897
6.569115966796875,3.174505941922962,-3.690627080078423,3.011132366016507,-0.0779684409499168,-1.264259696006775,0.9072175621986388
6.579095947265625,3.93342841296494,-3.2694401878535744,3.474828904929757,-0.1313732117414474,-1.253517985343933,0.7375186681747437
6.589074951171875,3.749699154511094,-3.221946907533705,4.152255872806906,-0.1822973787784576,-1.1350488662719729,0.4971912801265716
6.599054931640625,3.04836202647537,-3.651357145963609,4.849568275371194,-0.243790328502655,-0.7747208476066589,0.2475783973932266
6.609034912109375,2.389942103015631,-3.783472244775295,5.338983192908763,-0.3804256916046142,-0.1438230276107788,-0.0109455687925219
6.619013916015625,2.0171189903348683,-3.6947508820101618,5.637170605191588,-0.5803200006484985,0.659477174282074,-0.2507256865501404
6.628993896484375,1.6972870247378944,-3.637532034228742,5.744861749103665,-0.8230612874031067,1.4478721618652344,-0.4156666994094848
6.63897412109375,1.2951662136413156,-3.586637421032786,5.646659149026871,-1.0768927335739136,2.0429394245147705,-0.4552621841430664
6.648953125,0.798708757181093,-3.3213454393967985,5.276899953961372,-1.3154174089431765,2.28605318069458,-0.383903831243515
6.65893310546875,0.3433183839181438,-3.896390183424949,4.197030834078788,-1.414852261543274,1.962220311164856,-0.199944257736206
6.668912841796875,0.0624413682026788,-4.6672699265033,3.204652366122603,-1.3104493618011477,1.3030503988265991,0.0058885407634079
6.67889208984375,-0.0561928292019292,-4.4629888784080745,3.3887294151008125,-0.951316773891449,0.5105977654457092,0.1367405503988266
6.6888720703125,-0.002412504501827,-4.005498792919516,3.4662627366364,-0.4304275214672088,-0.2108312100172042,0.1306219398975372
6.698850830078125,0.2367749852690845,-3.530620350256562,4.336134184342622,0.1251712888479232,-0.6093540191650391,0.0054871989414095
6.7088310546875,0.4466640825044363,-3.331682416754961,5.861705336764454,0.661376416683197,-0.8066734671592712,-0.2144451588392257
6.71881103515625,0.7195872896712273,-2.8221640378654,6.6679422244280575,1.102550983428955,-1.0006309747695925,-0.5519922971725464
6.728789794921875,1.1014908037777988,-2.207655590716004,7.065763146373629,1.423311710357666,-1.0329852104187012,-0.9186019897460938
6.73877001953125,1.3521237801380457,-1.4224670440390703,7.500039529535174,1.5701689720153809,-0.7493258714675903,-1.1865862607955933
6.74875,1.7669008053205906,-0.6633665860816836,7.8501646343261,1.6296181678771973,-0.27996826171875,-1.4299283027648926
6.758728759765625,1.9157292846545573,-0.812270761000365,7.502738851621746,1.7411726713180542,0.2960099875926971,-1.6371690034866333
6.768709228515625,1.767166762780398,-1.4120871043220162,6.04293751770556,1.994344472885132,0.7996989488601685,-1.7333979606628418
6.778689208984375,1.0271399847358464,-1.9137416179686784,4.452989462441206,2.429593324661255,1.3603798151016235,-1.6008310317993164
6.78866796875,-0.1235761107861995,-1.9489976402670144,2.152895826524496,2.850860834121704,1.4172974824905396,-1.2880611419677734
6.798648193359375,-1.962279146644473,-0.9128281805749984,-1.1817758351743222,3.0387141704559326,0.965617835521698,-0.9522639513015748
6.8086279296875,-3.082200290930271,1.2288833310469984,-3.790581784519553,3.03010892868042,0.5266714096069336,-0.7213026285171509
6.81860693359375,-3.838915607316792,3.033583559538424,-5.7382642505347725,2.772104024887085,0.3006347119808197,-0.6050808429718018
6.828587158203125,-4.609607134346664,3.9423680907458074,-8.124274420928955,2.2539546489715576,0.3879405856132507,-0.5638819932937622
6.83856591796875,-4.043336648404598,3.8690678767353295,-9.701915367805958,1.66791570186615,0.7678325176239014,-0.5880593657493591
6.8485458984375,-2.070522079220414,2.5176076750725507,-10.674384435677528,1.0283969640731812,0.8970661163330078,-0.5202379822731018
6.858526123046875,-0.4698961972709745,0.7603697472408414,-12.90623163384199,0.3366627097129822,0.3111062347888946,-0.3435218036174774
6.8685048828125,0.3103052086431533,-0.0358346989691257,-13.1552309445858,-0.1827075034379959,-0.2101654857397079,-0.1394738554954528
6.878485107421875,-0.6126391461461782,0.3870626504354179,-11.482146925473211,-0.4655625522136688,-0.5797752737998962,-0.0072403205558657
6.88846484375,-2.2821935298278926,1.4959787088431418,-11.322626225602626,-0.5824164748191833,-1.0398156642913818,0.1058577373623848
6.898444091796875,-3.7399662805259215,1.8998212291657923,-11.449916388475897,-0.6486383676528931,-1.4524191617965698,0.3237276077270508
6.908424072265625,-4.423633311836421,1.6125154225118457,-11.093179172068831,-0.7062694430351257,-1.718156099319458,0.5958776473999023
6.91840380859375,-4.343895173732936,1.489926569197327,-10.15538744982481,-0.7814614176750183,-1.7945067882537842,0.8258542418479919
6.928383056640625,-4.113379321923852,1.663190839999169,-8.576648770838975,-0.9205011129379272,-1.6993826627731323,0.9381093978881836
6.938363037109375,-3.729451608513296,2.016575092716515,-6.841402602323889,-1.1237871646881104,-1.5208187103271484,0.8787698149681091
6.948342041015625,-3.251844325408339,2.3114330683156847,-5.00595652243495,-1.3195234537124634,-1.2888717651367188,0.6664599180221558
6.958322021484375,-2.642700035640597,2.853250081002712,-3.3078333391338584,-1.498316526412964,-1.0409510135650637,0.3118974566459656
6.968302001953125,-2.0178936279691757,3.260942408621311,-1.8604361442387105,-1.6386789083480835,-0.8685832023620605,-0.0083497976884245
6.978281005859375,-2.092199073499441,3.0012188747674227,-0.8426467561721801,-1.80092191696167,-0.8690751194953918,-0.0950482115149498
6.988260986328125,-2.184173592841625,2.3252562803544103,-0.3394154947280883,-1.970605731010437,-1.018728256225586,0.0115522714331746
6.998240966796875,-1.84109665299654,1.6505577145278454,0.3221493026286363,-2.080730438232422,-1.2556308507919312,0.1973313391208648
7.008219970703125,-1.3549758085682988,0.9811856044210492,0.9799462718844412,-2.092782020568848,-1.562061071395874,0.4014040231704712
7.0182001953125,-0.880436534731835,0.2787072339283302,1.5141829124450683,-1.9792453050613403,-1.913323283195496,0.5647715330123901
7.028179931640625,-0.2516523094706237,-0.5376434898620471,1.8627806615382432,-1.7205981016159058,-2.257708787918091,0.6869669556617737
7.038158935546875,0.3844610896348953,-1.3984212748020886,2.38463420586586,-1.3369133472442627,-2.4688894748687744,0.8258124589920044
7.04813916015625,0.91906086441949,-1.9832829178370532,3.2281787876605987,-0.8843608498573303,-2.478874921798706,0.9386561512947084
7.058117919921875,1.4164800785839555,-2.280187596832961,3.971948990017176,-0.4067523777484894,-2.336550235748291,1.022510290145874
7.068097900390625,1.538767172472924,-2.622803202776611,4.466061125460267,0.0336383245885372,-2.079328775405884,1.092306137084961
7.078078125,1.41202397595793,-3.004752017329633,4.776957797190547,0.3890904188156128,-1.7061372995376587,1.1264201402664185
7.088056884765625,1.7761130164325236,-2.979647386689484,4.999159117379785,0.6107682585716248,-1.2197519540786743,1.0195229053497314
7.098036865234375,2.281986316817999,-2.6340514497607943,5.382099865579605,0.7183918952941895,-0.6777605414390564,0.8293365240097046
7.108017333984375,2.411378128145635,-2.12053990958184,5.879010107308626,0.7001822590827942,-0.1461490988731384,0.6162303686141968
7.117995849609375,2.3376249096706507,-1.6674233630023896,6.306696006163954,0.5897781848907471,0.3080871105194092,0.4428067207336426
7.12797607421875,2.4903771383196114,-1.4446882281973956,6.596683160856366,0.4152577519416809,0.6281564235687256,0.3375471532344818
7.1379560546875,2.7043118576839564,-1.546633668064326,6.446685491612553,0.2084399759769439,0.759820818901062,0.3067309260368347
7.14793505859375,3.110100105246901,-1.910607119335234,6.019395314076543,0.0236269906163215,0.6747088432312012,0.3518978655338287
7.1579150390625,3.491258938466012,-2.411542086535692,5.5410974183589214,-0.092024341225624,0.3631183207035064,0.4483847320079803
7.16789404296875,3.809389360842109,-2.74402047547698,5.197298593980074,-0.1110188066959381,0.0134340804070234,0.5374677181243896
7.1778740234375,3.9798376974403857,-2.7186273832842707,5.607210351213812,-0.0153859974816441,-0.1050520092248916,0.5597526431083679
7.18785400390625,3.802809982451796,-2.421355186150223,5.858291728928685,0.1031449139118194,-0.063739463686943,0.5094301104545593
7.1978330078125,3.497302018022537,-2.206469303540885,5.574024120926857,0.2152823060750961,0.1084340214729309,0.4118508100509643
7.20781298828125,3.3560274611994623,-2.281360586135089,5.581728119432926,0.3258860409259796,0.3710477948188782,0.2900623083114624
7.217792724609375,3.2362901979237795,-2.5793957304656505,5.626514771142602,0.4504246413707733,0.6003908514976501,0.1718466132879257
7.22777197265625,3.1606343606978653,-2.90661166883409,5.439511605584621,0.5619945526123047,0.7477017641067505,0.0676523074507713
7.237752197265625,3.181072168570757,-3.1185631054267287,5.272361141487956,0.6238298416137695,0.8490070700645447,-0.0212553367018699
7.24773193359375,3.2928000206530093,-3.058492667606473,5.346088640999794,0.6331474184989929,0.9163714647293092,-0.0973309278488159
7.257711181640625,3.272738644877076,-2.8995670110195872,5.44915504772067,0.6064316630363464,0.9164448380470276,-0.1400552242994308
7.267691162109375,2.8740760114103554,-2.695302914059162,5.241056487163901,0.5646584033966064,0.809047281742096,-0.1480984985828399
7.277669921875,2.333973109164834,-2.574326464377344,4.613126248383522,0.5574164986610413,0.5944207906723022,-0.1115809679031372
7.287650146484375,2.035079009917378,-2.6055478243321177,3.552758532306552,0.6577430963516235,0.2903304100036621,-0.0466067641973495
7.297630126953125,1.8177629775516688,-2.813647846193612,2.2363000859200954,0.8877705335617065,0.0386905185878276,0.0229576714336872
7.30760888671875,1.633705948448181,-2.7570953533664344,0.767054631832242,1.1718552112579346,-0.0125028919428586,0.0784206613898277
7.317589111328125,1.3193367783017456,-2.572890878616273,-0.8293781092762946,1.4379076957702637,0.1019350662827491,0.1396150439977646
7.32756884765625,0.9175413997672498,-2.141164764459431,-2.6762884169876573,1.4975688457489014,0.3021270334720611,0.1210930198431015
7.3375478515625,0.429025915287435,-0.9830998405445368,-4.439185978016257,1.4316879510879517,0.5658872723579407,-0.0230512339621782
7.347528076171875,-0.8913539423264563,0.3337831879295408,-5.72168837878704,1.212825059890747,0.5962446928024292,-0.1981511414051056
7.357508056640625,-2.4164830500692127,1.7023774797447024,-8.359488367426396,0.8141007423400879,0.4471442401409149,-0.3756778836250305
7.367487060546875,-3.633397418642044,2.6425854693502187,-10.240810647827386,0.3426909148693084,0.4877665042877197,-0.4985790252685547
7.377467041015625,-4.041962437441945,2.6710741894707084,-10.839348203384876,-0.0691399350762367,0.9439009428024292,-0.5864406824111938
7.387446044921875,-3.495718255962432,2.043606307505071,-10.746568212878705,-0.3308295905590057,1.5158605575561523,-0.6621397137641907
7.397426025390625,-2.4656714438691734,1.307663730034232,-11.195008730471134,-0.4584836065769195,1.770538568496704,-0.7396464347839355
7.407406005859375,-1.3327572547584772,0.966482540807873,-12.329275795495509,-0.4900538027286529,1.4603769779205322,-0.7656229138374329
7.417385009765625,-0.7222007601052522,0.997257691365108,-13.383388542830945,-0.4754282236099243,0.7491613030433655,-0.651951789855957
7.427364990234375,-0.805185113588348,1.131193356667459,-13.651011890023948,-0.3891098499298095,-0.0052057257853448,-0.404104471206665
7.4373447265625,-1.6177569764271378,1.3952473209410905,-13.058176930022238,-0.2179563343524933,-0.5609164237976074,-0.0831193625926971
7.447323974609375,-2.574605281318724,1.7007982477292418,-12.13913783904314,0.0035840403288602,-0.9314486384391784,0.2191587388515472
7.457303955078125,-3.09908069858253,1.8122808928787708,-11.316731906867028,0.2342760264873504,-1.189566135406494,0.4175715744495392
7.467283935546875,-3.014120441916585,1.6891653853416442,-10.443264480495452,0.4250364005565643,-1.3022838830947876,0.4214565753936767
7.477262939453125,-2.368198765502125,1.398801360160857,-9.442276005104183,0.532278299331665,-1.2707207202911377,0.2153751850128173
7.4872431640625,-1.9441991539441048,1.3674825311809775,-8.373156827294826,0.5337241291999817,-1.1335710287094116,-0.1002283096313476
7.497222900390625,-2.040346136665344,1.7184071157865226,-7.190424714308977,0.4170434772968292,-0.9547109007835388,-0.3991703987121582
7.5072021484375,-2.42999558872357,2.379564355255664,-5.723633083114028,0.199620634317398,-0.7360520958900452,-0.6233465075492859
7.51718212890625,-2.5693048368230462,3.187562991894781,-3.8598002821743487,-0.0531736835837364,-0.4192502498626709,-0.7965116500854492
7.527160888671875,-2.1652043962165712,3.8630934785008426,-1.761167960757017,-0.2840761542320251,-0.0587359964847564,-0.962185561656952
7.53714111328125,-1.949160429613292,4.053745814216136,-0.1048176343023777,-0.5217558741569519,0.1927819699048996,-1.0081576108932495
7.547120849609375,-2.144200771154463,3.78586878452301,0.4981383222192526,-0.8211945295333862,0.2718480229377746,-0.8768666982650757
7.557099853515625,-2.0947423282414674,3.20217750044167,0.8778793975949287,-1.1308778524398804,0.2253823727369308,-0.5915883183479309
7.567080078125,-1.6391037158384918,2.3310490384116767,1.22396604065001,-1.4027544260025024,0.0652156025171279,-0.214272454380989
7.577059814453125,-0.8893348575890063,1.241043286048621,1.5282926863402126,-1.5515003204345703,-0.122024618089199,0.1357398778200149
7.587038818359375,0.1115134786792099,0.2450296764604747,2.226868825230002,-1.545859456062317,-0.3228594660758972,0.3845057487487793
7.597019287109375,0.7682832968443631,-0.6633923050448298,2.7876608797609803,-1.416881799697876,-0.5420828461647034,0.5139708518981934
7.6069990234375,1.1189534682974218,-1.4737687767311929,3.282518865135312,-1.235334038734436,-0.7907438278198242,0.5739185810089111
7.61697802734375,1.3051632915206253,-2.185905385070294,3.631470834493637,-1.0378332138061523,-0.981658697128296,0.5625522136688232
7.626958251953125,1.563507207584381,-2.6392203768312927,4.156879440954327,-0.8497162461280823,-1.0333255529403689,0.4734510779380798
7.63693701171875,1.940669810774177,-2.954109917590022,4.965885793331265,-0.6562263369560242,-0.8845319151878357,0.3190162181854248
7.6469169921875,2.4283920990496872,-3.099589817148447,5.728659386843443,-0.4728527665138244,-0.5727007985115051,0.120227500796318
7.65689697265625,2.8546573174521326,-3.008435382017493,6.327148427084088,-0.3113764524459839,-0.1852485984563827,-0.095393605530262
7.6668759765625,3.026641777576506,-2.748781698529422,6.718911948686838,-0.165528729557991,0.1648425757884979,-0.3025864660739898
7.67685595703125,3.0237942791908976,-2.427684389171749,6.856254719018936,-0.0276370365172624,0.4108677506446838,-0.4714909493923187
7.686835693359375,3.0199732595980167,-2.1298538275025782,6.88578768749535,0.0927964299917221,0.552157998085022,-0.5996859073638916
7.69681494140625,2.8326965377956626,-1.9586758614555,6.89190646263659,0.1894908845424652,0.5891749262809753,-0.6495952606201172
7.706794921875,2.390468903368711,-2.000141844309866,6.934234615278244,0.2554584741592407,0.5748279690742493,-0.614410936832428
7.71677490234375,2.1121659028597173,-2.046929168317467,7.029986315071582,0.2841038107872009,0.5599251985549927,-0.5341609716415405
7.726754150390625,2.0465641343973577,-2.054517723750323,7.118003036698698,0.296800434589386,0.5416910648345947,-0.4503196179866791
7.736734130859375,2.071441093761474,-2.132969036913663,7.001890685921907,0.300212949514389,0.5006510019302368,-0.372061550617218
7.746713134765625,2.2251703507490457,-2.142519832330197,6.700825672376156,0.2982957363128662,0.4455579221248626,-0.3412820696830749
7.756693115234375,2.3515289318606256,-2.087069893917441,6.415588342559337,0.3214018642902374,0.3996602892875671,-0.3692002594470978
7.7666728515625,2.266512268832326,-1.9628410183109344,6.296574425122142,0.3652324378490448,0.3991417586803436,-0.4564227759838104
7.776652099609375,1.9846888391122224,-1.769282585890591,6.374240433126688,0.4295069575309753,0.4813771843910217,-0.5550948977470398
7.786632080078125,1.552266851645708,-1.6327388569816943,6.641884238585829,0.4942864775657654,0.6394083499908447,-0.6191945672035217
7.79661181640625,1.1568468533620238,-1.4332307223767042,6.976531203737855,0.5700111389160156,0.831896185874939,-0.6256095170974731
7.806591064453125,0.8686432210855185,-1.1808628119826317,7.177053191560506,0.6649770736694336,0.9953375458717346,-0.5639139413833618
7.816571044921875,0.599739332562685,-0.9313767406351864,7.267447163712978,0.7907595038414001,1.0930728912353516,-0.4463264644145965
7.826551025390625,0.5122272725220769,-0.5918477390626445,7.340368023017048,0.9506967067718506,1.15136981010437,-0.3256580829620361
7.836530029296875,0.6230221546031535,-0.3518473985388874,7.1276564157068725,1.1402121782302856,1.169394612312317,-0.2475947439670562
7.84651025390625,0.9372615608900784,-0.3087731037050485,6.574010141277313,1.3503869771957395,1.1354988813400269,-0.2378702014684677
7.856489013671875,1.3988830470949412,-0.2897611639168113,5.401795915174484,1.5203310251235962,1.010305643081665,-0.3160998821258545
7.866468994140625,1.2712602912664412,-0.2974731995988637,3.050170244941115,1.52758526802063,0.5337929129600525,-0.3582499921321869
7.876448974609375,0.4027205305553972,-0.2406019231460988,-0.1690109972715377,1.3228858709335327,-0.2619953155517578,-0.3346756994724273
7.886427978515625,-0.3822206902969628,0.4515305925622582,-2.1090525931447743,0.9842955470085144,-0.8480199575424194,-0.3229178488254547
7.896407958984375,-1.1931747426755726,1.2883422128401696,-2.6459745272666213,0.5959452390670776,-0.9271840453147888,-0.325355052947998
7.906387939453125,-2.2750582711204883,1.8976392089515923,-3.154121033281088,0.2010757327079773,-0.560232400894165,-0.3302661776542663
7.916366943359375,-3.4751670508429404,2.4568475014224647,-4.252705375027657,-0.1988023966550827,-0.0491781495511531,-0.3152139782905578
7.926346923828125,-4.0901235340207815,2.707474413368106,-5.975674830293655,-0.5997844338417053,0.3239030241966247,-0.3201251327991485
7.936326904296875,-3.328714799121022,2.3767479826606808,-7.71552936938703,-0.8951274156570435,0.464384377002716,-0.4043358564376831
7.946305908203125,-1.9984449772641064,1.5017463324591516,-8.967914279791712,-1.0474077463150024,0.3490442037582397,-0.4933805167675018
7.9562861328125,-0.7804488048039376,0.5950117925841361,-10.342282478833198,-1.066750407218933,0.0097377765923738,-0.5421584248542786
7.96626513671875,0.0656928808119148,0.0948166109003126,-11.65916002741456,-0.9829597473144532,-0.3359319865703583,-0.5233280062675476
7.9762451171875,0.2631445943437516,0.0809988056890666,-12.26463118162751,-0.7949750423431396,-0.536149263381958,-0.4085733592510223
7.986224853515625,-0.3200526226103306,0.5666748289592564,-12.570910130429269,-0.5414271950721741,-0.6014842987060547,-0.1859847605228424
7.9962041015625,-1.1620417185913772,1.3768711217731238,-12.607917380309104,-0.2800783216953277,-0.6316076517105103,0.0557595528662204
8.00618408203125,-1.504017200000584,1.9005504202231764,-12.62739364967346,-0.0469776913523674,-0.6923607587814331,0.3083580136299133
8.016163818359376,-1.627150535455346,1.6207766165092587,-12.48186874192953,0.1332916766405105,-0.7430798411369324,0.5591659545898438
8.02614306640625,-1.4745020594418048,0.9657752693213522,-12.144683782732486,0.2234471440315246,-0.7438119649887085,0.7278159856796265
8.036123046875,-1.1281655332788825,0.4100684821654111,-11.650624838781356,0.2267505824565887,-0.6615479588508606,0.786993145942688
8.046102783203125,-0.8464747900277376,0.0168462131217122,-10.798190848088264,0.1687791645526886,-0.4566381871700287,0.7465210556983948
8.05608203125,-0.5575098179899156,-0.0761473470699042,-9.529896420890092,0.0745460987091064,-0.1348833292722702,0.6326794624328613
8.066061767578125,-0.251839210344851,0.1379780725609511,-7.999120685562491,-0.0565381534397602,0.2352116405963897,0.5004172921180725
8.076040771484376,-0.0552045853495597,0.4271992843821645,-6.435832673686742,-0.2167077511548996,0.5570932626724243,0.4099856913089752
8.086021240234375,0.043903000742942,0.5857723281390964,-4.906733347138762,-0.379951536655426,0.7572468519210815,0.4039240479469299
8.0960009765625,0.2200851317528635,0.5314071892883628,-3.4160441230058667,-0.5142688751220703,0.837639331817627,0.4863146543502807
8.10597998046875,0.633022666548565,0.2899467496167868,-1.9742022241503,-0.610078752040863,0.8106772303581238,0.6168734431266785
8.115960205078125,0.9728136435255408,-0.1124397997438907,-0.7060451595962047,-0.6746882200241089,0.6878833174705505,0.7836848497390747
8.12593994140625,0.945024596107006,-0.7102368391323834,0.3586754909932613,-0.7167091965675354,0.4885731935501098,1.0004080533981323
8.1359189453125,0.6057798548359423,-1.311861766245961,1.463833950433135,-0.7173902988433838,0.3006117939949035,1.241849064826965
8.145899169921876,0.4155001518253237,-1.586872008819878,2.5964158388495444,-0.6970791220664978,0.1478890776634216,1.4304392337799072
8.15587890625,0.28545769456923,-1.7057032631665467,3.546394842493534,-0.6532739400863647,0.0473562628030777,1.555596947669983
8.16585791015625,0.2298162521723657,-1.980924225881696,5.141660293388367,-0.2672826051712036,0.4699741005897522,1.6066659688949585
8.175838134765625,1.269656655462086,-2.1712930684804914,10.73877887417674,0.3412259817123413,0.967695653438568,1.3799065351486206
8.18581689453125,1.7014865222543476,-3.098569534189999,7.545882412299513,0.7598093748092651,0.8229368329048157,1.1707302331924438
8.195797119140625,2.2339605370566247,-3.5814039042934773,6.323966289916634,0.9493577480316162,0.0955327600240707,0.9483880400657654
8.20577685546875,2.344483689524233,-3.659745327341557,5.03691513980031,0.9020485281944276,-0.5868735313415527,0.7489351034164429
8.215756103515625,2.578435361000895,-3.226264478471875,6.131914024275541,0.752796471118927,-0.700444221496582,0.5174025297164917
8.225736083984375,2.4329870256245134,-2.6425004214152694,7.116281619733572,0.515266478061676,-0.4147208333015442,0.281109869480133
8.2357158203125,1.942901369218528,-1.9830955785714088,7.0747659525185815,0.2477567344903946,0.0289420187473297,0.0676657482981681
8.245695068359375,1.526793241562694,-1.4215908457264304,7.147483398205042,0.0167874302715063,0.4432902038097381,-0.0944400653243064
8.255675048828126,1.2233831992607562,-1.051080978424102,7.11083855189681,-0.1537622809410095,0.7184422612190247,-0.2182833105325698
8.26565478515625,1.3631205365791916,-0.7992197754431516,7.167215103635192,-0.2278623431921005,0.8315312266349792,-0.3418079018592834
8.275634033203126,1.4753364644393323,-0.8362238104525953,7.5175962290138,-0.1697989553213119,0.8606151342391968,-0.3990532159805298
8.28561376953125,1.1316209344297647,-1.0469902019791304,8.05318779131472,-0.0387264192104339,0.8810849785804749,-0.3987022042274475
