seconds_elapsed,ax,ay,az,gx,gy,gz
0.073256103515625,-3.588530687433481,2.662950504247844,9.399210770359634,-0.466841846704483,-0.4760434925556183,-0.2111178487539291
0.083281982421875,-3.1197768651306625,2.4494575373016296,8.795884226959943,-0.2276319414377212,-0.3378089368343353,-0.3117128908634186
0.093307861328125,-2.317589983510226,2.200664855045825,8.546647600328921,0.0692000687122345,-0.1416738331317901,-0.3118315041065216
0.103334228515625,-1.4835393523782492,2.0853269957728684,8.632934137162566,0.3654229342937469,0.0029507223516702,-0.2330277562141418
0.113360107421875,-1.0165433335281908,1.9230378541022537,8.944136513841151,0.6066783666610718,0.0373826399445533,-0.1545742303133011
0.12338623046875,-0.8124768049664794,1.6127156212590634,9.60504021694064,0.7119784355163574,0.0085179675370454,-0.083633467555046
0.133412109375,-0.6548400191463529,1.4382332068391144,10.471085384356975,0.642230212688446,-0.0391609147191047,-0.0141421053558588
0.143438232421875,-0.6011603052765131,1.4852902876988052,11.172221729123592,0.4459381997585296,-0.070243202149868,0.0317433625459671
0.153464111328125,-0.6636414575003087,1.499666311314702,11.266292343962192,0.1652138531208038,-0.0674670189619064,0.0332301296293735
0.163489990234375,-0.9516467907257378,1.3984572228983043,10.570758056986332,-0.1369334757328033,-0.0588727332651615,-0.0462162271142005
0.17351611328125,-1.2811270207643508,1.2872428732961416,9.153445034709572,-0.3630198538303375,-0.0444539040327072,-0.2374262362718582
0.1835419921875,-1.4832348164737224,1.088391449034214,7.299051093244552,-0.504976212978363,-0.0703827068209648,-0.4783722460269928
0.193568115234375,-1.4790985934518277,0.9053661010660232,5.207929293587804,-0.6000918745994568,0.0177170243114233,-0.7022380232810974
0.203593994140625,-1.3976707486957312,0.514613071680069,2.5844272948920723,-0.6773110032081604,0.2416593134403228,-0.9116535782814026
0.213620361328125,-1.8952968836091455,-0.7586293333142995,-0.7675316016942262,-0.7305503487586975,0.5738425850868225,-1.1307660341262815
0.223646240234375,-2.650660931517184,-2.736500016844273,-5.459610975283384,-0.7639093399047852,1.1353759765625,-1.310650110244751
0.23367236328125,-2.428217473135144,-4.758128009036184,-11.810760455679892,-0.6015526652336121,1.650244951248169,-1.2714940309524536
0.2436982421875,-0.1216781682103872,-5.630824451035261,-18.21349516188502,-0.2650763690471649,1.5022417306900024,-0.8178114295005798
0.25372412109375,3.191521666392684,-3.0891724680304526,-22.213498864519597,0.0220111180096864,0.5324143767356873,-0.2387660443782806
0.263750244140625,3.5297423983782528,-0.947356984577328,-23.667286637234685,0.1586038470268249,-0.7690452933311462,-0.0162275098264217
0.273776123046875,0.5431234191104769,-1.633784128250927,-23.79394785455465,0.0556984841823577,-1.82135009765625,-0.1553666591644287
0.28380224609375,-1.8289203313820064,-2.820454019077122,-22.79038222215176,-0.3144223392009735,-2.2266950607299805,-0.3256723284721374
0.293828125,-1.5014232379846273,-2.5922645643889903,-21.05565452455282,-0.6865993142127991,-2.179881811141968,-0.3829914927482605
0.303854248046875,-0.7978774939887225,-1.677222141830623,-19.427291106176376,-0.7967647314071655,-1.639594554901123,-0.5357187390327454
0.313880126953125,-0.0567051991708576,-0.5627965262211859,-18.1600453112483,-0.5664246678352356,-0.7136200070381165,-0.795714259147644
0.32390625,1.2310736806981264,0.9180562174215912,-16.626353396213055,-0.0901238769292831,0.4155123829841614,-1.128612399101257
0.333932373046875,2.828505223585665,1.5799645675189793,-14.425955813801288,0.4495387673377991,1.2148545980453491,-1.4564838409423828
0.343957275390625,5.271559761977195,1.3608414857313036,-11.31834635632634,0.8811923861503601,1.4946597814559937,-1.6039891242980957
0.3539833984375,8.077508578100801,0.675210460871458,-7.481970204359293,1.0181283950805664,1.3272030353546145,-1.4848136901855469
0.36400927734375,10.352781661015747,-0.3352612976580858,-3.468621866983175,0.7902333736419678,0.8479040265083313,-1.1059513092041016
0.37403515625,11.165320863693951,-1.2383423565268517,0.1469564018517732,0.2941646575927734,0.1350727081298828,-0.5387538075447083
0.384061279296875,10.120551114243268,-1.7010900702826677,2.9623312179684635,-0.2702369391918182,-0.467134028673172,0.0436190254986286
0.394087158203125,8.198242743459343,-1.9062712820880117,4.754128125745058,-0.7413934469223022,-0.8162221312522888,0.5765014290809631
0.40411328125,5.688078370130062,-1.752631895340979,5.913152615407109,-1.084949016571045,-0.8588393926620483,0.986336588859558
0.414139404296875,3.140551065351069,-1.0193101678930223,6.768533180946111,-1.3735543489456177,-0.6829696297645569,1.2413573265075684
0.42416552734375,1.005725148524344,0.0210441032029688,7.213218729919195,-1.5885992050170898,-0.4186149537563324,1.2971404790878296
0.43419140625,-0.825894504944235,0.7249453826382756,7.154369650587439,-1.7219244241714478,-0.2524354457855224,1.1357063055038452
0.444217529296875,-2.1066044693402945,0.8811356229119003,6.609709231168031,-1.7112858295440674,-0.2124600559473037,0.8261889815330505
0.454243408203125,-2.8960622177690265,1.0411668295878915,5.717336613318324,-1.4834884405136108,-0.089465320110321,0.4607518315315246
0.464269287109375,-2.9309806786760686,1.045203830019012,4.591099125492573,-1.0500779151916504,0.1937975436449051,0.1849567145109176
0.47429541015625,-2.0336220891073347,0.9405551225427538,3.786210145306587,-0.4662609100341797,0.3449689447879791,0.0854227170348167
0.4843212890625,-1.1796952295079826,0.9257656958203764,4.056703494977951,0.1391341835260391,0.3760059475898742,0.0845782309770584
0.494347412109375,-0.7697897558845579,0.8045152515027671,5.15183623496592,0.576154887676239,0.4261619448661804,0.112699419260025
0.50437353515625,-0.6985881215885281,0.2830750372163951,6.876198021373153,0.7762283682823181,0.4612131416797638,0.1853344887495041
0.514399658203125,-0.8839367979377508,-0.1894049660027027,8.709638606658578,0.7095900177955627,0.5272094011306763,0.2790058851242065
0.524425537109375,-1.000323143350333,-0.4120532262418419,10.175635288083551,0.3895095288753509,0.476141482591629,0.3831354975700378
0.534451416015625,-1.204022884426266,-0.4802309096068143,11.12599306191206,-0.080566368997097,0.2086489498615265,0.4999820291996002
0.5444775390625,-1.571661287945509,-0.2764738123204558,11.4179734362483,-0.6266800761222839,-0.1270805895328521,0.5899636149406433
0.55450341796875,-2.406928455260396,0.0657887424018233,10.788289047276972,-1.115816354751587,-0.3781006038188934,0.5921615362167358
0.564529541015625,-3.693629476764798,0.4009281672459096,9.18573285485208,-1.3889919519424438,-0.5517061948776245,0.4643663167953491
0.574555419921875,-4.88724830994606,0.6005518179893493,7.155514728969335,-1.3686515092849731,-0.6097304821014404,0.194791629910469
0.58458154296875,-5.432963791376352,0.6792181621428579,5.276616460844874,-1.106473445892334,-0.4940156042575836,-0.0891442149877548
0.594607421875,-5.123416196167469,0.8140851169459521,3.885771758776903,-0.6581939458847046,-0.2461293935775756,-0.2900380790233612
0.60463330078125,-4.432674111904204,0.8711077115029096,3.214782714992761,-0.1055305078625679,0.045408446341753,-0.437660813331604
0.61465966796875,-3.785084648407996,0.7873442634060979,3.082539898148179,0.4522185921669006,0.2703335285186767,-0.5525514483451843
0.624685546875,-3.1118378888249394,0.4634994819711893,3.626441023632884,0.9074113965034484,0.281561404466629,-0.6144736409187317
0.634711669921875,-2.106536518670618,0.2026672562230378,5.0555122882425785,1.1277176141738892,0.1500833481550216,-0.5860425233840942
0.644737548828125,-1.0581213984549045,0.0649031917389482,6.874397109431028,1.0656086206436155,-0.1273906081914901,-0.4601863324642181
0.654763671875,-0.5728660848148167,-0.0842849146876484,8.376251870700717,0.8244521617889404,-0.3888688087463379,-0.3234248161315918
0.66478955078125,-0.8059038563169538,-0.1632276646297425,8.94083747229576,0.4854437112808227,-0.4497164487838745,-0.268006831407547
0.674815673828125,-1.507252820920944,-0.2177100001193583,8.4594416105628,0.1404030323028564,-0.2859236598014831,-0.3779229521751404
0.684841552734375,-2.158990344007313,-0.3774831403810531,6.871677913600206,-0.0428094007074832,0.0603613071143627,-0.626693606376648
0.694867431640625,-1.6921851715542375,-0.2894458143573254,4.651155827048421,-0.0667271614074707,0.3934020400047302,-0.8501377105712891
0.7048935546875,0.2689424669675528,0.4122201072413474,2.7374697386592626,-0.0579347386956214,0.4030379056930542,-0.8672197461128235
0.714919677734375,2.759931161314249,1.9428505158141252,1.4296622162401675,-0.0494685694575309,-0.0041750855743885,-0.6555939316749573
0.72494580078125,4.119357227289677,3.460891857253015,0.4186597118347883,-0.0405453816056251,-0.3022536635398865,-0.3897875547409057
0.7349716796875,3.542973343612253,3.44175724093318,-1.1103121889412402,-0.053646694868803,-0.024638095870614,-0.2204441577196121
0.74499755859375,1.5961210448108611,1.5699989076912402,-3.6000983756303784,-0.1084185987710952,1.043542742729187,-0.1706683486700058
0.7550234375,0.4252988575883209,-0.6477856436554342,-7.624030066341161,-0.2759395837783813,2.549896717071533,-0.1189647167921066
0.76504931640625,1.997914669779688,-0.8310570753391832,-12.139205643582343,-0.4720395803451538,3.3357062339782715,0.0769259631633758
0.775075439453125,5.375925560858845,1.837061113870144,-15.696720430505277,-0.6360548138618469,2.914340019226074,0.3092312216758728
0.785101318359375,6.755809308451414,3.3863854823231696,-19.3409385183692,-0.729987382888794,1.803195834159851,0.4307217001914978
0.79512744140625,5.937721823996305,2.456962944495678,-22.45713226431608,-0.6989701986312866,0.5319947600364685,0.5119838714599609
0.8051533203125,3.820782569254935,1.4755585827574134,-23.70726092022657,-0.5625787973403931,-0.1284596025943756,0.4617419838905334
0.815179443359375,1.494634454627335,0.8148205916136503,-23.122544969272614,-0.4464350640773773,-0.0608651116490364,0.3786399662494659
0.82520556640625,0.3418210945650935,-0.0642085240056738,-21.461413253760337,-0.4934371709823608,0.3973107039928436,0.4253597855567932
0.8352314453125,0.5768263667479158,-0.5048118086338043,-19.203642509788278,-0.7806567549705505,0.6513780355453491,0.5076450705528259
0.845257568359375,0.9329758463948964,0.0700627664592117,-16.88514695574045,-1.1077126264572144,0.6186139583587646,0.3978925049304962
0.855283447265625,0.3878463481590151,0.3037114729339257,-15.846776551938056,-1.1876546144485474,0.5072645545005798,0.0869778543710708
0.8653095703125,0.0089385087370872,0.3961148486800491,-15.338466964316368,-0.8882545828819275,0.3210020661354065,-0.3046170771121979
0.87533544921875,0.5834399396687746,0.3351152767835185,-13.928285693615674,-0.3084873855113983,-0.0254847407341003,-0.6080064177513123
0.885361572265625,1.8833301130920648,-0.2828907301580533,-11.012024152904749,0.3263841271400451,-0.3945905864238739,-0.6784504652023315
0.895387451171875,3.0507404460445047,-0.9470288486015052,-6.940972983622551,0.8454018831253052,-0.6034767627716064,-0.5247077941894531
0.905413330078125,3.2997768739283084,-1.9520935604557397,-2.62661808488965,1.2195794582366943,-0.6956709027290344,-0.2454516440629959
0.915439453125,2.503867903533578,-3.1740622898086905,1.5915145739287138,1.4250088930130005,-0.7004479765892029,0.021111948415637
0.92546533203125,1.2465472902923822,-4.034657667386532,5.382069470441341,1.4211372137069702,-0.674067497253418,0.238981157541275
0.93549169921875,0.2908727053552866,-4.342732267433405,8.536123868227005,1.2316054105758667,-0.6473962664604187,0.4685985445976257
0.945517578125,-0.1473959623128175,-4.150640254303813,10.91908634148836,0.8579806089401245,-0.5925423502922058,0.7440026998519897
0.955543701171875,-0.6917949543170631,-3.630032910645008,12.446207061439752,0.3205863833427429,-0.5534799098968506,0.988288640975952
0.965569580078125,-1.7369914047472177,-2.952705311489105,12.94713296855092,-0.2724029123783111,-0.5531491637229919,1.0637943744659424
0.975595703125,-3.1388886850968003,-2.2765476328954097,12.350802567648888,-0.7898092865943909,-0.6223663687705994,0.917620062828064
0.98562158203125,-4.273408555838466,-1.750479393482208,10.805163025188444,-1.077629804611206,-0.7344902157783508,0.6451539397239685
0.9956474609375,-4.61775390818417,-1.401618901799619,8.795542866176365,-1.0625957250595093,-0.769676685333252,0.38382089138031
1.005673583984375,-4.0583962703704834,-0.8944682018894702,6.967664006671309,-0.761036217212677,-0.703766405582428,0.2473618388175964
1.015699462890625,-2.8605595272332427,-0.3403697632456198,5.752353566163778,-0.2452838569879531,-0.5881049036979675,0.261604756116867
1.0257255859375,-1.8171996445804832,0.0442996719103306,5.318227989649772,0.3173179626464844,-0.4320702850818634,0.3921902179718017
1.03575146484375,-1.2836308202788234,0.277040140966326,5.803316860681772,0.7282474637031555,-0.3280787169933319,0.554863452911377
1.04577783203125,-1.3384906838439403,0.527420311609283,7.148547228044271,0.8970699906349182,-0.3535888493061065,0.6640309691429138
1.0558037109375,-1.8515081568956373,0.8104726986024529,8.56319132337272,0.8666274547576904,-0.4320524632930755,0.6831179261207581
1.06582958984375,-2.635605108943581,0.9812667068332434,9.55884720556438,0.695715606212616,-0.4345017671585083,0.6065381765365601
1.075855712890625,-3.551971181321144,0.9952609645899384,10.096076013678312,0.4239550530910492,-0.3306627571582794,0.4424931108951568
1.08588134765625,-4.013524570725858,1.0893513070423155,10.148014290708304,0.1601721495389938,-0.2380816638469696,0.2333090156316757
1.095907470703125,-3.90636680303812,1.2180903535496443,9.76668331579268,-0.0054296283051371,-0.1926142573356628,0.0270177163183689
1.105933349609375,-3.2552041572302577,1.269699617820978,9.048519263857605,-0.0568494088947773,-0.1983626931905746,-0.1012254804372787
1.11595947265625,-2.1827093655079604,1.2714283413097265,8.280686048868297,0.0140822436660528,-0.2205171436071396,-0.1044823303818702
1.1259853515625,-1.25126058254987,1.250335284398496,7.602327353098988,0.1679298728704452,-0.2412780821323394,-0.0334757976233959
1.13601123046875,-0.7427364753946661,1.1297123243294656,7.163557750171423,0.3538442254066467,-0.2793283462524414,0.0579771697521209
1.146037353515625,-0.4159850857980549,1.1993315117396413,7.033005955153703,0.5364475846290588,-0.3188251554965973,0.1449312418699264
1.1560634765625,-0.4143436022013425,1.2658870737954973,7.161449379715323,0.6939513087272644,-0.3014644086360931,0.1712361723184585
1.166089599609375,-0.7432809575349092,1.1021965408943593,7.411883107176423,0.8038468956947327,-0.2212574630975723,0.1298208087682724
1.176115478515625,-0.8495224871605634,1.017638581418991,7.736850974357128,0.8388494253158569,-0.1400211453437805,0.0774419084191322
1.1861416015625,-0.5544986534751951,1.0748472000673412,8.07930013769269,0.7775802612304688,-0.1496695131063461,0.030929272994399
1.19616748046875,-0.0856328952305018,1.196497457357496,8.167749405518174,0.6406227350234985,-0.260089635848999,0.0080230236053466
1.206193359375,0.4220018618695437,1.2571819354228675,8.016359405133128,0.4321582317352295,-0.4399552643299103,0.0327571332454681
1.216219482421875,0.6520334372930229,1.3684732957839965,7.413091898444295,0.1939005851745605,-0.5167814493179321,0.0550496727228164
1.226245361328125,0.3648218847937882,1.299135994055122,5.847062478905916,-0.0126419337466359,-0.3889390528202057,-0.0307547133415937
1.236271484375,0.0636260844752192,1.31710916538015,3.7581443267732855,-0.1744226217269897,-0.1829582303762436,-0.2144205570220947
1.24629736328125,0.0881596372291445,1.2789324333295224,1.580814316216111,-0.2554423809051513,-0.0089725852012634,-0.3993483483791351
1.256323486328125,0.1353147716358304,0.4062997042164206,-0.8438841890126466,-0.3130934834480285,0.1313836425542831,-0.5001676082611084
1.266349609375,0.4773461479507386,-0.8368849777750671,-3.3491847556978462,-0.4396801888942718,0.238029658794403,-0.3986875712871551
1.276375732421875,0.6508093023255467,-1.4872724014267324,-5.8640708968520165,-0.6569837927818298,0.5949496626853943,-0.2714412212371826
1.286401611328125,0.1930640730321407,-1.634072882064432,-9.57807505312562,-0.8518006801605225,1.0838581323623655,-0.3712831139564514
1.296427490234375,1.1526849113769828,-0.2389087093621492,-13.08557464003563,-0.7519931793212891,0.9448630213737488,-0.5472836494445801
1.30645361328125,3.9755987446963785,2.074429023531079,-15.08810454852581,-0.3824889063835144,0.4822437167167663,-0.4859542548656463
1.3164794921875,6.537981381040811,1.8916404069282116,-16.489510976618526,-0.1043348386883735,0.2233768105506897,-0.0180897843092679
1.326505615234375,7.560344068372249,1.0966651371870189,-15.922680226445197,-0.1280420273542404,0.200616642832756,0.574047863483429
1.336531494140625,6.660227704527974,1.0059390835359692,-14.597050047087668,-0.4696614146232605,0.2020845711231231,0.8678115606307983
1.3465576171875,4.408756937482953,0.5154647931385785,-13.384801916760203,-1.065640568733215,0.0449306406080722,0.8722377419471741
1.35658349609375,3.274772196531296,0.598780716663599,-12.861747179949283,-1.8067731857299805,-0.2260740548372268,0.7758339643478394
1.366609375,3.4745480421617625,2.342330310882628,-12.823341753709316,-2.3605048656463623,-0.5292730927467346,0.5756835341453552
1.3766357421875,3.338571591746807,3.452193879273534,-13.715845888984202,-2.4792191982269287,-0.647416889667511,0.3318982720375061
1.38666162109375,3.1449621597915884,3.3137978004962205,-14.944805500137806,-2.1731014251708984,-0.4488135278224945,0.1990427374839782
1.396687744140625,3.290116480657458,3.120688719278574,-15.42770475217104,-1.551859974861145,-0.0140857165679335,0.1724676191806793
1.406713623046875,3.055892129719257,2.5294343064665794,-14.786968223309517,-0.7703524827957153,0.416508287191391,0.1875573545694351
1.416739501953125,2.2859835697606203,1.763926611815393,-13.074351819753646,0.0046487939544022,0.7311149835586548,0.1570856273174286
1.426765380859375,0.9022450464360416,0.9305502997484058,-10.412686971402168,0.6577312350273132,0.8529015779495239,0.03001369535923
1.436791259765625,-0.1196903553940355,-0.2818529298092238,-6.81290306854844,1.02458918094635,0.6337156891822815,-0.0952350720763206
1.4468173828125,-0.1521130539625883,-1.4261178216315804,-2.4519518383353947,1.0335613489151,0.1880345940589904,-0.1206653267145156
1.45684326171875,0.2653657775245607,-2.200461149167269,1.4997978287398814,0.7951818108558655,-0.2506411671638489,-0.0206001177430152
1.466869140625,0.4877481533691287,-2.804387265895307,4.416376764836907,0.4467257857322693,-0.4372286200523376,0.1795220524072647
1.47689501953125,0.3923287542700767,-2.9161297310248018,6.421015628305077,0.0188886728137731,-0.3884280920028686,0.3898645341396332
1.486921142578125,-0.2846459397949278,-2.579824477271736,7.445653274831176,-0.4010244607925415,-0.3440867662429809,0.4827832877635956
1.496947021484375,-1.3800747401200235,-2.35332560601905,7.283008305460214,-0.6734236478805542,-0.4304668605327606,0.4081672728061676
1.50697216796875,-2.326448705009371,-2.118634514351934,6.154038762322068,-0.7223395109176636,-0.5415449142456055,0.2206743359565735
1.5169990234375,-2.7359254318267103,-1.680450456227362,4.9060237375646825,-0.5300132632255554,-0.5925433039665222,0.0259374435991048
1.527025146484375,-2.369733719984442,-1.0038472258232534,4.04508729146421,-0.0836562812328338,-0.5937076807022095,-0.0788867026567459
1.53705029296875,-1.8207760417625307,-0.6266160143766552,3.671277359703183,0.5169795751571655,-0.4765427112579345,-0.0945020914077758
1.5470771484375,-1.5106262428767978,-0.6158892339833081,4.152704201096296,1.0840834379196167,-0.3226439654827118,-0.0532531924545764
1.55710205078125,-1.313609486696124,-0.4285780619220808,5.765219477477669,1.463465690612793,-0.1731518805027008,0.0227273646742105
1.567128173828125,-1.2740567901171742,-0.1412821190750226,7.825388504987955,1.5854065418243408,-0.0491066314280033,0.1029590815305709
1.577154052734375,-1.4533657479107378,-0.0677284052275121,9.798242237138748,1.4487110376358032,0.0071960790082812,0.1676432192325592
1.58718017578125,-1.839425504913926,0.2143447614699602,11.270948645335436,1.0840986967086792,-0.0120508512482047,0.1687630712985992
1.5972060546875,-2.3915907470054925,0.4742400716941803,12.080940501618384,0.5866608023643494,-0.1761679500341415,0.0814786702394485
1.607232177734375,-2.9018565832614898,0.6763140381991863,12.165332603007554,0.1206092238426208,-0.3881188333034515,-0.0788569375872612
1.617258056640625,-3.1989392491728066,0.8642573341514914,11.427912646460532,-0.180223286151886,-0.5160067081451416,-0.2359963357448578
1.627283935546875,-3.0949948905736204,0.9621781946774572,10.209307256060836,-0.2808548212051391,-0.5327766537666321,-0.3425134718418121
1.63731005859375,-2.8935072725892064,1.148224570967257,8.938309999644757,-0.1739219278097152,-0.4215588867664337,-0.4395533800125122
1.6473359375,-2.788030005334317,1.290654727566242,7.781255933272838,0.1156792640686035,-0.2389027774333953,-0.5412477850914001
1.6573623046875,-2.4788942057967183,1.216317571723461,6.939878758645057,0.5031642317771912,-0.0573810972273349,-0.6015079617500305
1.66738818359375,-1.8898264893740413,1.0633525771066543,6.761969000124931,0.8618445992469788,0.046263538300991,-0.5956774950027466
1.677414306640625,-1.1742937357906251,1.018577104378119,7.399058112394809,1.0787107944488523,0.0369538813829422,-0.5519945025444031
1.687440185546875,-0.8754144687861204,0.9123520144306124,8.355251752769947,1.1115872859954834,-0.0236106608062982,-0.5213851928710938
1.697466064453125,-0.8943653260368853,0.4432615075193345,9.141042649254205,0.957771360874176,-0.1046435162425041,-0.5026915669441223
1.7074921875,-0.7307609370492398,0.128995943877846,9.441634200069307,0.6746366024017334,-0.2645937800407409,-0.478138267993927
1.71751806640625,-0.6262902164883911,0.0029231939703226,8.972745937731862,0.4232832491397857,-0.4225692451000213,-0.5232661962509155
1.727544189453125,-0.6183174840435385,-0.2338838669374585,7.5966498919844625,0.2622943520545959,-0.5049842596054077,-0.5627161860466003
1.737570068359375,-0.2207747214522212,-0.3821548585191369,5.967735269466043,0.1370358169078827,-0.5580093860626221,-0.5253424048423767
1.74759619140625,-0.0599576250955462,-0.3018989801518619,4.242935091641545,-0.0070981900207698,-0.5763705372810364,-0.4822096228599548
1.7576220703125,-0.8643885593157261,-0.343914559713006,1.9858190121859312,-0.1136932745575904,-0.3618134558200836,-0.5603545308113098
1.7676484375,-2.346575985628366,-0.5123191155239939,-1.4324299273878336,-0.163167342543602,0.3532652854919433,-0.8406277298927307
1.77767431640625,-4.002938002520799,-0.8456295713752507,-6.104584118801355,-0.0864638313651084,1.2077395915985107,-1.294152855873108
1.7877001953125,-3.36680166093111,-1.6043673335000872,-11.021225696492197,0.1996608674526214,1.572769045829773,-1.5578731298446655
1.797726318359375,-0.0568961916983127,-1.9428002469316124,-15.245719707036017,0.7065767049789429,1.370547652244568,-1.4026260375976562
1.807752197265625,3.299318608766794,-2.247064787171036,-18.5374219955802,1.2475483417510986,0.9794557690620422,-0.8667458295822144
1.8177783203125,5.002148946845531,-1.6089165212370455,-19.306718268859385,1.5561169385910034,0.6942002773284912,-0.3066542446613312
1.82780419921875,4.036785911586881,-1.1219001892738043,-17.641658566248417,1.520870804786682,0.6285589337348938,-0.0697327926754951
1.837830322265625,2.0318954114452,-1.635292633117735,-15.436457382947204,1.1166696548461914,0.4792649745941162,-0.0128199597820639
1.847856201171875,0.7849370561338961,-1.9626145160786803,-12.88844229465127,0.3896978795528412,0.301454484462738,-0.0707730054855346
1.857882080078125,0.2973286034964025,-2.149235842712224,-11.387828473353386,-0.3734043538570404,0.2764391005039215,-0.1949217915534973
1.867908203125,0.7733649840228259,-2.2246233843907715,-11.23567508738041,-0.9312924146652222,0.4975219666957855,-0.2610709965229034
1.877934326171875,2.853479213583469,-1.887084935580939,-11.910931140959262,-1.311092972755432,0.7611532807350159,-0.0555448234081268
1.88796044921875,5.291236522349715,-0.0944296574093401,-12.55350423759818,-1.5632184743881226,0.8698246479034424,0.2333791255950927
1.897986083984375,5.887272908741235,1.6878385206520556,-13.386280757141112,-1.619933009147644,0.8704833388328552,0.2215898782014846
1.90801220703125,4.766660859581828,2.1584346098206937,-14.17670983482003,-1.4367027282714844,0.6368125081062317,-0.1130837127566337
1.9180380859375,4.226245822647214,1.950331811480224,-14.035385301375388,-0.9990769028663636,0.3045774400234222,-0.4685323536396026
1.92806396484375,4.551999871769548,1.5267220760226248,-13.102532789099216,-0.3403887450695038,0.1728494763374328,-0.5890769362449646
1.938090087890625,4.365580643579364,0.749455408386141,-11.132012468332052,0.4764250516891479,0.1689718663692474,-0.5562810301780701
1.948115966796875,3.260298557759821,-0.5316517386339604,-7.262099957466125,1.1589112281799316,0.1818336099386215,-0.4593518078327179
1.95814208984375,2.0567294084504244,-1.7466855541571973,-1.9789608168542383,1.48540997505188,0.1771728843450546,-0.2679130434989929
1.96816796875,0.9287555983513592,-2.77536166241914,3.149937610116601,1.419365406036377,0.1926985830068588,0.0383030697703361
1.978194091796875,-0.1421196293450891,-3.745799808984995,7.116207969975471,0.9992297291755676,0.1842828094959259,0.4229514002799988
1.98822021484375,-1.3607948701106012,-3.990770010343194,10.05072062216997,0.2449337989091873,0.178876057267189,0.7484725117683411
1.99824609375,-2.862340565431118,-3.36223303784132,11.3270031255126,-0.6959810256958008,0.0773824155330658,0.9129198789596558
2.008272216796875,-4.57081153974533,-2.434404637337476,10.865160690033434,-1.5502314567565918,-0.1997671723365783,0.76601642370224
2.018298095703125,-5.916183361405134,-1.4800310519963502,8.424764849457144,-1.9635857343673704,-0.4027448296546936,0.3392623662948608
2.02832421875,-5.926661500799655,-0.9791843476012349,4.712060669866204,-1.7438483238220217,-0.4976673424243927,-0.0763358920812606
2.03835009765625,-3.957126099416613,-0.5274822709295899,1.4445797993868588,-0.9735813736915588,-0.6461916565895081,-0.1721878945827484
2.048376220703125,-1.0109124880343674,0.4361323132265359,-0.2566507022798061,0.1016667112708091,-0.82701575756073,0.0739249438047409
2.058402099609375,0.595308072116971,1.118342204531282,0.1596007793694734,1.112468123435974,-0.8229055404663086,0.4136494398117065
2.068427978515625,0.0907667509876191,1.1985946488324553,2.697154679405689,1.7481249570846558,-0.6683939695358276,0.672971785068512
2.0784541015625,-1.144753241594881,1.3998660667829217,6.40734015417397,1.9342739582061768,-0.5853084921836853,0.7762240171432495
2.088480224609375,-2.491886666099727,1.8185915373302997,9.908155733275413,1.7489222288131714,-0.5758742094039917,0.6982860565185547
2.09850634765625,-3.660497314752638,1.9770197657890616,12.36855215935111,1.3118903636932373,-0.4786679446697235,0.4940752387046814
2.1085322265625,-4.268498864226043,1.9967260445170103,13.694766860598325,0.765468418598175,-0.216404914855957,0.2392110079526901
2.118558349609375,-4.311289665943384,1.8655280605502425,14.028055396878718,0.2023521512746811,0.0731899216771125,-0.0304330997169017
2.128584228515625,-3.768054310891032,1.6310685856819152,13.48779584276676,-0.2751358449459076,0.1837345361709594,-0.265213668346405
2.1386103515625,-2.493776425369084,1.5281391032136975,12.288514746040104,-0.5609102845191956,0.0552930980920791,-0.3371894657611847
2.14863623046875,-0.9171899559810756,1.6661254321463406,10.8735450720191,-0.6192619800567627,-0.2097007483243942,-0.2242008298635482
2.158662109375,0.1335780109710991,1.8581537323899568,9.3461414434731,-0.4342873394489288,-0.4279589056968689,5.17262087669e-05
2.168688232421875,0.1055911028929054,1.9420238557316365,8.1279557397902,-0.0628618448972702,-0.4432502388954162,0.2226901203393936
2.178714111328125,-1.0232736646965146,2.063740602386743,7.657828875568509,0.3132176399230957,-0.2506790459156036,0.2940017282962799
2.188740234375,-2.33648976816088,2.203807536985725,8.016478647598623,0.5860070586204529,-0.0314838588237762,0.220789298415184
2.198766357421875,-2.9766490816563365,2.306523961225152,8.924644462385773,0.7236096262931824,0.1786974519491195,0.1063475981354713
2.20879248046875,-3.1545231843411923,2.258157112941146,9.760707163992524,0.6998193264007568,0.4081900417804718,-0.0425579957664012
2.218818359375,-3.1383418648689982,2.0028212926521896,10.128706363648176,0.5397185683250427,0.6402379274368286,-0.2246011793613433
2.22884423828125,-2.53755536134094,1.614506888590008,9.769826289993524,0.3564994633197784,0.7937754988670349,-0.3646664321422577
2.2388701171875,-1.2297684433184564,1.244453971274942,8.728613940763474,0.2239504903554916,0.7831627726554871,-0.3912892341613769
2.24889599609375,0.4509381796270608,1.0875254798546432,7.54219641726315,0.1075754165649414,0.4212916791439056,-0.253132164478302
2.258922119140625,2.1510830780141053,1.566028835016489,6.722495067870616,0.0383186526596546,-0.1804043054580688,0.0302775017917156
2.268947998046875,2.6619424962490794,2.3964248891636726,5.925412962043285,-0.05658895149827,-0.6317387223243713,0.2579090595245361
2.27897412109375,1.871792089381069,2.402213117176294,4.914226917764545,-0.2208898514509201,-0.8020949959754944,0.3046133816242218
2.289,0.7411015676692128,2.1927635804019867,3.19091376362741,-0.3899025619029999,-0.2422221004962921,0.1251839846372604
2.29902587890625,-0.5193652346432208,1.46391812158525,-0.0840337894707918,-0.555744469165802,0.8391246795654297,-0.3010841906070709
2.30905224609375,0.1803358166232705,-0.7018972461365163,-4.335655460914969,-0.5843372344970703,1.4677354097366333,-0.5239133238792419
2.319078125,4.471955151934922,-1.7439976302474736,-8.368714460933209,-0.6166555285453796,1.5587537288665771,-0.1462060809135437
2.329104248046875,9.21678558024168,-1.2578319237641988,-12.41603521053791,-0.7821371555328369,1.1042834520339966,0.6653605699539185
2.339130126953125,10.736929446917772,0.2160645709998905,-15.94250019468069,-1.0192029476165771,0.4588955044746399,1.2639516592025757
2.34915625,8.221687331932783,1.9905599231027065,-18.680110803115365,-1.0656663179397583,-0.5634582042694092,1.3022724390029907
2.35918212890625,2.9948095922470093,0.976355992307514,-20.29007113431692,-0.9237605929374696,-1.0855319499969482,0.9648756980895996
2.3692080078125,-0.8139749345697462,-0.2171858301147818,-21.16414412536621,-0.7394136786460876,-0.8594937324523926,0.6654809713363647
2.379234130859375,-2.57611422457695,-0.5064562148399651,-20.90708075063229,-0.3927769064903259,-0.2689091563224792,0.4222733378410339
2.389260009765625,-2.957085718530416,-0.7345967158198357,-19.77400143408775,-0.1083667501807212,0.3167535066604614,0.2566779851913452
2.3992861328125,-1.4366224106416106,-0.3894274798706174,-17.279025862061978,-0.1911792159080505,0.7800858616828918,0.3008071482181549
2.409311767578125,0.605262626028806,0.4562796867854893,-14.465999070376157,-0.5881611704826355,0.9191822409629822,0.3416520655155182
2.419337890625,0.997813644747436,0.9991220969974994,-12.54147477710843,-0.9878682494163512,0.8401646614074707,0.0773382559418678
2.429364013671875,0.5587872905798256,0.5596200881421566,-12.295658772575855,-1.1161715984344482,0.668300211429596,-0.3246238231658935
2.43939013671875,1.7840179443381723,0.0169026194840669,-12.38563539609909,-0.9159612655639648,0.3059679269790649,-0.4800424873828888
2.449416015625,3.827426537314057,-0.1394459531564265,-11.37476557816267,-0.488096535205841,-0.0262949727475643,-0.3858744502067566
2.45944189453125,4.398249864254892,-0.6461855149824172,-9.130072926950454,-0.0368599668145179,-0.1689403653144836,-0.1968533992767334
2.469468017578125,3.5736522672533986,-1.180779809874296,-5.583522601634264,0.2363063246011734,-0.0952506810426712,-0.0113626392558217
2.479493896484375,2.279855296138674,-1.110915488596633,-1.5530793370723723,0.1967287510633468,0.0739263594150543,0.0807603076100349
2.48952001953125,1.021919035217166,-0.9266582607459276,1.633231901195645,-0.0351255163550376,0.0755455642938613,0.047973595559597
2.4995458984375,-0.1422315652869641,-0.92446250426732,3.484924182486534,-0.2491409182548523,-0.0622200109064579,-0.0982134938240051
2.509572021484375,-0.7551723247282207,-1.1072753054633735,4.20458110332787,-0.321898490190506,-0.1201219335198402,-0.2448061257600784
2.519597900390625,-0.626532062420249,-1.2626418082639574,4.354339703118801,-0.2058781832456588,-0.0795024782419204,-0.2798281013965606
2.529623779296875,-0.1216889818653464,-1.4571432206228374,4.626663775348663,0.0254213400185108,-0.1008101627230644,-0.1909762620925903
2.539650146484375,0.2625599263235926,-1.593252357506752,5.339146859037876,0.267181932926178,-0.2195908576250076,-0.0259117353707551
2.549676025390625,0.2114450945056974,-1.4538985396131872,6.555989915940165,0.4440983831882477,-0.3475069999694824,0.1727270483970642
2.5597021484375,-0.5198229152828455,-1.2844083805225788,7.779872954481839,0.527894139289856,-0.3355579376220703,0.3423024415969848
2.56972802734375,-1.754662232124805,-1.0745083965670317,8.72686563579142,0.5157058835029602,-0.2190691232681274,0.4064854085445404
2.579754150390625,-2.813603422529995,-0.6658488313514739,9.488427515426276,0.4128690958023071,-0.1372405886650085,0.3854675590991974
2.589780029296875,-3.5442683518588542,-0.1146757421024143,10.019142411601544,0.2685534656047821,-0.0912981256842613,0.2989145517349243
2.599805908203125,-4.089944085800648,0.2510888303689658,9.957253233921527,0.1333024501800537,0.0055310502648353,0.1700857132673263
2.60983203125,-4.109694203670323,0.420469391605258,9.498034132683276,0.0488810390233993,0.0797232612967491,0.0868632644414901
2.619857666015625,-3.5660213339835405,0.767862148822844,9.047301704761386,0.0217213444411754,0.0541890785098075,0.075470432639122
2.6298837890625,-2.9676188029825687,1.2387956532523037,8.704093247491121,0.0289148092269897,-0.0666459947824478,0.1135397851467132
2.639909912109375,-2.7463711302563545,1.5423641740515828,8.436350657832621,0.069952018558979,-0.2014182657003402,0.150251105427742
2.64993603515625,-2.9495290195405484,1.824284196013957,8.311132625058292,0.1315179020166397,-0.2997070252895355,0.155202716588974
2.6599619140625,-3.2332199966982005,2.1132338243521747,8.359232346838713,0.1964154541492462,-0.3375402688980102,0.1068666875362396
2.66998779296875,-3.4776685122698545,2.238528429494053,8.44749047600627,0.2932373285293579,-0.2903429269790649,0.014412916265428
2.680013916015625,-3.391642379938066,2.137728506400436,8.525260528907179,0.4022895693778991,-0.234358325600624,-0.0780205354094505
2.690039794921875,-2.925353778705001,1.9453829569011925,8.863768261140585,0.5086479783058167,-0.176587700843811,-0.125773936510086
2.70006591796875,-2.299678917635977,1.6950662799485028,9.20313056437671,0.5960667133331299,-0.1162202805280685,-0.1272121965885162
2.710091796875,-1.8535183276742693,1.2887635069921612,9.65592109387219,0.6309964656829834,-0.083265796303749,-0.1127115488052368
2.720117919921875,-1.5544611468195917,0.9994596583887934,10.13600938013792,0.5841677188873291,-0.0633662790060043,-0.0792255699634552
2.730143798828125,-1.2030918871864675,0.7105037464402616,10.403923819231986,0.5000352263450623,-0.056297443807125,-0.0279504060745239
2.740169677734375,-0.8391508768804371,0.4373803405262529,10.342703334593772,0.3787740767002105,-0.0149542773142457,0.028258541598916
2.750196044921875,-0.5359798309661448,0.3105160018496215,9.878279650449752,0.242825299501419,0.0791724920272827,0.050149992108345
2.760221923828125,-0.1934223849505185,0.0012632979340851,8.818005457875133,0.1310227513313293,0.2051937133073806,0.0548685975372791
2.770248046875,0.3758176183216273,-0.2889290239416062,7.275224227455258,0.0405794084072113,0.202061042189598,0.0726084485650062
2.78027392578125,0.8736103419736028,-0.4253374360330402,5.701715850338339,0.0008963348809629,-0.0185342542827129,0.0875796899199485
2.790300048828125,1.27691378698349,-0.433028136666119,4.159754704129695,-0.0418023914098739,-0.1776932775974273,0.1270117908716201
2.800325927734375,1.5730610717408358,-0.2707313962109386,2.5002514666020867,-0.112876258790493,-0.2133982926607132,0.1749822497367859
2.81035205078125,0.9833388369321824,-0.4531380277588963,0.4757137244433164,-0.1329897791147232,0.0954141318798065,0.0570806376636028
2.8203779296875,0.088911186248809,-0.6850961873307824,-2.438579146543145,-0.1082842126488685,0.7285127639770508,-0.2469168007373809
2.83040380859375,0.1475868087098002,-0.936168358825892,-5.655571938800811,0.0767660662531852,1.4935578107833862,-0.5640226006507874
2.840429931640625,1.7625642374210058,-1.3775706483446062,-9.090496118843555,0.4323454797267914,2.0346920490264893,-0.6734086275100708
2.850455810546875,4.9542660826861855,-1.8782102858603,-11.71258883526325,0.8181845545768738,2.114605665206909,-0.4462953209877014
2.860482177734375,8.528900346714257,-1.1961701250992716,-12.701536744248866,1.0791140794754028,1.6614049673080444,0.0402000397443771
2.870508056640625,10.217170244520904,0.1293710608005523,-11.925712530505656,1.0559238195419312,0.8035142421722412,0.6261441707611084
2.8805341796875,8.697665260270238,0.6859270851969719,-9.619558571636675,0.6476548910140991,-0.2697000801563263,1.0325995683670044
2.89056005859375,4.563002911821007,0.2093951762385666,-6.778305802419781,-0.1550019234418869,-0.987351894378662,1.0664843320846558
2.9005859375,-0.5329617983192205,-1.0802516894593834,-5.5803410489887,-1.1213507652282717,-1.0358738899230957,0.7414446473121643
2.910612060546875,-4.394800600583851,-1.9404934312939643,-6.516846238553524,-1.8938219547271729,-0.4166534841060638,0.2330120205879211
2.920637939453125,-6.178568223422765,-2.0215794768750666,-9.44431306388974,-2.270395040512085,0.6504693031311035,-0.2686687409877777
2.9306640625,-4.185080576305091,-1.5153808900579808,-13.788704204446075,-2.2732045650482178,1.5060644149780271,-0.3788602352142334
2.94068994140625,0.3955684668436646,-0.1872830054126679,-17.715343395662305,-1.9760388135910036,1.6613218784332275,-0.0585043765604496
2.950716064453125,3.4728172728464006,0.8002119282856583,-20.853047547149657,-1.3899061679840088,1.1419713497161863,0.287747859954834
2.96074169921875,3.6680288793012497,0.7511768253512681,-22.409720524799823,-0.7130928635597229,0.1409914195537567,0.3643882274627685
2.970767822265625,2.1489672549039125,0.1016540557049214,-20.740847401380535,-0.2644583582878113,-0.805661141872406,0.2135393321514129
2.9807939453125,0.9286381094515324,-0.4679789654728025,-16.48321801395416,-0.1131295710802078,-1.3651809692382812,0.0787997096776962
2.99081982421875,0.3531806929692626,-0.832424929626286,-11.823608246815205,-0.0249509736895561,-1.4425910711288452,0.0277727413922548
3.000845947265625,-0.0361506330505013,-1.3478282749012112,-7.966110396364331,0.074777565896511,-1.1641783714294434,0.0667567774653434
3.010871826171875,0.3382861984372138,-1.169693986910209,-4.362899441671371,0.0998174101114273,-0.6776267886161804,0.2117184996604919
3.02089794921875,0.8570778709761798,-0.4092261861223727,-1.4058908800303935,0.0464059188961982,-0.338970810174942,0.3477590382099151
3.030923828125,0.3124873019225895,-0.0258253461301326,0.8864140017062425,-0.045045968145132,-0.3236557841300964,0.2655501663684845
3.04094970703125,-0.5362836362183093,-0.0343312356036156,2.4794074160158632,-0.191010981798172,-0.4564675688743591,0.0862539485096931
3.050975830078125,-0.7609491545639931,0.1923735334847122,3.4375685570716854,-0.2716395258903503,-0.5878492593765259,-0.0738638117909431
3.061001708984375,-0.604118278299272,0.0679686437241733,3.991826241397858,-0.2316736131906509,-0.563941478729248,-0.1700010150671005
3.07102783203125,-0.2647872469842434,-0.3386736633848399,4.101404221969843,-0.0773466303944587,-0.411109060049057,-0.1833312064409256
3.081053955078125,0.0278114053808152,-0.5157647989984602,4.3194203654289245,0.1745495051145553,-0.3008670210838318,-0.1398325711488723
3.091080078125,0.1862663757160305,-0.7860142569113522,4.668011100259423,0.4817928075790405,-0.229843720793724,-0.0339268967509269
3.10110595703125,-0.0309269070528447,-1.2126603643901646,5.315889317569137,0.7403375506401062,-0.247259259223938,0.1078575700521469
3.111132080078125,-0.5508065209589899,-1.2934890742093323,6.684230511406064,0.8843013644218445,-0.282969057559967,0.240716278553009
3.121157958984375,-1.2222937235236166,-1.0927188107140362,8.235158807924389,0.8600910305976868,-0.2736942768096924,0.3332680165767669
3.131183837890625,-2.0056766820833087,-0.779271285457164,9.584122516596317,0.6711522340774536,-0.2668156027793884,0.3420388698577881
3.1412099609375,-2.713393866544962,-0.4769321603223681,10.555459950089451,0.3537912964820862,-0.2460597306489944,0.2750336527824402
3.15123583984375,-3.107894704157114,-0.1969998050458729,10.781424422204491,-0.0180717632174491,-0.2455625087022781,0.1667133122682571
3.161261962890625,-3.246378168956935,0.0319758315838873,10.376665225428342,-0.3262456953525543,-0.3095979392528534,0.0400570482015609
3.171287841796875,-2.927341153129935,0.2905753298439085,9.496581595787406,-0.5065472722053528,-0.4143006503582001,-0.0424900278449058
3.18131396484375,-2.3323301642633973,0.6611462796837091,8.397811960601807,-0.5239754319190979,-0.5244130492210388,-0.042274635285139
3.191340087890625,-1.9847550362162287,1.080143406779319,7.393632580214739,-0.3868982195854187,-0.5312173962593079,-0.0146435406059026
3.201365966796875,-1.9938668556936083,1.4320694235123692,6.719266168951988,-0.1624331325292587,-0.4563091099262237,-0.0076911868527531
3.21139208984375,-2.144105786347389,1.7777075921475889,6.526407263103127,0.0760550647974014,-0.3981515169143677,-0.0577349141240119
3.22141796875,-2.367484918144345,2.00421946901232,6.765994602379203,0.2944008111953735,-0.3722704648971557,-0.1663096845149994
3.231444091796875,-2.469669281333685,1.900443598847836,7.241878422692418,0.4670751392841339,-0.3226323425769806,-0.2905363142490387
3.241469970703125,-2.197759196732193,1.7158374114289878,7.969740861821174,0.5670739412307739,-0.2706838846206665,-0.3756286799907684
3.25149609375,-1.5619253452204167,1.5513934298120438,8.784405386090278,0.6225643754005432,-0.2276131212711334,-0.3880720138549804
3.26152197265625,-0.9097722270704806,1.2531243305951356,9.46665933573246,0.6245157122612,-0.2009210437536239,-0.334660917520523
3.2715478515625,-0.4908782680884003,1.0651914829716085,10.021501541948318,0.5620853304862976,-0.238519012928009,-0.26005619764328
3.281573974609375,-0.3272501328989863,0.9471943413615226,10.601412722969055,0.4166131615638733,-0.3220459520816803,-0.1886146664619445
3.291599853515625,-0.2407854630194604,0.9458870581552384,10.942201844137909,0.2017485052347183,-0.4123516082763672,-0.1172089353203773
3.3016259765625,-0.3651692369267344,1.110791058499366,10.836088909327984,-0.0075731384567916,-0.450077086687088,-0.076906681060791
3.31165185546875,-0.8784044443823397,1.3609675963290035,10.07735377755165,-0.1706081330776214,-0.3386858403682709,-0.1434071511030197
3.321677978515625,-1.6154527911379932,1.460873931583762,8.557355456826091,-0.2626025974750519,-0.1375616490840912,-0.3339607119560241
3.331703857421875,-1.8358030766330655,1.3739490968465804,6.604255057415366,-0.2719588279724121,0.0360708609223365,-0.5401362776756287
3.341729736328125,-1.0788840543679892,1.2452082967735827,4.392746298402548,-0.2446649372577667,0.2003567516803741,-0.6151103973388672
3.351755859375,0.1058034304693341,0.9621509413443504,1.6830284900218246,-0.1688655167818069,0.2253345400094986,-0.5494051575660706
3.36178173828125,1.2036210256271065,0.8627702373988926,-1.0484370397865772,0.0127629153430461,0.0716106444597244,-0.3694589734077453
3.371807861328125,2.026113467042893,0.8553294198736547,-3.799146199247241,0.2873422503471374,0.0979458466172218,-0.0928044840693473
3.381833740234375,1.3359220023997127,-0.1145451014600694,-7.383767604282498,0.6574193239212036,0.5636894702911377,0.0656975582242012
3.39185986328125,-0.3472089250832796,-2.2474622620560227,-11.385633009135722,0.9957912564277648,1.6881120204925537,0.0420556142926216
3.4018857421875,-0.2588686705902219,-4.525083807793259,-16.101451570230722,1.1938145160675049,2.7177834510803223,0.076431393623352
3.411912109375,3.5052690513789653,-4.474544291645288,-19.18173813649416,1.1736834049224854,2.352216958999634,0.2966340780258178
3.42193798828125,9.324949017840623,-2.7691642690837384,-19.64396635642052,1.0021677017211914,0.5726075768470764,0.7337198257446289
3.4319638671875,12.02020517014861,-2.879672223982215,-18.808311651092765,0.6102150678634644,-1.3263418674468994,1.3023499250411987
3.441989990234375,10.240535922539234,-3.7550019370943306,-16.503398047673702,-0.008683499880135,-2.341923713684082,1.833031177520752
3.452015869140625,5.5283337983757255,-4.206790011548995,-14.16893686273098,-0.8222589492797852,-2.1497902870178223,2.120487689971924
3.4620419921875,0.4084966297388077,-3.217987063992023,-12.469735236543416,-1.655645489692688,-1.2474875450134275,2.0169565677642822
3.47206787109375,-3.023241906005144,-0.7034095503956079,-12.068953126704692,-2.188265085220337,-0.2819449007511139,1.507278323173523
3.48209423828125,-4.94732020907104,2.1905239847816524,-13.56922208008766,-2.1645288467407227,0.6538365483283997,0.5989564657211304
3.4921201171875,-5.0976948949337,3.855614520922303,-15.979098279237746,-1.4763667583465576,1.4351462125778198,-0.3472625017166137
3.50214599609375,-1.2017201604418457,4.275680592423678,-17.70549420182109,-0.1839645802974701,1.980613589286804,-0.6969315409660339
3.512172119140625,4.157667960983514,3.519527586095035,-17.20016684488058,1.1561251878738403,2.1353702545166016,-0.4858259558677673
3.522197998046875,7.264484222254157,2.035937526442856,-12.621810296583176,1.874084234237671,1.6225519180297852,-0.1089942976832389
3.53222412109375,7.079184353482723,0.613553338381648,-5.045784674954414,1.7941687107086182,0.7876573204994202,0.1036809533834457
3.54225,4.840419923275709,-0.9065864366412162,1.8177666308134792,1.0806012153625488,0.0710802227258682,0.1866162270307541
3.552276123046875,2.615331551721692,-2.068288328818977,6.367815368515252,0.0525144301354885,-0.3233728110790252,0.30353644490242
3.562302001953125,0.7911749276101588,-2.167825976891816,8.90754836615622,-0.9715907573699952,-0.4586817920207977,0.4435265958309173
3.572327880859375,-1.1836560959629714,-1.592585564161092,9.414655007728934,-1.6936062574386597,-0.3764226138591766,0.4472278654575348
3.58235400390625,-2.9480507636815307,-1.0104274809964,8.02422823881209,-1.9814553260803225,-0.2308802306652069,0.32263845205307
3.592380126953125,-4.142814967505633,-0.3419349302031099,5.943842937225103,-1.8806184530258176,-0.1579674184322357,0.1396699845790863
3.60240625,-4.461817496541142,0.1432657306402921,4.14380193271637,-1.4547079801559448,-0.2638106942176819,-0.0314716361463069
3.61243212890625,-4.23603568751663,0.4029537547893821,3.016132366260886,-0.73884516954422,-0.3615529537200928,-0.1402279436588287
3.6224580078125,-3.771836167517304,0.0845022107001394,2.573759185883403,0.0779858604073524,-0.1785464733839035,-0.1019923910498619
3.63248388671875,-3.3484090951502323,-0.2443737698350101,3.2331840486019847,0.7439585328102112,0.1494670957326889,0.051258947700262
3.642510009765625,-3.1987703223466872,-0.3871240252338349,5.129424496671557,1.1196587085723877,0.3145271837711334,0.199385181069374
3.652535888671875,-3.1704271481767297,-0.459765044683218,7.692463551098108,1.111484408378601,0.2207354456186294,0.3313658535480499
3.662561767578125,-3.055370151671767,-0.2597919229149818,10.00905823996067,0.7375702857971191,0.0375376641750335,0.4660464525222778
3.672587890625,-3.261343390637636,0.0634387452095747,11.306046846723556,0.111023262143135,-0.170109286904335,0.5406716465950012
3.68261376953125,-3.845334534448385,0.4015031175896525,11.62008473908901,-0.552883505821228,-0.4149286448955536,0.4977538585662842
3.69264013671875,-4.74203729045689,0.7627718399465083,10.724141277015208,-1.032124400138855,-0.6066908836364746,0.2970420718193054
3.702666015625,-5.410004356071353,1.1059558934278786,8.766278777769207,-1.2028216123580933,-0.7604941129684448,0.0229681506752967
3.712692138671875,-5.374132832223177,1.5706562025561928,6.645117813679575,-1.0135356187820437,-0.7768728137016296,-0.2227143198251724
3.722718017578125,-4.810948621858656,1.965150025905669,4.960429281491041,-0.534142017364502,-0.5971994400024414,-0.396310031414032
3.732743896484375,-4.043948935084044,2.1146303932771087,4.023401529356837,0.1187308952212333,-0.2551743984222412,-0.5016489624977112
3.74277001953125,-3.194426740184426,2.0627552446112034,4.126907496538758,0.7504697442054749,0.1477556228637695,-0.5479305982589722
3.7527958984375,-2.1279612917542456,1.815800737567991,5.200924967783689,1.188602089881897,0.3965414762496948,-0.5436522364616394
3.762822021484375,-1.227969577202946,1.4204162489891052,6.891518924623727,1.3793410062789917,0.4572488069534302,-0.534315824508667
3.772847900390625,-0.7324483056142925,0.9618654024012386,8.513000766792892,1.316036581993103,0.4025184512138366,-0.5415180921554565
3.7828740234375,-0.1991597595587372,0.3956222428575158,9.75562123903036,1.0683071613311768,0.1934058666229248,-0.5303474068641663
3.79289990234375,0.473428974507004,-0.0207515499971807,10.560267058110236,0.7371180653572083,-0.1196945160627365,-0.4519130885601043
3.802926025390625,1.074692886288464,-0.1367291684783995,10.82824462556839,0.3776695132255554,-0.3828706443309784,-0.3020512759685516
3.8129521484375,0.9620365211844444,-0.0578363951578736,10.470568667006493,0.1031751260161399,-0.4834276139736175,-0.1781506389379501
3.82297802734375,0.1901125297501683,0.0340716348193585,9.459807570141551,0.0021627328824251,-0.4325228929519653,-0.1668927073478698
3.833004150390625,-0.5892575399063528,0.153650346532464,8.235738069117069,0.0475065112113952,-0.2388902902603149,-0.2511724233627319
3.843030029296875,-0.7967815154455602,0.2548758015617728,6.97756522296071,0.1640274673700332,0.0352637283504009,-0.3485899269580841
3.85305615234375,-0.5168075129844248,0.0024080840550363,5.771190953102708,0.2996768951416015,0.1611870378255844,-0.3913941085338592
3.86308203125,0.1280830668166279,-0.3505434763334691,4.91846820859611,0.3565242290496826,0.0892261788249015,-0.3218647837638855
3.87310791015625,0.7477496273815631,-0.1598743356138467,4.372316089314222,0.2848684191703796,-0.0037530330009758,-0.2234580665826797
3.883134033203125,0.7378136320397257,0.014633651638776,3.458998883113265,0.0832472890615463,-0.0529175661504268,-0.1518690586090088
3.893159912109375,-0.0992716906130313,-0.2447112581610679,1.832745588758588,-0.1687418073415756,0.0120137613266706,-0.1773145049810409
3.90318603515625,-1.6662918747544289,-1.35748676847592,-0.850204039683938,-0.4419005811214447,0.394359827041626,-0.3278695046901703
3.913212158203125,-2.612862823520601,-3.692801793769002,-4.868583941486477,-0.7888516187667847,1.0330473184585571,-0.4854239821434021
3.92323828125,-1.344551737448573,-4.73836357038021,-9.308135245683788,-1.243415594100952,1.4437693357467651,-0.5528196692466736
3.93326416015625,2.1767938578538595,-2.9980887600481507,-13.75175189962387,-1.5988354682922363,1.0026293992996216,-0.523276686668396
3.943290283203125,5.828641271552443,-0.7682682454057037,-18.11103548888564,-1.520297646522522,-0.0347801558673381,-0.2612294554710388
3.953316162109375,7.627049121901392,0.2326628007099032,-22.42205159858465,-1.185991287231445,-0.8110686540603638,0.1646845638751983
3.963341796875,6.1305351371377705,0.2326183039810508,-24.47304304790497,-0.8277618885040283,-1.0882583856582642,0.4255643784999847
3.973367919921875,3.16034560688436,1.0260589845661072,-23.74452769782543,-0.525994062423706,-1.031802773475647,0.3831447660923004
3.983393798828125,1.097517735428363,1.5863443316839634,-21.37416751650572,-0.314099907875061,-0.864879846572876,0.2025246322154998
3.993419921875,0.3994396091885864,1.7454060357406735,-18.305858972805737,-0.2367241382598877,-0.4467411637306213,0.0394957661628723
4.00344580078125,0.5303533693864941,1.6523111340664327,-15.49183732486367,-0.2725371122360229,-0.0165616422891616,-0.0479275919497013
4.013471923828125,1.1400599692121147,1.1987567075263708,-13.18421037083268,-0.3141442239284515,0.3256667852401733,-0.0507505424320697
4.023498046875,0.8718098684228957,0.7524947030168027,-11.838541612052916,-0.2394076436758041,0.7015711069107056,-0.1092423871159553
4.03352392578125,0.0603355184972286,0.093050624141097,-10.913140584826468,-0.0877800285816192,0.7899345755577087,-0.2052434831857681
4.043550048828125,0.2679068403095007,-0.4639352430399507,-9.167224553737045,-0.0267227757722139,0.5104681849479675,-0.2154790610074997
4.053575927734375,0.6897359759606421,-0.5999238222841173,-6.838365426585078,-0.0529370680451393,0.2156533151865005,-0.2014367431402206
4.06360205078125,0.6137975224010646,-0.7163219311997294,-4.57801168038249,-0.1123581379652023,0.022823104634881,-0.1886955350637436
4.0736279296875,0.2629642693407833,-0.8622028127744793,-2.467166358602047,-0.1306548565626144,-0.1263432204723358,-0.1646967232227325
4.083654052734375,0.2341761278823018,-1.0094218110851942,-0.5438192924201488,-0.1306240856647491,-0.2634501159191131,-0.1017137244343757
4.093679931640625,0.5228846409410238,-1.1234210421655326,1.013207320973277,-0.0833671018481254,-0.3814918100833893,0.0582362599670887
4.103705810546875,0.4528213630251586,-1.2127166976872832,2.162874199703336,0.0046878103166818,-0.3950916528701782,0.2535994946956634
4.11373193359375,-0.1353073189817369,-1.3097013733416796,3.393008699855208,0.0761207118630409,-0.3860731124877929,0.4211751818656921
4.1237578125,-1.306610129328072,-1.0225652241662144,4.720125902900099,0.1009327471256256,-0.4203160107135772,0.4475979208946228
4.1337841796875,-2.60261586253345,-0.6355859411653131,5.968704406759143,0.0920761376619339,-0.5554383993148804,0.3400312662124634
4.14381005859375,-3.672873688983917,-0.3435137238271534,6.975386709877848,0.1003001928329467,-0.5599574446678162,0.162905678153038
4.153836181640625,-4.312227823576331,-0.2665222540833056,7.357591545018553,0.1599259823560714,-0.3888823390007019,-0.0262615792453289
4.163862060546875,-4.261728054916858,-0.2202010132174938,7.43432348704338,0.2940269410610199,-0.13448466360569,-0.1747341901063919
4.17388818359375,-3.656310676717758,-0.2682872179292142,7.564065719243883,0.4240842759609222,0.0809909105300903,-0.2571382820606231
4.1839140625,-2.5161475393921133,-0.3300044731084257,8.058193052256106,0.4621642231941223,0.1435312032699585,-0.2295384854078292
4.19393994140625,-1.3406737269714477,-0.1879484105188399,8.839279716572165,0.4264232814311981,0.0398069396615028,-0.116356261074543
4.203966064453125,-0.7233633741438389,-0.0368237100064754,9.531610823592542,0.2885688543319702,-0.08453831076622,0.0283762887120246
4.213991943359375,-0.6832382845044136,0.1592906174417585,9.928782341718671,0.0725521445274353,-0.1896370202302932,0.1398948282003402
4.22401806640625,-1.0882358200810849,0.4046203728273511,10.116024576729536,-0.1515164077281952,-0.2976872622966766,0.1944242119789123
4.2340439453125,-1.6875013976521789,0.7328783675946294,9.770834005731343,-0.3463955819606781,-0.3177286088466644,0.1471949219703674
4.2440703125,-2.498259416002035,0.959904258396104,8.893652527272701,-0.423065185546875,-0.2499278783798217,-0.0393031947314739
4.25409619140625,-3.0137589151278137,1.112958027274907,7.668425672906637,-0.3184538185596466,-0.1710527837276458,-0.2743237018585205
4.2641220703125,-2.731429289451241,1.2107817110367118,6.430692388188839,-0.0190948825329542,-0.0555286668241024,-0.4666944444179535
4.274148193359375,-1.866886781682819,1.071555026654154,5.709222864967584,0.402658462524414,0.1342734843492508,-0.5447418689727783
4.284174072265625,-0.7191222294427454,0.806242513686791,5.838618475687503,0.813798189163208,0.3289771676063537,-0.4946032762527466
4.2942001953125,0.2485268709264695,0.5433111967675388,6.786932760989665,1.119318962097168,0.3950262367725372,-0.3872826695442199
4.30422607421875,0.8682609437696636,0.2961398321032524,8.340670854231714,1.2243826389312744,0.3287884891033172,-0.2434161752462387
4.314251953125,1.1816283895276487,0.1972968882963061,10.010844538855553,1.1025856733322144,0.1835319697856903,-0.1021703630685806
4.32427783203125,1.2127755152024329,0.1083800029590725,11.419259384405612,0.7860975861549377,0.0062874369323253,0.0340776965022087
4.3343037109375,1.0838570204749702,0.0911440598674118,11.965696165847778,0.356076717376709,-0.0747690647840499,0.1287551969289779
4.344329833984375,0.4725073296174407,0.091022479314357,11.386464199262855,-0.0700356289744377,-0.0831504315137863,0.129508689045906
4.35435595703125,-0.1470101778656244,0.1345828040994703,9.706802555325629,-0.3570772409439087,-0.1328300982713699,0.0694022104144096
4.364382080078125,-0.3470363449953496,0.5484603962242603,7.34730279071629,-0.4572085738182068,-0.2740694284439087,4.44208708358e-05
4.374407958984375,-0.583475449373573,1.3298793612346052,4.612926926419139,-0.3198051750659942,-0.4401731789112091,-0.1170640885829925
4.38443408203125,-0.9542540506146848,1.660921872153878,1.9337860426098108,0.0792475789785385,-0.3713579475879669,-0.2614626884460449
4.3944599609375,-0.7127060787901282,1.816181261318177,0.0161579385966062,0.5619601607322693,0.0970292538404464,-0.3113892376422882
4.40448583984375,-0.1697121312782168,1.4549486331880093,-0.984338953885436,0.93395733833313,0.8070391416549683,-0.2961017787456512
4.41451220703125,0.200019883519411,-0.0275387259192764,-1.5611749652445317,1.0497499704360962,1.6704246997833252,-0.2588777244091034
4.4245380859375,1.38549881099537,-1.4916973782621323,-2.401699906957149,0.7590904235839844,2.296210289001465,-0.1527272164821624
4.434564208984375,3.5150016331031915,-2.801822676104307,-4.04241894903779,0.0887578800320625,2.184751272201538,0.0486956387758255
4.444590087890625,7.003092462927103,-2.720182503771782,-6.426414857000112,-0.8097158670425415,1.019737720489502,0.4342072010040283
4.4546162109375,10.805773266041278,0.3824896434314548,-8.148374258440732,-1.5889980792999268,-1.051591396331787,0.8838582038879395
4.46464208984375,10.249357526898384,3.873116859865189,-9.78330127311647,-1.9201164245605469,-2.4860668182373047,1.0427944660186768
4.474668212890625,4.60359854158163,3.469399865618348,-12.460983774811028,-1.8150014877319336,-2.3812174797058105,0.7908104062080383
4.484694091796875,-0.7206731121465564,2.1938582437708973,-14.97372296706438,-1.317975401878357,-0.8956842422485352,0.3907346427440643
4.49472021484375,-2.447916883730888,2.1084863375641403,-16.86241256136298,-0.6499001979827881,1.0225204229354858,-0.0477082468569278
4.504746337890625,-1.4259402731075883,1.9648029660336672,-17.801287987190484,-0.043895948678255,2.2302451133728027,-0.4417562186717987
4.514772216796875,1.696491490446031,1.1358085953779518,-17.84221504086256,0.2881472408771515,2.546222448348999,-0.5918724536895752
4.52479833984375,5.527039082390069,0.1091520102448761,-17.198347812759874,0.3392738997936249,2.108449935913086,-0.4885146915912628
4.53482421875,8.450065879452229,-1.1120979033142329,-15.738265908336638,0.1391818225383758,1.0898271799087524,-0.2369125634431839
4.544850341796875,9.588726210999488,-2.2387258517622945,-13.298576754724978,-0.2702615261077881,0.0946210771799087,0.0728845223784446
4.554876220703125,8.58591110470295,-2.543080262242257,-10.629110877233742,-0.6831537485122681,-0.4133782088756561,0.3677110970020294
4.564902099609375,6.200906896480918,-2.55583219178766,-8.760593717870115,-0.8064623475074768,-0.5029217600822449,0.596121072769165
4.57492822265625,3.365444401103258,-2.602520585465431,-7.25927613221705,-0.7227786183357239,-0.2707436084747314,0.7379828691482544
4.5849541015625,1.3766189005777238,-2.112344620427489,-5.487075905314088,-0.6958474516868591,-0.0202733241021633,0.824546754360199
4.594980224609375,0.0204810624927282,-1.279748425887525,-3.882686652243137,-0.6735741496086121,0.0921850427985191,0.8165341019630432
4.60500634765625,-1.3425336756244302,-0.8375020867601036,-3.3614129536300896,-0.5717585682868958,0.0541495680809021,0.7141774296760559
4.615032470703125,-2.180107658576965,-0.2762510729478672,-3.399826563176513,-0.3100502789020538,-0.0705915689468383,0.6162588596343994
4.62505810546875,-2.668247149351239,0.2822672279648482,-3.275973973536491,0.082161471247673,-0.1001141592860221,0.5122203826904297
4.635083984375,-2.892127800929546,0.3832424345601349,-2.474109309607744,0.4732461273670196,-0.108542799949646,0.4266791045665741
4.645110107421875,-2.833495579218864,0.298126256680116,-0.8584463828504085,0.7491154074668884,-0.0211625713855028,0.3267090916633606
4.655135986328125,-2.616063957649469,-0.0956068844951689,0.8902034571170806,0.8967695832252502,-0.0169965885579586,0.2128989100456237
4.665162109375,-2.117479060706496,-0.4151406708631664,2.859015220400691,0.9815150499343872,-0.2469049990177154,0.1140602231025695
4.67518798828125,-1.4350111760526896,-0.3979597458943724,4.836824529132247,1.1006745100021362,-0.5447742342948914,0.1121099889278411
4.685214111328125,-1.3641076479203995,-0.2923028842888772,6.6888850592136375,1.2633874416351318,-0.5369707345962524,0.1560548841953277
4.695239990234375,-1.9529874405555423,-0.1965639709118753,8.354113104128837,1.3593711853027344,-0.3391024172306061,0.1732008457183838
4.705265869140625,-2.4628157621771094,0.2542715520583093,10.042184264492988,1.3572524785995483,-0.2112468630075454,0.134046122431755
4.715292236328125,-2.8368296920776364,0.9485917870692908,11.487124713885784,1.1927207708358765,-0.1592257469892501,0.0271425787359476
4.725318115234375,-2.936674506403506,1.245624330228567,12.281679347062113,0.9095662832260132,-0.1164795532822609,-0.1363500505685806
4.73534423828125,-2.945137214322388,1.0830096098653972,12.494826423180102,0.5776956677436829,-0.022403122857213,-0.2891854047775268
4.7453701171875,-2.283485761595517,0.9161017223529516,12.180495100826024,0.2463723868131637,-0.0304597318172454,-0.3417458236217499
4.755396240234375,-0.9099677496425806,0.7818703620396554,11.760431951934098,-0.0124415969476103,-0.2148458212614059,-0.2352417558431625
4.765422119140625,0.3659419748649001,0.7679793454617262,11.240793161046504,-0.2014572322368621,-0.447134256362915,0.0138343451544642
4.7754482421875,0.5758244962289929,0.906732274852693,10.710089370787143,-0.3119499385356903,-0.6281336545944214,0.2441226691007614
4.78547412109375,-0.4780756312690675,1.2409263816706837,10.28209542889595,-0.3610753715038299,-0.7283142805099487,0.3353600800037384
4.7955,-1.9516823493063449,1.856822045394778,9.910634106087684,-0.3504637479782104,-0.7215602397918701,0.2792454063892364
4.805526123046875,-3.216544171707332,2.329558215332032,9.410600179380175,-0.2833158075809479,-0.5861263275146484,0.1282117515802383
4.815552001953125,-4.053157785195112,2.513753922253847,9.042506287178396,-0.197289302945137,-0.3911847472190857,-0.0672264546155929
4.825578369140625,-4.046555610451102,2.6598522459715603,8.775427129864692,-0.0991386771202087,-0.2149493098258972,-0.2306758463382721
4.835604248046875,-3.5269410772219296,2.5789327891290186,8.446924074295163,0.0060189017094671,-0.0756683871150016,-0.3333204388618469
4.84563037109375,-2.7628786129429934,2.188664766781032,8.007080704656243,0.1052987724542617,0.0223494451493024,-0.3387649953365326
4.85565625,-1.67906484708786,1.9238444943100208,7.614438062131405,0.2337299883365631,-0.0268015898764133,-0.2295967042446136
4.86568212890625,-1.1310213611014186,1.924923667848855,7.466278714230656,0.3343760967254638,-0.1143554002046585,-0.1277226060628891
4.875708984375,-1.3687374996781347,1.969299985191971,7.460285611295699,0.3103096485137939,-0.1547310501337051,-0.099805474281311
4.885734130859375,-1.7922709550291298,1.98061252958402,7.415075181216001,0.1918950080871582,-0.2301032692193985,-0.156032845377922
4.89576025390625,-2.175826912517845,1.8661086369171735,6.906642843997478,0.0428296253085136,-0.2830932736396789,-0.3026960492134094
4.905787109375,-2.305570167631656,1.1416510377958415,5.700625132492184,-0.0970615446567535,-0.2396608144044876,-0.4679732322692871
4.915813232421875,-2.033436503407359,0.2209060196816921,3.889412161105871,-0.2158446460962295,-0.0344661064445972,-0.6299306750297546
4.925839111328125,-1.3904732384070753,-0.5651936504907906,1.2397493007153273,-0.2383287400007248,0.3395266234874725,-0.7301677465438843
4.935864501953125,-0.2947694205328822,-1.9402336113139984,-2.259804880148172,-0.1303330361843109,0.7107824087142944,-0.6908016800880432
4.94589111328125,1.7146670524753629,-2.9383021076053377,-5.777763317230344,-0.0539343804121017,0.9959800243377686,-0.5335343480110168
4.955916259765625,4.352249452841281,-3.772504276037216,-9.258127644455431,-0.0938234701752662,1.0434740781784058,-0.2411190271377563
4.965943115234375,6.853464796039462,-4.651265132641792,-12.85492697854042,-0.1758525222539901,0.7958338260650635,0.1836152970790863
4.975968994140625,8.34073632068336,-4.035430405324697,-16.158282295477388,-0.2811320722103119,0.1402652710676193,0.4969044923782348
4.9859951171875,7.908554279452562,-2.7136352740854024,-17.711058850210904,-0.1747720092535019,-0.9960403442382812,0.6366848349571228
4.99602099609375,5.177677363187074,-3.4355560482054948,-18.336767321288583,0.121209055185318,-1.5540870428085327,0.7442736029624939
5.006047119140625,1.7953095920726656,-5.344508678331971,-18.751081112873557,0.2906459271907806,-1.099135398864746,0.851385772228241
5.0160732421875,0.7308554834648966,-5.069277194222807,-17.955724515664578,0.3941784501075744,-0.3259864747524261,1.0481020212173462
5.026099365234375,1.5477338843911883,-3.4470155998528003,-17.302113307660818,0.1769348680973053,0.2170396298170089,1.3772226572036743
5.036125244140625,2.7805753054141995,-1.5236659033223985,-15.836016672992706,-0.3568227887153625,0.1786208748817443,1.6221795082092283
5.046151123046875,3.540820257231593,1.0721540154606104,-14.28551390841007,-0.982185959815979,-0.1888502091169357,1.7601155042648315
5.05617724609375,3.273616596755385,2.5053344689548016,-13.90076523400545,-1.649154782295227,-0.5066965818405151,1.7330719232559204
5.066203125,1.1066989668801426,3.552203821033239,-14.317433479762077,-1.9860153198242188,-0.6113826632499695,1.3458706140518188
5.076229248046875,-2.3308047082617875,3.950620078523457,-16.209972735226152,-1.9065868854522705,-0.3630309402942657,0.6195523142814636
5.086255126953125,-4.040383059296012,4.070287199172378,-17.717414941239355,-1.2783524990081787,-0.2383064478635788,-0.1601675450801849
5.09628125,-3.4077696311354635,4.315396516740321,-17.042322553789614,-0.4412547051906585,-0.1437613070011139,-0.7317266464233398
5.10630712890625,-2.718064196443557,4.310436848506331,-13.568949692887069,0.3977105021476745,0.2055720835924148,-1.1424635648727417
5.1163330078125,-2.422463293522596,3.52082288660258,-8.898736114147304,1.105487585067749,0.83294278383255,-1.2609111070632937
5.126359375,-1.0535993909858166,2.3217171464428303,-3.292363382801413,1.5886632204055786,1.269995927810669,-1.0920335054397583
5.13638525390625,0.0128258715644478,1.2222875129785389,2.5764450639665126,1.644976019859314,1.1010081768035889,-0.8832308053970337
