seconds_elapsed,ax,ay,az,gx,gy,gz
0.071978515625,-0.3810357548287138,0.0692916359562426,0.1106961709469556,-0.1152104660868644,-0.2059208154678344,0.2589814364910126
0.08200439453125,-0.4485400689767673,-0.1612979752087965,-0.2449824763178825,-0.0885040238499641,-0.1197347939014434,0.2528103590011596
0.092029541015625,-0.562182814769633,-0.2844372654803097,-0.6186047765523195,-0.0015684580430388,-0.0308463908731937,0.21429443359375
0.102055419921875,-0.7053590770281851,-0.3623128976475447,-0.8396826456695795,0.109639823436737,0.0596978925168514,0.1632885038852691
0.1120810546875,-0.760360614086315,-0.4488892477406188,-0.8699573724240064,0.1909151673316955,0.1284498125314712,0.122330904006958
0.122107177734375,-0.6801197871576994,-0.4130467307912185,-0.6511603077203035,0.2158812433481216,0.1876689195632934,0.0882062241435051
0.132133056640625,-0.6289323284950107,-0.3712012836325913,-0.4056090916037559,0.191775768995285,0.2437694370746612,0.0585016943514347
0.142159423828125,-0.6508421086166054,-0.453943681585975,-0.1903179891943931,0.1449579298496246,0.2805447578430176,0.0439328700304031
0.152185302734375,-0.6367541081618517,-0.5553276151126251,-0.0159743987232446,0.0949323773384094,0.29360431432724,0.0245247315615415
0.16221142578125,-0.5901187233129516,-0.6296743790339678,0.0583294393718242,0.0537870749831199,0.283593475818634,-0.0090998075902462
0.1722373046875,-0.6346353624422103,-0.6896203867569566,0.1370738902628421,0.0201749689877033,0.2683808505535126,-0.0498728863894939
0.18226318359375,-0.7016955860845744,-0.7516172625951468,0.2206020682990551,-0.0059887249954044,0.265955239534378,-0.1031672656536102
0.192289306640625,-0.7398186882518232,-0.86113839841336,0.2794435488462448,-0.0327597558498382,0.2661271691322326,-0.1727184206247329
0.202315185546875,-0.7418808084134012,-0.8879236756168305,0.3776362120509147,-0.0564957112073898,0.2731816172599792,-0.2407712340354919
0.21234130859375,-0.748561601351574,-0.8710401992246508,0.4629892674267292,-0.052960317581892,0.2843178212642669,-0.2976379096508026
0.2223662109375,-0.7583445250235498,-0.8370354921616613,0.467788192141056,-0.0322217531502246,0.2850387394428253,-0.3353791534900665
0.23239208984375,-0.7155662905268371,-0.6888296017054468,0.5519067372858524,-0.0128157427534461,0.2623997628688812,-0.3536006212234497
0.242418212890625,-0.6104205933138728,-0.4862627371169626,0.7065232985019684,-0.0166474990546703,0.2252465337514877,-0.3496998846530914
0.252444091796875,-0.508913727527298,-0.3493815929472446,0.8633826702088118,-0.0302748661488294,0.1930279731750488,-0.3291445672512054
0.26247021484375,-0.4748538927435874,-0.2837146137615665,0.9361521383434532,-0.0357647091150283,0.1643270850181579,-0.2988282144069671
0.272496337890625,-0.4576913071490824,-0.2561001922575757,0.9301222105294464,-0.0218079276382923,0.1348248124122619,-0.2674459517002105
0.2825224609375,-0.4162078617032617,-0.1967716588458046,0.8750164093792439,0.0024779709056019,0.083909161388874,-0.2363636493682861
0.29254833984375,-0.3366270695859566,-0.0842332575656473,0.8357008825570345,0.0397255346179008,0.0411680303514003,-0.2036654353141784
0.30257421875,-0.2435251171164214,-0.0118779962550848,0.7147907761096954,0.0897761881351471,0.00637489836663,-0.1773227751255035
0.312600341796875,-0.2118390987919643,0.0154473426418378,0.5686743322134018,0.1299507468938827,-0.0234472341835498,-0.1577209532260894
0.322626220703125,-0.1479252468839287,0.0653017260698601,0.4848205754846334,0.1467467844486236,-0.0512676797807216,-0.1383310109376907
0.33265234375,-0.0087896565846167,0.168315178760793,0.4132978925406932,0.1380344331264495,-0.0728076249361038,-0.1222299635410308
0.34267822265625,0.0239790058773942,0.1396716699373908,0.3107674923926591,0.1165424436330795,-0.0805912464857101,-0.1127935871481895
0.352703125,-0.0027975948292762,0.1180177460066974,0.1580336761832237,0.095966063439846,-0.0779336839914321,-0.0982668399810791
0.362729248046875,0.0410506800517439,0.1193323174702934,-0.0071773442834615,0.1003292351961135,-0.0600851997733116,-0.0921889096498489
0.372755126953125,-0.0080079864213243,0.1470094106806442,-0.2037023714244365,0.1229094043374061,-0.0364123731851577,-0.0899174511432647
0.38278125,-0.0836634400547482,0.201092517719604,-0.3601373802393675,0.13654825091362,-0.0234473086893558,-0.0908721983432769
0.39280712890625,-0.1233832916278392,0.2159986661568284,-0.3672510116368532,0.1258101612329483,-0.0372043997049331,-0.0997253432869911
0.40283349609375,-0.1072541224679909,0.2714737938097677,-0.2654413269788027,0.0898710638284683,-0.0615875013172626,-0.1098983511328697
0.412859375,-0.0627092436249367,0.3174875944279134,-0.1663806487679481,0.0382217839360237,-0.0811705887317657,-0.1266292184591293
0.422885498046875,-0.1132787347860634,0.2872626798982732,-0.1434066004157066,0.0049202856607735,-0.0846177861094474,-0.1397380977869033
0.432911376953125,-0.1409328855122439,0.2696922989541664,-0.2496247491657733,-0.0053119240328669,-0.075582206249237,-0.1447363197803497
0.442937255859375,-0.0932219621200114,0.3047718869733624,-0.339416079249978,-0.0071617560461163,-0.076152391731739,-0.1392438262701034
0.45296337890625,-0.0066265054676681,0.4081279425568878,-0.2866027729511261,-0.0125796720385551,-0.0834669694304466,-0.1296001374721527
0.4629892578125,0.0982037691205739,0.4498295973306521,-0.1682563795119523,-0.0167661607265472,-0.0855426415801048,-0.1167914122343063
0.473015380859375,0.231381802722346,0.5159200626254081,-0.0627969401746988,-0.0155362440273165,-0.076913483440876,-0.0989244729280471
0.483040283203125,0.3134240713160485,0.5446679451387375,-0.0209375740885734,0.001815847819671,-0.0634173825383186,-0.0737975463271141
0.493066162109375,0.3641124944154172,0.5112223697958513,0.0483177484452724,0.0322616323828697,-0.0416744202375412,-0.0489990636706352
0.50309228515625,0.388607395659387,0.5266076800521463,0.172529819047451,0.0678196251392364,-0.0302779581397771,-0.0296743661165237
0.5131181640625,0.4201149521443992,0.599903948539868,0.4075193091392516,0.0914099588990211,-0.0299689918756485,-0.004524924326688
0.523144287109375,0.5283816309221089,0.7128754440076649,0.7094254496842622,0.1004026532173156,-0.0387827232480049,0.02362229116261
0.53317041015625,0.5900280128221959,0.7285922877732663,1.0348381380230187,0.1000077277421951,-0.0504403859376907,0.0412663668394088
0.543196533203125,0.5630628855397924,0.6713944097146392,1.2350117507994174,0.1024120301008224,-0.061418205499649,0.039812546223402
0.553222412109375,0.4938541420940309,0.6509065521549433,1.3816256228238344,0.1090342327952385,-0.0784255862236023,0.0234559141099452
0.563248291015625,0.4673184557374567,0.6429309701658785,1.591551398807764,0.1152476519346237,-0.0911403149366378,-0.0047403029166162
0.5732744140625,0.5053594325792045,0.7462021056786179,1.7230688239872454,0.119423858821392,-0.1018323898315429,-0.028988592326641
0.58330029296875,0.4367091267338022,0.8028784440811723,1.740561810579896,0.1390668153762817,-0.104276105761528,-0.0443606227636337
0.593326416015625,0.2585776517543942,0.7833030982565135,1.7182342434376476,0.164175197482109,-0.0746703073382377,-0.0639771446585655
0.603352294921875,0.0927134280759841,0.837601309350878,1.7442033819526432,0.1777096390724182,-0.0551983304321765,-0.0998054444789886
0.61337841796875,-0.1253008248201105,0.897382116574794,1.926954150763154,0.158039391040802,-0.0686824694275856,-0.1427464634180069
0.6234033203125,-0.3242691443268209,0.9682384445644916,2.242097374022007,0.0944489538669586,-0.0984278470277786,-0.1798442900180816
0.63342919921875,-0.375077577076666,0.9616742637433112,2.636955939030647,0.0073163406923413,-0.1196668073534965,-0.2092959880828857
0.643455322265625,-0.4518979280373081,0.8697764628991485,2.960374238681793,-0.0843733698129654,-0.0961486995220184,-0.2246946543455124
0.653481201171875,-0.4672309966497123,0.7415000654675066,3.151107238417864,-0.1862857490777969,-0.0122781069949269,-0.227013498544693
0.663507568359375,-0.4662107867565006,0.5992185966242104,3.298278159803152,-0.2733561992645263,0.1198202744126319,-0.2369454950094223
0.673533447265625,-0.7372408005878329,0.312494754576683,3.3388036469370124,-0.3222045302391052,0.3031159341335296,-0.2605795562267303
0.683559326171875,-1.0441389772664755,-0.0268149051567539,3.335710357096791,-0.3163615465164184,0.4921420216560364,-0.3048135936260223
0.69358544921875,-1.2095732120297848,-0.2142561333384364,3.446025419771671,-0.2645519077777862,0.6107071042060852,-0.3391711115837097
0.703611328125,-1.2687868868902326,-0.2940121724247932,3.633714814028144,-0.1894126534461975,0.6633180975914001,-0.3449722528457641
0.713637451171875,-1.1154932448409498,-0.3030904184261336,3.6652018391817807,-0.1274798214435577,0.7001846432685852,-0.3316772878170013
0.723663330078125,-1.0258198420479894,-0.3616200200125575,3.332029622757435,-0.0767332911491394,0.7210108637809753,-0.3057756423950195
0.733689453125,-0.9768279937334358,-0.6222700210615992,2.308851527389884,-0.0138918124139308,0.7439436316490173,-0.2826549410820007
0.74371533203125,-1.0214990562394262,-1.016026323916763,0.5354050998181105,0.0470743365585804,0.7511925101280212,-0.2604359090328216
0.7537412109375,-0.894565524784103,-1.3407887316532432,-1.686532114228606,0.0902156680822372,0.7552827596664429,-0.2186177372932434
0.763766357421875,-0.8345634760249405,-1.5784528477817772,-4.181667845252156,0.1460629552602768,0.7445909976959229,-0.1363391131162643
0.773792236328125,-0.4494671572264284,-1.7881993216760457,-6.469340391013026,0.2520452439785003,0.6440521478652954,-0.0543124713003635
0.783818359375,0.0344756125103682,-1.580935604508221,-8.278543776142596,0.3720752298831939,0.3447245359420776,-0.0731056034564971
0.793844482421875,0.0856956582684069,-1.4167059962943196,-9.689740361365676,0.4206553101539612,-0.087247647345066,-0.2001492530107498
0.803870361328125,-0.5139966202821582,-1.8053705289684236,-10.580242509168386,0.3594566881656647,-0.5075381398200989,-0.3999060392379761
0.813896484375,-1.3182995442084968,-2.413960399723798,-11.099064138454198,0.1806674599647522,-0.8420380353927612,-0.6264479160308838
0.82392236328125,-1.9816972560808064,-2.5395938814312218,-11.118744990479945,-0.0495739951729774,-1.087493896484375,-0.777000904083252
0.833948486328125,-1.7438382019020615,-1.7567080587387085,-10.903788234591484,-0.2608413994312286,-1.2394016981124878,-0.7708272337913513
0.843974365234375,-0.6227844003245234,-0.3713229007182642,-10.736198794555664,-0.358993798494339,-1.2370610237121582,-0.6069967746734619
0.85400048828125,0.7668946189649403,1.2016823126494884,-11.005988379871845,-0.2836008369922638,-1.033660054206848,-0.2885914742946625
0.8640263671875,2.060843419640511,2.537422382611036,-11.554442930877208,-0.0533420592546463,-0.6813856363296509,0.1641381978988647
0.87405224609375,3.1759865358695385,3.339995194809138,-11.690222689676284,0.2594444155693054,-0.2783313989639282,0.6888924241065979
0.884078369140625,4.084255518770218,3.820037011584639,-11.230661058610677,0.6123223304748535,0.041834644973278,1.1664648056030271
0.89410400390625,4.394164348506927,3.759847331298888,-10.334564451801777,0.9711071848869324,0.2759507298469543,1.4827830791473389
0.90412939453125,4.089611200584471,3.152766696062684,-9.268645531338452,1.244760274887085,0.5835420489311218,1.5844844579696655
0.9141552734375,3.322780732896924,2.418725568298995,-7.813938305690884,1.335201621055603,0.9205235242843628,1.5302258729934692
0.924181396484375,2.60918062787652,1.729518438518047,-5.420705782827735,1.239113450050354,1.1296626329421997,1.4208831787109375
0.93420751953125,2.0692149421446024,0.7784457213532179,-2.313861464506388,1.0379897356033323,1.1589514017105105,1.2630101442337036
0.9442333984375,1.5592207624368368,-0.1710204373978078,0.7867945205688476,0.7725099325180054,1.0556031465530396,1.0645053386688232
0.954259521484375,0.9585950024284422,-0.7908364894360304,3.61156494154036,0.4895120561122894,0.8799513578414917,0.8469782471656799
0.964285400390625,0.5113794235210866,-1.2620473495021465,5.750977601635456,0.2336451262235641,0.7067598700523376,0.6078655123710632
0.9743115234375,-0.1369703568231314,-1.7187484765700995,7.033163191542029,0.0548871457576751,0.6085236668586731,0.3253910839557647
0.984337158203125,-1.0376639360334723,-2.243436221410334,7.615058239856362,-0.0351346209645271,0.5543267130851746,-0.0340709500014781
0.994363037109375,-1.9918032011620697,-2.44353603829816,8.06505300115347,-0.0786368697881698,0.4654098749160766,-0.4669375419616699
1.00438916015625,-2.913976644644141,-2.172325041876733,8.70034470861256,-0.1520815193653106,0.3018281161785126,-0.9175694584846495
1.0144150390625,-3.619683658327162,-1.6251159608878194,9.379622857314349,-0.2780317664146423,0.0532129816710948,-1.2847083806991575
1.024441162109375,-3.8195892678171393,-0.914172800116986,9.861129778206347,-0.4558587670326233,-0.2263475656509399,-1.5071296691894531
1.03446728515625,-3.6096439103499054,-0.0466621997905895,10.088941339492797,-0.6563941240310669,-0.4686237871646881,-1.5461344718933103
1.0444921875,-2.9127444725006817,0.7915075205653905,9.962496395272016,-0.82317054271698,-0.6451032161712646,-1.4327235221862793
1.0545185546875,-2.2392602508999406,1.5818322610870004,9.518103107243777,-0.9065008759498596,-0.7021863460540771,-1.227852463722229
1.06454443359375,-1.89658969989866,2.1217492853716013,8.818921988198161,-0.8851521611213684,-0.616346538066864,-0.9947106242179872
1.0745703125,-1.766138150385022,2.2282208243608475,7.988570649975538,-0.7557801008224487,-0.4371534585952759,-0.778724730014801
1.08459619140625,-1.788126694831252,2.032498784165829,7.310764327391982,-0.5496615171432495,-0.1885838508605957,-0.6111626625061035
1.094622314453125,-1.864081661134213,1.891651658974588,6.949580652970075,-0.3105189204216003,0.0831822976469993,-0.4859614968299866
1.104648193359375,-2.020210088218003,1.7573108469374477,6.882391615316271,-0.0934534594416618,0.3082918226718902,-0.3758983612060547
1.114675048828125,-2.059342805819213,1.6344585203811526,7.09942517747879,0.0614995099604129,0.4309169054031372,-0.2750846147537231
1.124700927734375,-2.027666395573318,1.5112679017812012,7.584057536914944,0.1302673816680908,0.4657204151153564,-0.185914009809494
1.134726806640625,-1.9961393306702373,1.3946680597484111,8.064464972132443,0.1225614994764328,0.4222269058227539,-0.1096823289990425
1.1447529296875,-1.9381362006433307,1.277289488428086,8.416000528243183,0.0600760243833065,0.2850751876831054,-0.0370520688593387
1.15477880859375,-1.7254057425022125,1.1977283143267037,8.563290692093968,-0.0500568002462387,0.1262644827365875,0.0169792603701353
1.164804931640625,-1.6037132535055278,1.1061898483142256,8.547700324252247,-0.1975620985031128,-0.0123176332563161,0.0374022424221038
1.174830810546875,-1.680029015944898,0.7833495677467435,8.325463932749628,-0.3531408011913299,-0.1222255825996398,0.0146562093868851
1.184855712890625,-1.7643828311502932,0.2343066041278652,7.888990916326642,-0.496744841337204,-0.1661120802164077,-0.0498056039214134
1.1948818359375,-1.865755585695803,-0.3162149076109752,7.261763857379555,-0.6061132550239563,-0.1414530575275421,-0.1416993737220764
1.20490771484375,-1.9613123474389316,-0.7547704659290612,6.575836187660694,-0.661727786064148,-0.0624509155750274,-0.2459805011749267
1.214933837890625,-1.951492087431252,-1.0729661355610935,5.8876662919729945,-0.6456997990608215,-0.0135440565645694,-0.3274392783641815
1.2249599609375,-1.828440585041046,-1.186192190311849,5.2121524642407895,-0.561760425567627,-0.0398355796933174,-0.3131809830665588
1.234986083984375,-1.346066525925696,-1.0896525550112128,4.348117467603087,-0.4281620383262634,-0.0784772112965583,-0.1923505216836929
1.245011962890625,-0.9675528734531254,-1.1389020313486455,3.288617766532301,-0.2644465863704681,-0.1301531940698623,0.0171475727111101
1.255037841796875,-0.6199822754506021,-1.2453975357353686,1.9606535912692544,-0.0974163338541984,-0.2360299825668335,0.317748099565506
1.26506396484375,0.0622301731374114,-1.3915002433672548,0.4371773653000593,0.0841851532459259,-0.3990388810634613,0.6787294149398804
1.27508984375,0.6320837782632559,-1.873191873176396,-1.5554489888131615,0.2922306656837463,-0.5158308148384094,0.9286696314811708
1.285115966796875,0.5263306166764349,-2.994216302528977,-4.225156858366727,0.5125846266746521,-0.5808465480804443,0.8718686699867249
1.295141845703125,-0.4906533732913434,-4.581388171078264,-7.300325935485959,0.6399892568588257,-0.710530161857605,0.4368939101696014
1.30516796875,-1.892634532532096,-6.003602701660991,-10.016879142844676,0.5328584909439087,-0.8152850866317749,-0.2060067504644394
1.31519384765625,-3.2681548242181537,-7.161611876800656,-11.935651740717889,0.1800526827573776,-0.8789070844650269,-0.8016146421432495
1.32521875,-3.75881623468548,-7.559072733262181,-12.767833216977118,-0.2609500288963318,-0.9989640116691588,-1.2035828828811646
1.335244873046875,-3.174756994074583,-6.038773968285322,-12.890854031968116,-0.6174367666244507,-1.2770897150039673,-1.3222441673278809
1.345270751953125,-1.7464821405395865,-3.059712564790249,-12.950107015925646,-0.7385469079017639,-1.6346592903137207,-1.2023965120315552
1.355297119140625,-0.3467540574552491,-0.3021514205429703,-13.233760291421412,-0.6416226029396057,-2.009076833724976,-0.9626721143722534
1.365322998046875,0.5785253161529079,2.1107130737029016,-13.934155462431908,-0.441205620765686,-2.198368787765503,-0.6355589628219604
1.375348876953125,1.1869703350774945,3.6218797070667135,-15.285397052907944,-0.2027875781059265,-1.9192299842834477,-0.2041026055812835
1.385375,1.7502765643864868,4.190561638064683,-17.211085713779926,0.0506742522120475,-1.252297282218933,0.3209654092788696
1.39540087890625,2.3837629759892818,4.400814454045891,-18.74657795623541,0.3281222283840179,-0.3347018659114837,0.8302928805351257
1.405427001953125,2.925764989854396,4.165694615572691,-19.322344877058267,0.5661206245422363,0.5551137924194336,1.177790284156799
1.415452880859375,3.3099314804568887,3.272418326881528,-18.197489783501624,0.6689258813858032,1.250096321105957,1.24037766456604
1.42547900390625,3.0193320390850302,2.032779793064296,-15.455354975640772,0.6170112490653992,1.6042323112487793,1.0567572116851809
1.4355048828125,2.63931010094136,0.7663582470659166,-11.317626225358246,0.4399652481079101,1.6176012754440308,0.6914079189300537
1.44553076171875,2.361264582324773,-0.2964662145134061,-6.491737516260146,0.1944497674703598,1.3848106861114502,0.1978884488344192
1.455556884765625,2.078317117010802,-0.992719755674526,-2.142666108933091,-0.0781148076057434,1.0676934719085691,-0.3012336194515228
1.4655830078125,1.7753740346334874,-1.2003012335546317,1.272955989268422,-0.3148551881313324,0.7949458956718445,-0.6463416814804077
1.47560791015625,1.7954995616868137,-0.7752194527830928,3.480699258267879,-0.4860508143901825,0.5993573069572449,-0.7410757541656494
1.485634033203125,1.8808645997613669,0.0578372719407081,5.043197581070661,-0.5314846038818359,0.4816266596317291,-0.6337700486183167
1.495659912109375,1.73936544040218,0.7761307954743504,5.990536299338936,-0.4497456848621368,0.41958948969841,-0.4300770461559295
1.50568603515625,1.29970429546237,1.1787352253694086,6.589801000127196,-0.2643065750598907,0.3637397885322571,-0.224512442946434
1.5157119140625,0.5262437786431983,1.0477980842959136,7.090479069957136,-0.0263575129210948,0.3715968728065491,-0.0887971520423889
1.525738037109375,-0.4354108670841902,0.6737948949851096,7.318126380592584,0.1786766052246093,0.376196414232254,0.0036195965949445
1.535763916015625,-1.005348424166441,0.5198060737458988,7.816873190099001,0.3080642819404602,0.2830828428268432,0.1013308838009834
1.5457900390625,-1.0863917996495962,0.6848191239550709,8.46432938260436,0.3499049544334411,0.1544652283191681,0.2058948576450348
1.55581591796875,-1.1564590230882168,0.7897866881221532,8.953456715372205,0.3383484184741974,0.0639506727457046,0.3371138870716095
1.565842041015625,-1.1645094969443976,0.7194095219515264,9.174498928654192,0.3166809380054474,0.0148486420512199,0.4567284286022186
1.575867919921875,-1.256492930245399,0.5735707990180701,9.267222220537066,0.3121515214443207,0.0255738608539104,0.505645751953125
1.585893798828125,-1.5863210969388484,0.3335373964749276,9.213101338770985,0.310706228017807,0.0566034168004989,0.4818331003189087
1.595920166015625,-1.8104010704815388,0.1263578321929089,9.2102383505553,0.2924380898475647,0.0762514621019363,0.3996233344078064
1.605946044921875,-1.915325380028784,-0.0531483652058057,9.287070830345153,0.2632794082164764,0.0925806313753128,0.3027508556842804
1.61597216796875,-1.946107471783459,-0.0907774367784149,9.155683169025185,0.2201785296201706,0.1185263767838478,0.2341718226671219
1.6259970703125,-1.8251722308948637,0.0450053816274274,9.04993848300576,0.1764896363019943,0.1479431241750717,0.2047031372785568
1.63602294921875,-1.6030337468087672,0.2814321288475767,8.969090337833762,0.1321078091859817,0.1772602051496505,0.1896713674068451
1.646049072265625,-1.4800113243825732,0.4516894363857806,8.783577118572593,0.0916820839047432,0.2031083106994629,0.1834289282560348
1.656074951171875,-1.3849351857632397,0.7020715797901154,8.531660459077358,0.0620535314083099,0.2580997347831726,0.1815197467803955
1.66610107421875,-1.3840291768342257,0.8810439991056919,8.116323754185437,0.0399703308939933,0.3539570271968841,0.1748367995023727
1.676126953125,-1.5418147234752773,0.9984371834732592,7.619673624697327,0.0040888409130275,0.4529877603054046,0.1643097996711731
1.686153076171875,-1.6731687747865915,1.0841009852986785,7.383936531108617,-0.0553369373083114,0.5602055191993713,0.1473350673913955
1.696178955078125,-1.7900778288990258,0.9785527716994284,7.199685294607281,-0.1076273396611213,0.670011043548584,0.1157285571098327
1.706204833984375,-1.976791948382556,0.8391455431181937,7.066420733499527,-0.1420297771692276,0.7051048278808594,0.0900048166513443
1.71623095703125,-2.2832405546627936,0.9455990349940956,7.170171030831336,-0.134087935090065,0.6980034708976746,0.085640475153923
1.726257080078125,-2.236915587469935,0.9525381135422736,7.019049910515546,-0.1204829216003418,0.6691452264785767,0.07498649507761
1.736283203125,-2.398597557027638,0.7501775121156126,6.919377822408079,-0.1180919110774993,0.5617316365242004,0.0295864343643188
1.746308837890625,-2.284737807483226,0.4932752096949145,6.623033407643437,-0.1411665976047516,0.3892376124858856,-0.0245471075177192
1.7563349609375,-2.0803046375662086,0.1565201480814255,5.995627484998106,-0.1663419902324676,0.2289867252111435,-0.0605174824595451
1.76636083984375,-1.8063167237773536,-0.4678304238475859,4.752382743382453,-0.1841260492801666,0.1093045249581337,-0.0971037223935127
1.776385986328125,-1.382670747962594,-0.9591627923790365,3.1003882740497586,-0.1657483577728271,-0.0127427652478218,-0.1248002350330352
1.786412109375,-0.7021073086906224,-1.2746920192807911,1.0445032074689864,-0.1145988777279853,-0.2387149035930633,-0.1792384386062622
1.79643798828125,0.0265667390819638,-1.6323011962167917,-1.262107262995839,-0.0866728946566581,-0.5961092114448547,-0.376927375793457
1.806464111328125,-0.1153390283167362,-2.275048626509309,-3.867782513099909,-0.1876911073923111,-1.0926297903060913,-0.6904674768447876
1.816489990234375,-0.3343568961642682,-3.019901363405585,-6.360318290758133,-0.4878024756908417,-1.570138692855835,-0.9745258092880248
1.826515869140625,0.0150996982479467,-3.386582466199994,-8.296840480333566,-0.8364664912223816,-1.8521772623062132,-1.162127137184143
1.8365419921875,0.1563884662594646,-3.291193462239206,-10.306072516810891,-1.0228806734085083,-1.9505529403686523,-1.239594340324402
1.84656787109375,-0.3911035963892936,-2.948143410401046,-12.681641957211491,-0.9241024851799012,-1.898994326591492,-1.242725133895874
1.856593994140625,-1.2990958081752062,-2.40798410179317,-15.080620330250262,-0.6439506411552429,-1.6840909719467163,-1.1191068887710571
1.866619873046875,-1.546043447086215,-0.9920063467081636,-16.53318060699701,-0.2933419942855835,-1.4092711210250854,-0.7473397850990295
1.87664599609375,-0.3317531068740412,0.889344063808769,-16.753021627795697,0.0568400882184505,-1.265539050102234,-0.2291513383388519
1.886671875,0.5538316044012084,2.566405023728311,-16.143600274652243,0.312065988779068,-1.2053278684616089,0.2825726568698883
1.89669775390625,0.5049873478638008,3.3966286439180373,-15.305585269933935,0.4987614154815674,-1.082398533821106,0.7478341460227966
1.906723876953125,0.4867809157721698,3.208151314154267,-14.77979613972306,0.7127067446708679,-0.9246613383293152,1.1377371549606323
1.916749755859375,0.6217308726835995,2.9851702417641874,-14.741597634232043,0.9739848375320436,-0.7190088033676147,1.4289788007736206
1.926775146484375,0.6028562224742025,2.678166193558276,-15.14662688012123,1.1631864309310913,-0.3782954812049866,1.6193996667861938
1.936801025390625,0.516643992985785,1.943678344940394,-15.028424863588809,1.1607859134674072,0.1923123747110366,1.682292342185974
1.946826904296875,0.4603535851608961,0.8957678132459521,-13.63241123445034,1.0591223239898682,0.8184884190559387,1.6032363176345823
1.956852783203125,0.2760814154693857,-0.3956027344394475,-11.257014812529086,0.9686080813407898,1.4156560897827148,1.4353200197219849
1.966878662109375,0.5710933029886335,-0.8078131970696151,-8.32169201299548,0.9415064454078674,1.893709659576416,1.2525256872177124
1.97690478515625,1.225182430702448,-0.4216417233202606,-5.070733238250017,0.967563807964325,2.230899810791016,1.0961503982543943
1.986930908203125,1.751911033720523,0.0211828266870696,-1.784087064051628,0.9745602011680604,2.3522865772247314,1.0001389980316162
1.99695703125,2.1408568675540387,0.7285051209464669,1.7099316945165397,0.8865809440612793,2.166543483734131,1.0009523630142212
2.00698291015625,2.2914511875167487,1.476663036867976,5.147697235465049,0.7437593340873718,1.6174575090408323,1.1301376819610596
2.0170087890625,1.8694401194274424,1.1907265458058565,7.59745653219223,0.6246986389160156,1.044811725616455,1.146693229675293
2.027034912109375,0.4664733832154423,0.3340076808677986,8.628478911319375,0.5449897050857544,0.6051685810089111,0.9019061326980592
2.037060791015625,-1.31306252033785,-0.460683474702388,8.544407712447644,0.4417471289634704,0.2751235663890838,0.4426544308662414
2.0470869140625,-2.9969439739272,-1.1978081015646458,8.192456561273335,0.2610710859298706,0.0638168975710868,-0.0616659857332706
2.05711279296875,-3.665314067384601,-1.0773972498763351,8.043577082404493,0.0029787037055939,-0.1017667204141616,-0.4290672242641449
2.067138916015625,-3.327939138573408,-0.4520495749350637,8.194922074604033,-0.2342245131731033,-0.1967560946941375,-0.5906036496162415
2.077164794921875,-2.682566766604781,0.3678944971721619,8.144724503761529,-0.3956910073757171,-0.2796329855918884,-0.5763217806816101
2.087189697265625,-2.0551745802238583,1.5151156632505356,8.0593042283684,-0.4857583045959472,-0.4243246614933014,-0.38975590467453
2.0972158203125,-1.4320387361131608,2.7151667214363813,8.26475490476489,-0.5001368522644043,-0.5435131192207336,-0.1005533188581466
2.10724169921875,-1.1246713344875725,3.357903484204411,8.084629808282852,-0.4420418441295624,-0.5438926219940186,0.2128216326236724
2.117267822265625,-1.0612198028616606,3.459055873997509,7.543653630334139,-0.3209082186222076,-0.4764618873596191,0.5058717131614685
2.127293701171875,-1.1387002251662313,3.242885358405113,6.990379111826419,-0.1751087009906768,-0.3402363955974579,0.7422805428504944
2.137319580078125,-1.322158411593735,2.81963744199723,6.451935667225718,-0.0437702052295208,-0.1284660100936889,0.902539849281311
2.147345703125,-1.4264353631481528,2.2004303156375884,5.976397299349308,0.0370825640857219,0.125685304403305,0.9609956741333008
2.15737158203125,-1.538492739445716,1.3534154273837804,5.797374611151218,0.0495234318077564,0.3292371928691864,0.9239593744277954
2.167397705078125,-1.5316383435063063,0.7253972180590033,6.065109602025151,0.0015638940967619,0.429459661245346,0.819974958896637
2.177423583984375,-1.4813228453725575,0.3255826380781829,6.647392188352346,-0.0958009138703346,0.4183115661144256,0.6773762106895447
2.18744970703125,-1.270891165693104,0.1706518050148151,7.399944832101464,-0.2198339104652404,0.2759464383125305,0.5457204580307007
2.1974755859375,-0.9364211645431816,0.2228171505326405,8.099353914684057,-0.3373347520828247,0.0846309214830398,0.4338817000389099
2.207501708984375,-0.7898268740020692,0.1254458136482164,8.294160447469354,-0.4108031094074249,-0.0369785949587821,0.3253437876701355
2.21752783203125,-0.7672370757270603,-0.0408711405000649,7.940466252020001,-0.4386914670467376,-0.0613875873386859,0.2090282440185547
2.2275537109375,-0.7174781154975295,-0.1515233809737488,7.426903566175699,-0.4385242164134979,0.0366905070841312,0.0701664984226226
2.237579833984375,-0.8532578012313693,-0.410015108010359,6.886793065145612,-0.4363351762294769,0.2121952921152115,-0.0775219872593879
2.247604736328125,-0.9459962176181376,-0.5934649650009348,6.572482785579562,-0.4491739869117737,0.3829452097415924,-0.1927473694086074
2.257630615234375,-0.779301096073538,-0.4643490480052307,6.52916211476922,-0.4582286179065704,0.5012819170951843,-0.2661165595054626
2.26765673828125,-0.5738378524564206,-0.3014850838550366,6.539417551323771,-0.4469719529151916,0.4751656353473663,-0.3147160410881042
2.2776826171875,-0.5489172000810504,-0.0874846697101835,6.705090344083309,-0.4009673297405243,0.2683623731136322,-0.3481828570365906
2.287708740234375,-0.7553194050487131,-0.0119440106960013,6.669603435638547,-0.3329792022705078,-0.0685352310538292,-0.392225444316864
2.297734619140625,-1.2491479743100702,-0.4138512155745178,6.079966394895314,-0.2749729752540588,-0.4399737119674682,-0.449262261390686
2.3077607421875,-1.6553186453193425,-0.8685010361358523,4.937458155748248,-0.251166433095932,-0.8062158823013306,-0.428646445274353
2.31778662109375,-1.4158420729413628,-0.9277006094057112,3.427477955690026,-0.2379364967346191,-1.2155826091766355,-0.2648921906948089
2.3278125,-0.876879280641675,-0.944348742672056,1.2099538819104432,-0.1700160354375839,-1.605796456336975,-0.0282817762345075
2.3378388671875,-0.8076093450605869,-1.389194596773386,-2.640827812027931,-0.0806096047163009,-1.739578366279602,0.1221826002001762
2.34786474609375,-1.567634808908403,-2.70984494189173,-7.478072027876973,-0.0487944111227989,-1.4781934022903442,0.0924505367875099
2.357890869140625,-2.8394878053709864,-4.359775756692886,-11.800026295697688,-0.0653911232948303,-1.0131996870040894,-0.0304614789783954
2.367916748046875,-3.4937507552817464,-5.160933733657002,-14.677725758302213,-0.0382479205727577,-0.5678827166557312,-0.1432950943708419
2.37794287109375,-3.524074874135852,-4.958615510067343,-16.327973676228524,0.0440105572342872,-0.2745696604251861,-0.1930115520954132
2.38796875,-3.6194372823506593,-4.402590523807704,-16.89842612403035,0.0684344097971916,-0.0875121504068374,-0.1283955425024032
2.397994873046875,-3.0373198234573007,-3.541970596310496,-15.828464650177954,0.046464018523693,-0.0082249213010072,0.02162392064929
2.408019775390625,-1.8506209987975657,-2.464834408523142,-14.053923997628688,0.0818044319748878,-0.1753638535737991,0.1156625375151634
2.418045654296875,-1.3517802273973822,-1.4943617751657965,-12.849589124643805,0.1582465171813964,-0.549393892288208,0.0432376079261302
2.42807177734375,-1.5929323317721484,-0.9532803832769392,-12.291740137827396,0.2060800790786743,-0.8975846171379089,-0.0957972407341003
2.43809765625,-1.552829746225476,-0.6683505119740962,-12.086121703648567,0.1573095917701721,-1.1523736715316772,-0.1311779022216797
2.44812353515625,-0.6691994569536298,0.0265027156687341,-11.666872209227083,0.0118330940604209,-1.2943692207336426,0.0170760173350572
2.458149658203125,0.8707473537579178,1.3315956636331974,-11.43574991595745,-0.1029020324349403,-1.3128573894500732,0.3383779227733612
2.46817578125,2.695863762812316,2.502509474661946,-11.740236720645427,-0.0464856289327144,-1.0634281635284424,0.6942813992500305
2.478201904296875,3.991893753676116,2.76987884709388,-12.649454674834011,0.1703557968139648,-0.4589691758155823,1.0181928873062134
2.488227783203125,4.541671369978785,2.263641681832075,-13.152623976957797,0.4428496360778808,0.325100839138031,1.3066363334655762
2.49825390625,5.022721194753051,1.5768385444529354,-12.019423079860209,0.6654462218284607,1.0848147869110107,1.518010497093201
2.50827978515625,5.119297070410847,0.8387298749893903,-9.440024426785111,0.8114572167396545,1.6617186069488523,1.584250807762146
2.518305908203125,4.641603570327162,-0.3204351921871304,-6.152663382315636,0.8798392415046692,1.9765721559524536,1.4583650827407837
2.528331787109375,3.6914708374261855,-1.3659510838299989,-2.5834201636761427,0.854884922504425,1.9276093244552608,1.1902153491973877
2.538357666015625,2.742590442673862,-1.6814986501060425,1.1359019727498292,0.7583638429641724,1.5570842027664185,0.8898328542709351
2.5483837890625,2.3731056806355717,-1.5639448683492838,4.170147503328323,0.6280878782272339,1.034146070480347,0.5679062008857727
2.55840966796875,1.764126226040721,-1.4504381700262428,6.198514448386431,0.4756945669651031,0.5274467468261719,0.2606847882270813
2.568435791015625,1.1694987565990538,-0.9001629063997417,7.202040333300829,0.3154279291629791,0.1260646879673004,-0.0140663739293813
2.578460693359375,0.4971253823170438,-0.4437848372736945,7.358757081666588,0.1681491881608963,-0.0669437274336814,-0.2397858202457428
2.588486572265625,-0.3102618809580802,-0.1438469645943492,6.757977884662151,0.0333053544163703,-0.044507659971714,-0.4085383415222168
2.598512939453125,-0.6993305374536662,0.2653639508936554,5.979181961631775,-0.086255632340908,0.1146179512143135,-0.493653655052185
2.608538818359375,-0.8825967815056442,0.6706965636435895,5.426392011770606,-0.1611256003379821,0.3806437849998474,-0.457604318857193
2.61856494140625,-0.8366109100740402,1.2051147713162005,5.135280236962437,-0.1836325079202652,0.6894990801811218,-0.3143698275089264
2.6285908203125,-0.6004276801530272,1.7462969932310282,5.343650015676022,-0.1543097645044326,0.8963990211486816,-0.1116454750299453
2.638616943359375,-0.4372331871405243,2.193815281412005,6.111599550521373,-0.1026555895805358,0.93934428691864,0.0906179621815681
2.648642822265625,-0.4475308554016053,2.4852836145728827,7.167824175444245,-0.0482671745121479,0.8225188851356506,0.2464381754398346
2.658668701171875,-0.4978503355907276,2.560757665491104,8.074031841900943,-0.016999065876007,0.6463197469711304,0.3262214362621307
2.66869482421875,-0.7055189437650143,2.3938860183358197,8.639608792620896,-0.0239078402519226,0.4570313394069671,0.341221421957016
2.678720703125,-0.8947382510025054,2.0841864474356173,8.984475538492202,-0.0792064890265464,0.3021129667758941,0.320267915725708
2.688746826171875,-0.9279244812894611,1.879276599917561,9.108796330165864,-0.1787706315517425,0.2057453989982605,0.2902024388313293
2.698772705078125,-0.8201951973240822,1.6935380474679171,8.913509904909134,-0.3120300471782684,0.1860147267580032,0.2581859827041626
2.708798828125,-0.7698934354547411,1.418445241177082,8.45222627235651,-0.4466736316680908,0.2077083140611648,0.2150734066963195
2.71882470703125,-0.8207805959966034,1.1187443555913863,7.885977121463418,-0.5542891621589661,0.2592829465866089,0.1756198853254318
2.7288505859375,-0.8161061013795435,1.059757767485082,7.428967512968182,-0.6116107702255249,0.3162479698657989,0.1626335084438324
2.738876708984375,-0.7868113986384123,1.0083176492355763,7.086987136188149,-0.6219063401222229,0.4069849550724029,0.1565969884395599
2.748902587890625,-0.895856514442712,0.8187392263621092,6.829935451892018,-0.6098174452781677,0.4930404722690582,0.1389543414115905
2.758927978515625,-1.055466134705767,0.6181917387720197,6.858388223916291,-0.5849065780639648,0.5249893069267273,0.1206718608736991
2.768953857421875,-1.2460567302964627,0.4412294171698391,7.042568733268976,-0.5564597845077515,0.543912410736084,0.0819156765937805
2.778979736328125,-1.5582874271094798,0.2163941682804376,7.108442596670985,-0.5162269473075867,0.5571964383125305,0.0259043071419
2.789005859375,-1.8751801243841648,-0.0092171795479953,6.993306397449969,-0.4699142873287201,0.5541205406188965,-0.0473182424902915
2.79903173828125,-2.0412064067564906,-0.0805656201698817,6.754129392540454,-0.4526946246623993,0.5264540314674377,-0.0939090847969055
2.8090576171875,-1.8627607877939936,-0.1003669202375225,6.582059592220187,-0.4762449562549591,0.5108750462532043,-0.101807489991188
2.81908349609375,-1.3085466503486036,-0.2042604802312329,6.22760902544558,-0.5074072480201721,0.5219581723213196,-0.1266405284404754
2.829109619140625,-1.194943505913764,-0.4493555135454982,5.463447776967287,-0.5030306577682495,0.508770227432251,-0.1345730125904083
2.8391357421875,-1.1415161593697964,-0.6412476932540535,4.567762089046836,-0.4457024037837982,0.4436383247375488,-0.1075876355171203
2.84916162109375,-0.9094446025513112,-0.5783947851084172,3.650550213494897,-0.3370118737220764,0.3262720108032226,-0.0358497910201549
2.859187744140625,-0.6878342339925467,-0.334386304921843,2.5012948381751774,-0.1450133770704269,-0.0004221061244606,0.0251754540950059
2.869213623046875,-0.7002002329602837,-0.3469949900716543,1.021644894450903,0.0879458338022232,-0.5323126316070557,-0.0458313450217247
2.87923974609375,-0.9529293048169464,-0.0682768328905105,-1.1191443146944045,0.1825302243232727,-1.1231473684310913,-0.1985024958848953
2.889265625,-0.8775947354346513,0.0310445420831441,-3.858968507525325,-0.0029030223377048,-1.5456606149673462,-0.3721222281455993
2.899291748046875,-0.6398633262235671,-0.9883198402151464,-6.726977766242623,-0.3870985209941864,-1.5548274517059326,-0.6265009641647339
2.909317626953125,-1.3089714516319333,-2.392424713611603,-9.967367800700664,-0.6886737942695618,-1.1701200008392334,-0.8683069348335266
2.919343505859375,-2.097568491578102,-3.1273847097858787,-13.245885613501072,-0.7047532200813293,-0.7180972695350647,-0.955336093902588
2.92936865234375,-1.912523182089627,-2.657700328634679,-15.664861649429795,-0.4824245274066925,-0.2979356944561004,-0.8592756390571594
2.93939453125,-1.1874290386304258,-1.3419412626892326,-16.413108120417593,-0.1540948003530502,-0.0311809685081243,-0.5306838750839233
2.949420654296875,0.1754525015611201,0.0564969632476568,-15.62063672325611,0.1729280650615692,0.0207061972469091,-0.104450523853302
2.959446533203125,1.330534318011999,1.0568487481705844,-14.160602749627827,0.4423389732837677,-0.2760039269924164,0.2067576050758361
2.96947265625,1.3901862381592391,1.138782935013622,-12.903649216133354,0.6176027059555054,-0.6641878485679626,0.3809653520584106
2.979498779296875,1.0487769392654298,0.2504131595971062,-12.5005734423995,0.6922005414962769,-0.840538740158081,0.4309763014316559
2.989524658203125,0.8710872532367706,-0.6116098030984402,-12.828227187663316,0.6606884598731995,-0.7901855707168579,0.3362452685832977
2.99955078125,0.6979742274738848,-1.1624136937089264,-13.19644441398382,0.5556479096412659,-0.5627772212028503,0.1122432798147201
3.00957666015625,0.6004104367572813,-1.3480693901807068,-12.986961121070385,0.453564703464508,-0.3382751643657684,-0.1140873283147811
3.019602783203125,0.7398562437832356,-1.2265785612359643,-12.142891638618709,0.3906512260437011,-0.2084529250860214,-0.2820298969745636
3.029628662109375,0.9431657434325664,-0.923962080464512,-10.75903255765438,0.3277148604393005,-0.1370658278465271,-0.3822955191135406
3.039654541015625,1.2512598518975078,-0.284803358846344,-8.802027552020549,0.2734834849834442,-0.0240462087094783,-0.3797440826892853
3.0496806640625,1.715692596130818,0.2733484285752289,-6.710338181608915,0.2613061666488647,0.1804283708333969,-0.2774656414985657
3.05970654296875,1.873955843286216,0.6138717566810548,-4.887351770320534,0.2953127920627594,0.4557366073131561,-0.0673375874757766
3.069732666015625,1.87404717483148,0.9096141869645564,-2.91491187966764,0.3878259360790252,0.7233765721321106,0.1913371086120605
3.0797587890625,1.7563837952204049,0.8444573127254843,-0.7848410484135151,0.5312821269035339,0.8894607424736023,0.3997040688991546
3.089784912109375,1.3342116913504898,0.7115395192287862,1.5880138723313808,0.6658207178115845,0.8920405507087708,0.5152210593223572
3.099810791015625,0.8480604517839848,0.7028443907935172,4.222968408411741,0.7730608582496643,0.7066989541053772,0.5600488185882568
3.109835693359375,0.4589978597030043,0.4026165221916511,6.3516387252181765,0.8264825344085693,0.4182005822658539,0.5311351418495178
3.119861083984375,0.0755996500592678,-0.0859215942450799,7.65902013117969,0.8229807615280151,0.1087931543588638,0.4221406280994415
3.129886962890625,-0.2966192131180316,-0.5681306903233752,8.238675876134634,0.7440662384033203,-0.1156996041536331,0.2305104881525039
3.139912841796875,-0.6421466148551553,-0.9619284577000886,8.34830938628614,0.5792713761329651,-0.2545825541019439,-0.0441134348511695
3.14993896484375,-0.9457561252519489,-1.3403424491904674,8.227764606019853,0.3581051528453827,-0.2935121059417724,-0.3602460920810699
3.15996484375,-1.166574831976369,-1.350448686532676,7.972812524351477,0.123582974076271,-0.2428819984197616,-0.633931040763855
3.169990966796875,-1.066555464801192,-0.8378862637721002,7.839705199632048,-0.0525792762637138,-0.1615775525569915,-0.8051677346229553
3.180016845703125,-0.832148743033409,-0.0394000815668143,7.704373184600472,-0.1435690820217132,-0.0698844417929649,-0.8445479869842529
3.190043212890625,-0.5351195974076166,0.965025912258774,7.68123137846589,-0.1585906445980072,-0.0051541826687753,-0.7458893060684204
3.200069091796875,-0.0761984927352517,1.8156516844861208,7.8684765360862015,-0.1005614101886749,0.005433689802885,-0.5789622068405151
3.21009521484375,0.0959317325353622,2.270260661580413,8.020003314593433,-0.0011378792114555,0.0097693158313632,-0.4238229691982269
3.22012109375,-0.0541311839643865,2.4943603627368804,7.977774530673026,0.1118457987904548,0.0032268059439957,-0.3165385723114013
3.23014697265625,-0.3362735069079324,2.2580000226832926,7.831400312623381,0.1988795101642608,0.0238138400018215,-0.2678591609001159
3.240173095703125,-0.5708399492820725,1.9295823073096567,7.5955585896164175,0.2228875011205673,0.0791383758187294,-0.2562942206859588
3.250198974609375,-0.7759832767624407,1.6850976975113152,7.336013919460773,0.1950952857732772,0.1332117319107055,-0.2541311979293823
3.26022509765625,-0.8819730966493486,1.301568628029525,7.155417698335647,0.1322514712810516,0.1784538626670837,-0.2613392770290375
3.2702509765625,-0.9982684027776122,1.1478003542058168,7.043514489686489,0.0473640076816082,0.1952368319034576,-0.2839532196521759
3.280277099609375,-1.1574816441342235,1.0585809787906706,6.990748529660701,-0.0573375895619392,0.2077529430389404,-0.3103484809398651
3.290302001953125,-1.266476856382191,0.9100102736100554,6.927277635747194,-0.1515107005834579,0.2186268866062164,-0.3302247226238251
3.300327880859375,-1.2643684859260915,0.7922067548759281,6.876727013683318,-0.2191629111766815,0.2500520348548889,-0.3466167747974396
3.31035400390625,-1.3275611474201083,0.6326434579726308,6.67627399944365,-0.2598530650138855,0.3053680062294006,-0.3561077415943146
3.320380126953125,-1.4394604105465114,0.4609302160050719,6.522721852588653,-0.2896155714988708,0.3676280677318573,-0.363928347826004
3.33040625,-1.4478963765889403,0.3326853827554732,6.5912476918041705,-0.3142242431640625,0.3714643716812134,-0.365418404340744
3.34043212890625,-1.4020518863894045,0.2404025463827885,6.681810590782761,-0.3160145282745361,0.3176709413528442,-0.3758138418197632
3.3504580078125,-1.468050691345334,0.1399768360295798,6.462772118538617,-0.3069176971912384,0.2865372598171234,-0.4392870962619781
3.360484130859375,-1.8242691445752977,-0.1188823178136255,5.967696691021323,-0.3295935392379761,0.2544956505298614,-0.5488470196723938
3.370510009765625,-1.927676035296917,-0.364473546280153,5.6070250577747816,-0.3679907321929931,0.1464293748140335,-0.647910475730896
3.3805361328125,-1.6338579241394997,-0.4513199089536443,5.219454896208644,-0.3877668380737304,0.0237496364861726,-0.6801260113716125
3.39056201171875,-1.076457850134373,-0.2626297584231011,4.345986885315179,-0.3679949939250946,-0.1201116666197776,-0.6277637481689453
3.400588134765625,-0.403815632315725,-0.1670673158578574,3.1236206810772416,-0.3012734651565552,-0.3607861697673797,-0.5447018146514893
3.410614013671875,0.211550308445841,-0.2965777851291,1.6852087566703555,-0.176620751619339,-0.7414048910140991,-0.5555600523948669
3.420639892578125,0.2301943647697567,-0.5904813095476478,-0.1764759263247251,-0.0454053804278373,-1.1971949338912964,-0.7188482284545898
3.430666259765625,-0.3835083189547061,-0.9133110687211156,-2.4834523074924943,-0.0358062833547592,-1.5754127502441406,-0.9419031143188475
3.440692138671875,-0.7749471386477351,-1.255507280208915,-4.950334003934264,-0.2269325256347656,-1.7926554679870603,-1.1128214597702026
3.45071826171875,-0.9351128584235906,-1.5218695214249194,-7.317807816162705,-0.5181454420089722,-1.7956690788269043,-1.1448073387145996
3.460744140625,-1.1018794377692045,-1.6160745762981474,-9.799365103688835,-0.7288050055503845,-1.545305609703064,-1.0062371492385864
3.470770263671875,-1.068585947715491,-1.7583784761689605,-12.359958518528938,-0.7072088718414307,-1.0599610805511477,-0.7070429921150208
3.480795166015625,-0.4361150698307901,-1.4936445668071507,-14.676678295075892,-0.4469575881958008,-0.4535746574401855,-0.298198401927948
3.490821044921875,0.81056666049622,-0.6633994654379785,-15.842268719124792,0.0030625686049461,0.0369346030056476,0.1191567555069923
3.50084716796875,1.7094465413480997,0.3174045557869598,-15.999505107450483,0.457150787115097,0.2152054160833358,0.4183403849601745
3.510873046875,1.7256280069507657,0.7944666626319289,-15.3414293212533,0.7112139463424683,0.1383242160081863,0.5478986501693726
3.520899169921875,1.0653704928003251,0.1432116806318052,-14.194090008687972,0.7083572149276733,-0.007468834053725,0.5337864756584167
3.530925048828125,0.5370204260602593,-0.7809574849784374,-13.092590071755646,0.5408142805099487,-0.1381605267524719,0.403971791267395
3.540950927734375,0.377779456446506,-0.9082030780576168,-12.401292399436237,0.2808701992034912,-0.2355034798383712,0.21354740858078
3.55097705078125,0.3904228475835174,-0.58572501839865,-12.035700845444202,0.0727569460868835,-0.2687045633792877,0.0758334919810295
3.561003173828125,0.6048022419754415,-0.5321653507119044,-11.981008301270007,4.27910126745e-05,-0.2484021186828613,-0.0049804719164967
3.571029296875,0.9513801026135682,-0.1796218231350183,-12.140248430633545,-0.0021252883598208,-0.0927536711096763,-0.0474048927426338
3.58105517578125,1.1923518819853662,0.5308650817682966,-11.807641446876524,0.0313288047909736,0.2182687669992447,0.0080471076071262
3.591081298828125,1.66071743562296,1.0688348809752612,-10.832602820777891,0.0930667370557785,0.6471527218818665,0.1688429117202758
3.60110693359375,2.0163728481426832,1.318145376560092,-9.33435748217702,0.2118110060691833,1.069735050201416,0.3774445354938507
3.6111328125,1.855669222097844,1.0494634602248667,-7.366954416647553,0.370904266834259,1.4076273441314695,0.5331776738166809
3.621158935546875,1.2359735815688968,0.38383682025671,-4.9352463249176735,0.5224817991256714,1.5808260440826416,0.5705457925796509
3.631184814453125,0.3930444282587617,-0.5674201674338429,-2.084821822729707,0.6493551135063171,1.5890933275222778,0.4617056250572204
3.6412109375,-0.4990494457148015,-1.3949765411756931,0.6971516590446233,0.7306032180786133,1.447853446006775,0.2439086288213729
3.65123681640625,-1.1983569676190613,-1.9241041681595143,3.255101281377673,0.7474024295806885,1.184014916419983,-0.013989227823913
3.661262939453125,-1.4553569217279552,-2.02853908675462,5.498213969922065,0.6897644400596619,0.7987112402915955,-0.2417106032371521
3.6712880859375,-1.2880667568996549,-1.60675890481174,7.254389529219269,0.573418915271759,0.3753733038902282,-0.434667021036148
3.68131396484375,-0.9961300755746662,-1.147639902947098,8.245866079899669,0.4295220077037811,0.0329559966921806,-0.600821316242218
3.691340087890625,-0.8289925440248102,-0.9199030873972922,8.45785580267608,0.2814670503139496,-0.1410781145095825,-0.714921236038208
3.701365966796875,-0.648358109781146,-0.6192569568507373,8.318675295522809,0.155115008354187,-0.1594891548156738,-0.7456101775169373
3.71139208984375,-0.3664986588995903,-0.032855683158338,8.072421484094857,0.0635962709784507,-0.1021928414702415,-0.6848973035812378
3.72141796875,-0.0833687496908009,0.6839950942210853,7.988059193322062,0.0316392667591571,0.0198518764227628,-0.5750042796134949
3.73144384765625,0.0045419542785733,1.1073366802617908,7.892756990861892,0.0593065842986106,0.1940953135490417,-0.4659062623977661
3.741469970703125,-0.2928620525415986,1.1566007696464655,7.898854723215103,0.1235934272408485,0.3275244832038879,-0.3851892948150635
3.751495849609375,-0.5980056406378745,1.063441497499123,8.158845383572578,0.1827126741409301,0.3569889068603515,-0.3693623840808868
3.76152197265625,-0.8838080569915473,1.1243065197631716,8.663247442361712,0.2085665762424469,0.2783960103988647,-0.4345864057540893
3.7715478515625,-1.4256538573816415,1.2064137981507927,9.06728417008221,0.1780217140913009,0.1346779614686966,-0.5404864549636841
3.781573974609375,-1.8133565592862664,1.1891662376865744,9.318174409139155,0.0873154923319816,-0.0336001999676227,-0.6464381217956543
3.791599853515625,-2.0369082711711526,1.2536150367215275,9.45824455860853,-0.0522125773131847,-0.1741040498018264,-0.7277121543884277
3.801626220703125,-2.156999170190096,1.4220079020947216,9.311725379130245,-0.2134008854627609,-0.2659960091114044,-0.7388694286346436
3.811652099609375,-1.9523856752701103,1.7027482127532363,9.070001027825477,-0.3583974838256836,-0.3009465336799621,-0.6678990721702576
3.821677978515625,-1.7377669191643594,1.8733985016644,8.77887873162329,-0.4532310664653778,-0.269647866487503,-0.5319054126739502
3.8317041015625,-1.6381161661058663,1.9301861184217035,8.362403962612152,-0.4906964004039764,-0.1804074943065643,-0.3494216203689575
3.84172998046875,-1.5351941362917425,1.9369113350234928,7.936933401718735,-0.4736824929714203,-0.0441899560391902,-0.1527507454156875
3.851756103515625,-1.447374252410978,1.8462392765820024,7.435829215431213,-0.4040869176387787,0.1061244457960128,0.0167501419782638
3.861781982421875,-1.5391129171706734,1.4421075640544294,6.982820074748992,-0.299824595451355,0.2475636899471283,0.1211538091301918
3.871806884765625,-1.7520768918067215,0.8820786028504372,6.624740211561321,-0.1979072839021682,0.3513979315757751,0.1349830776453018
3.8818330078125,-2.096307093340158,0.2626859638560563,6.4805538589447735,-0.1430755108594894,0.3724975883960724,0.0562084838747978
3.89185888671875,-2.4633675508409736,-0.267859841096308,6.574702215194701,-0.1686019152402877,0.321083664894104,-0.0981691032648086
3.901885009765625,-2.8738381110012527,-0.5735019715655595,6.698389969661831,-0.281533807516098,0.1998879015445709,-0.2823652923107147
3.911910888671875,-3.0050311265319585,-0.7101259261038154,6.707470517218113,-0.443263828754425,0.0551687963306903,-0.4509125053882599
3.92193701171875,-2.9082483301252124,-0.793020482411608,6.373650650539994,-0.6269674301147461,-0.0815610811114311,-0.5715065598487854
3.931963134765625,-2.442544835303724,-0.6768097858268767,5.871462760668993,-0.7450341582298279,-0.2737017571926117,-0.6072759628295898
3.941989013671875,-1.6158651713311671,-0.2246028283730149,4.838873862877488,-0.7383621335029602,-0.5335177183151245,-0.5889318585395813
3.95201513671875,-0.7501512816958129,0.1949981646335683,3.0807647051692006,-0.584092915058136,-0.829588770866394,-0.6042322516441345
3.962041015625,-0.7199754852712154,0.1551546684144996,0.7500678411960602,-0.3409630060195923,-1.219072341918945,-0.7095796465873718
3.972067138671875,-1.0912640818610786,-0.1497607369490899,-1.843687254011631,-0.1438494026660919,-1.5825693607330322,-0.8817367553710938
3.983345947265625,-1.346605162847042,-0.3129890774322673,-4.41987746643424,-0.1255780905485153,-1.739261507987976,-1.0459859371185305
3.9933720703125,-1.4443839845538138,-0.4369506438720971,-5.932590890848636,-0.284279853105545,-1.6254042387008667,-1.021631360054016
4.003398193359375,-1.4430267247259616,-0.5505957277525216,-8.549713417640328,-0.4720408916473388,-1.3606257438659668,-0.7749492526054382
4.013424072265625,-1.0062948381710797,-0.4278207042161375,-10.415993027210234,-0.5209215879440308,-0.9931976795196532,-0.3876737058162689
4.0234501953125,-0.8011313812181353,-0.4480477919477969,-12.194707166051863,-0.3678166568279266,-0.5265626311302185,0.0733058676123619
4.03347607421875,-0.5290425425162538,-0.4813418299907818,-13.662891712909936,0.0454122051596641,-0.1286501586437225,0.541348934173584
4.043502197265625,0.3456582250425591,-0.4014886872055009,-14.358104512846468,0.5984218716621399,0.0613916181027889,0.8668297529220581
4.053528076171875,0.8652052094608544,0.0729670365333557,-14.376037644422054,1.0769141912460327,0.0295247621834278,1.0219309329986572
4.063553955078125,0.7532752589352428,0.2085181011430919,-13.78327165800333,1.3158848285675049,-0.1882106810808181,1.0899622440338137
4.073580078125,0.753743168707937,-0.6400033922813833,-12.992888173031806,1.2619318962097168,-0.3500243425369262,0.9888534545898438
4.08360498046875,0.6774789903253317,-1.6094038663625716,-12.48367959074378,1.0114028453826904,-0.4450378715991974,0.6732481718063354
4.093630859375,0.3444094305578619,-2.0462664666250348,-12.23412147707343,0.719279944896698,-0.5092602968215942,0.2437396794557571
4.103656982421875,0.3923992622230202,-2.004265207850188,-12.169962016373873,0.4860625863075256,-0.5638543963432312,-0.1674774438142776
4.113682861328125,0.6814564425889402,-1.3296519822195172,-12.070440150392054,0.2820236980915069,-0.5832560658454895,-0.4598038494586944
4.1237099609375,0.933556495827064,-0.2568835063886828,-11.66191663264632,0.077513039112091,-0.5171973705291748,-0.5957185626029968
4.13373583984375,1.158847671790421,0.7347419695094227,-10.652758294802904,-0.096142902970314,-0.3056952357292175,-0.5695575475692749
4.143761962890625,1.2900577845863996,1.807800824855268,-9.617833063018322,-0.1664872616529464,0.0731359496712684,-0.4005171060562134
4.153787841796875,1.1100796953596177,2.457992579804361,-8.647793852642177,-0.107224203646183,0.5138971209526062,-0.1511208564043045
4.16381396484375,0.63532356390208,2.520522101214528,-7.340562668806314,0.0237896721810102,0.931793451309204,0.1108333542943
4.17383984375,0.1167096773491241,2.5091303541064263,-5.348247280338407,0.1842446029186248,1.1707781553268433,0.3648395538330078
4.183865966796875,-0.1935998969418927,2.291950661471486,-2.665153274989128,0.3286815583705902,1.13573956489563,0.5721168518066406
4.193891845703125,-0.3704784127181396,2.1212692467696965,0.4128104012846946,0.4301618635654449,0.9003533124923706,0.6923173069953918
4.20391748046875,-0.5445144350774586,1.9566405562356115,3.142184511771798,0.4853774607181549,0.5403420925140381,0.7491592168807983
4.21394384765625,-0.5703414617080241,1.419663092534244,4.774028173479437,0.4886409044265747,0.1925295293331146,0.7206037044525146
4.2239697265625,-0.5266465507578104,0.7649749760139734,5.498099988153577,0.4322236776351928,-0.0190929118543863,0.6112003326416016
4.233995849609375,-0.6939028863817452,0.1726145381888374,5.715587723824381,0.3438370823860168,-0.1138010472059249,0.4928518831729889
4.244021728515625,-0.5722079131670296,-0.2221272685723379,5.805419970440864,0.2456508874893188,-0.0936139672994613,0.3805283606052398
4.2540478515625,-0.3525608805704862,-0.2961730402531102,5.978022270202636,0.1422789692878723,0.0049967630766332,0.255402147769928
4.26407373046875,-0.3076758465202525,-0.2704518851498141,6.303629019808769,0.0331316664814949,0.1161362305283546,0.1024547219276428
4.274098876953125,-0.4242324704658239,-0.4303218733821064,6.725725135833025,-0.0748999938368797,0.1795468926429748,-0.0351409502327442
4.284124755859375,-0.5285645132083445,-0.4886739264445379,7.342721892666816,-0.1605894267559051,0.2051586955785751,-0.1444435119628906
4.294150634765625,-0.5985054068535566,-0.3243335878651589,8.123966962414979,-0.2270632535219192,0.2173490524291992,-0.2250163853168487
4.3041767578125,-0.6921646644122899,0.1342915295353159,8.74316502868533,-0.2755085825920105,0.1959947049617767,-0.2484727948904037
4.31420263671875,-0.7009093310777098,0.5271964762581512,9.23675577060282,-0.2983273565769195,0.1558795124292373,-0.2173351198434829
4.324228515625,-0.5496700642749667,0.7824792877182364,9.55750046713054,-0.2953242361545563,0.1221291869878768,-0.1581139117479324
4.334254638671875,-0.4413850461229682,1.0074681927993894,9.676743517148497,-0.2594000399112701,0.0790514945983886,-0.0891255289316177
4.34428076171875,-0.383435144120641,1.08070315955393,9.629448097488284,-0.2239198237657547,0.0718471109867096,-0.0479469299316406
4.354306884765625,-0.4518163507010787,0.949887672098726,9.456464689454435,-0.2208563834428787,0.0987026989459991,-0.0294297039508819
4.364332763671875,-0.5181019367091357,0.8453975892502814,9.159763131815197,-0.2476150095462799,0.1588895469903946,-0.0279062036424875
4.37435888671875,-0.6047958852998911,0.664237669827789,8.89592982455492,-0.2957982420921325,0.2678306698799133,-0.0253644827753305
4.384384765625,-0.6850181536585093,0.5547057203546166,8.605930394902824,-0.3474335670471191,0.3463639914989471,0.004845852497965
4.39440966796875,-0.5842970679547638,0.5942803365044296,8.551148418879508,-0.3776561915874481,0.3848695755004883,0.0331509932875633
4.404435791015625,-0.5958534310400485,0.4963353279178962,8.511593822604418,-0.3599290251731872,0.3938080370426178,0.0133520197123289
4.414461669921875,-0.8772779976356774,0.0605835293083917,8.33331406172812,-0.3220157325267792,0.3803297877311706,-0.0606668144464492
4.42448779296875,-1.1372028262153266,-0.2112404022464528,8.219439845266939,-0.2844023704528808,0.3007178008556366,-0.1421148478984832
4.434513671875,-1.128171159302071,-0.2047933449989184,8.131907692286372,-0.2668074071407318,0.225835308432579,-0.2034554481506347
4.44453955078125,-1.031680623840168,-0.1343984787748195,7.903878104335069,-0.2887484133243561,0.1722430288791656,-0.2551115155220032
4.454565673828125,-1.0628813063330949,-0.1732767649572342,7.691193385031819,-0.3444186151027679,0.1435858160257339,-0.3048774898052215
4.464591552734375,-1.0146534281283617,-0.2474756631067954,7.283114688444138,-0.4145928025245666,0.1449381560087204,-0.3599055111408233
4.474617919921875,-0.8433513973101973,-0.2142255738033913,6.649077949482202,-0.4572958052158355,0.104616031050682,-0.4109854698181152
4.484643798828125,-0.7051197153143585,-0.1372379765170626,5.696379750007391,-0.4648630321025848,-0.0463902950286865,-0.4480307400226593
4.494669921875,-0.4958136421313509,0.1170317671766504,4.61747567576468,-0.4023815393447876,-0.3509368896484375,-0.4959340989589691
4.50469580078125,-0.4355170308724045,0.3399899336151779,3.239426157861948,-0.2758602201938629,-0.7269673347473145,-0.5682629346847534
4.5147216796875,-0.5123733664618805,0.4895970691714436,1.2745511495053767,-0.1615099459886551,-1.050539255142212,-0.6083030104637146
4.524747802734375,-0.7311304279487579,0.5218130661867558,-1.0902081430673598,-0.1159525588154792,-1.2895784378051758,-0.5768426060676575
4.534773681640625,-0.6601620909519493,0.4976203992923721,-3.670589961960912,-0.1570520550012588,-1.3946250677108765,-0.4832458794116974
4.5447998046875,-0.4075950777892023,0.7473921922460198,-6.600957184913754,-0.2465658336877823,-1.35564124584198,-0.3612414300441742
4.55482568359375,-0.6033337768580764,0.805476570815593,-9.759614108058807,-0.3108819723129272,-1.1837570667266846,-0.2167335003614425
4.564851806640625,-1.008349651809037,0.5322234741073102,-12.759391551846266,-0.3222968280315399,-0.9282549619674684,-0.103567399084568
4.574877685546875,-1.665556546217203,0.2173315221957862,-15.184162537789344,-0.24733866751194,-0.703740119934082,0.0202743895351886
4.584904052734375,-1.8746081697151065,0.1679845768332481,-16.535521032643317,-0.128399059176445,-0.547229528427124,0.2182927131652832
4.594929931640625,-1.168739170403406,0.6983695104017853,-16.794197687792778,0.0067033632658421,-0.5811446309089661,0.4360471367835998
4.604954833984375,-0.3441095342958346,1.2771003955967724,-16.359673467350007,0.1021347641944885,-0.7504776120185852,0.5634763836860657
4.61498095703125,-0.3451898038132116,0.9301155615929514,-16.091409484165904,0.1315981149673462,-0.866749107837677,0.6097480058670044
4.6250068359375,-0.6148598909355699,-0.0088479443768039,-16.15506976317167,0.1161907687783241,-0.8334436416625977,0.5928221344947815
4.63503271484375,-0.5375631546348333,-0.6485070167325436,-16.257976010894776,0.085628867149353,-0.6252318024635315,0.5043417811393738
4.645058837890625,-0.366573404636234,-0.749706314407289,-16.094618509340286,0.0693126991391182,-0.3079194128513336,0.4085146784782409
4.655084716796875,0.0720425420995801,-0.4827547655286267,-15.400515131950378,0.0578155666589736,0.0401972867548465,0.3513914942741394
4.66511083984375,0.6101326432179659,0.0012782397748902,-14.09368434560895,0.0500228703022003,0.359915167093277,0.3303714990615845
4.67513671875,1.0627433591671287,0.2938784630425274,-12.243787131041287,0.0555191040039062,0.6155493259429932,0.323345273733139
4.685162841796875,1.2929884312108155,0.4323139605147764,-9.874771350067851,0.0946321114897728,0.763421893119812,0.3265450596809387
4.695188720703125,1.30321990236789,0.4627744190996512,-7.341940386900306,0.154619812965393,0.813572108745575,0.358018547296524
4.705214599609375,1.0540876128941774,0.2330717468369752,-4.8312049356848,0.2035273164510727,0.8356848955154419,0.3829414546489715
4.715240966796875,0.6022203357234597,-0.2368959813002497,-2.355475331398845,0.2515198886394501,0.7911310195922852,0.3468279242515564
4.725266845703125,0.0043755482031032,-0.7837973115142435,-0.0139174661934375,0.2757160663604736,0.6932001113891602,0.2662883996963501
4.73529296875,-0.5076232858579606,-0.9802198281288146,2.1360475675761696,0.2859545946121216,0.5225812196731567,0.1963359415531158
4.74531884765625,-0.7138648934364319,-0.9457659890588372,3.9442736321061846,0.2751756012439728,0.3517013192176819,0.1716783344745636
4.755344970703125,-0.6037659577302634,-0.7516771030236035,5.303994881635904,0.2357871830463409,0.2333664298057556,0.1664247214794159
4.765370849609375,-0.4587379666578024,-0.6166239779986441,6.348646557664871,0.1938651651144027,0.200617179274559,0.1785149425268173
4.77539697265625,-0.2443776422925293,-0.4644062946178018,6.883320420598984,0.1634537279605865,0.2294634729623794,0.1945911198854446
4.7854228515625,0.0175462420166935,-0.2693007058206945,7.175392564871907,0.1693372875452041,0.2724522948265075,0.2452974319458007
4.79544873046875,0.5469300813844428,0.0191596594295464,7.447107565292716,0.2126541435718536,0.3020890355110168,0.3328056931495666
4.805474853515625,1.0946746209569276,0.3896944967763498,7.673478280121087,0.2819096446037292,0.3421377837657928,0.4258212149143219
4.815500732421875,1.3291093997754155,0.4516331761538982,7.873456078064441,0.3567362129688263,0.369958758354187,0.4508219063282013
4.82552685546875,1.1227614822782574,0.1737575342115014,8.166630630621313,0.4030913114547729,0.3700262010097503,0.3669332563877105
4.8355517578125,0.7035393142551183,-0.0351785274821799,8.560087512138486,0.3748442530632019,0.3228019773960113,0.2009024918079376
4.845577880859375,0.1765988220520317,-0.1401549416759982,9.057900255665183,0.2692722380161285,0.246582344174385,-0.0074852383695542
4.85560400390625,-0.2312901423835195,-0.3635738574940711,9.417197677949073,0.0954048484563827,0.1733110547065735,-0.2338227778673172
4.8656298828125,-0.591290287842974,-0.4815221915263682,9.676276484158636,-0.1018682569265365,0.0818591192364692,-0.4159785509109497
4.875656005859375,-0.6762761904068291,-0.2834938471503556,9.861354234611987,-0.2741084694862366,0.0087446924299001,-0.5251756310462952
4.885681884765625,-0.4978767486736178,0.1462981662719044,9.831952783560752,-0.3858096599578857,0.0022447670344263,-0.5433608889579773
4.8957080078125,-0.3884748187882825,0.5734268239701167,9.497553071168063,-0.4497827887535095,0.0273352060467004,-0.4788450300693512
4.90573388671875,-0.2187134780734777,0.916519436308369,9.133729695892333,-0.4500392973423004,0.0574499703943729,-0.3389457166194916
4.915759765625,-0.1187778710584621,1.172633912819624,8.867745932599902,-0.3803401291370392,0.0937525853514671,-0.1756444275379181
4.925785888671875,-0.147030316471355,1.3193266952991485,8.518823773857951,-0.2806013524532318,0.118825726211071,-0.0477789193391799
4.9358115234375,-0.3798859637390822,1.1559436209119855,8.369154605916142,-0.1827722638845443,0.1432889997959137,0.0328088663518428
4.945837646484375,-0.6674230949308723,0.8350030364859848,8.18661017333269,-0.1387823820114135,0.2076243460178375,0.0772068351507186
4.95586376953125,-0.941419922678545,0.5341076804187148,8.084697612822055,-0.1720391362905502,0.3268181383609772,0.0928824692964553
4.965889892578125,-1.1406203065086156,0.2047128453749231,7.949438078504801,-0.3076810538768768,0.4427428543567657,0.1293550431728363
4.975915771484375,-1.2777648508548736,0.0235216357650235,7.941763890615105,-0.4610908627510071,0.4418341815471649,0.1620589345693588
4.985941650390625,-0.97439097584486,-0.0724671972524374,8.090168737709522,-0.5750384330749512,0.3889058232307434,0.1053644195199012
4.9959677734375,-1.0513869025681166,-0.1909275724601,7.785432342174649,-0.3743570148944855,0.4288340508937835,-0.0210278686136007
5.00599365234375,-1.4201996836289763,-0.2103905439514666,6.752227942833304,0.0140083692967891,0.2017819732427597,-0.1850428432226181
5.016019775390625,-1.633019719749689,-0.1809897139547392,5.464799191576242,0.0893867462873458,-0.1963768452405929,-0.2747386693954468
5.026045654296875,-1.575350936243683,0.2143923634713515,5.517642893013358,-0.2243247926235199,-0.4572759866714477,-0.2101820856332779
5.03607177734375,-0.7430981483139097,0.8279795675899833,6.151251177430153,-0.5719969868659973,-0.7144739627838135,-0.0683477222919464
5.04609765625,-0.2000210890958085,1.202336831035465,5.019745393812656,-0.645322322845459,-1.083097219467163,0.0360018983483314
5.0561240234375,-0.2834376417174004,0.977955463393405,2.3223422926038504,-0.6007164716720581,-1.4856828451156616,0.0692003294825553
5.066148681640625,-0.7037493037439883,0.4212126842532306,-0.717117173230648,-0.578758180141449,-1.6685363054275513,0.0489917360246181
5.076174560546875,-1.40147233293578,-0.2320583320107311,-3.5527906810104843,-0.4377597868442535,-1.6613150835037231,0.0238222032785415
5.086200927734375,-1.4798435666002332,-0.3708150607939809,-6.783018802416324,-0.07822897285223,-1.5533504486083984,-0.0111463805660605
