seconds_elapsed,ax,ay,az,gx,gy,gz
0.07376025390625,0.5014917973656207,0.8839965653009713,11.09159745583534,-0.2566844820976257,0.1113258153200149,-0.1674649566411972
0.0837861328125,0.597241597462818,0.6456715010456741,11.061267784023284,-0.2966243624687195,0.4723715484142303,0.0561997406184673
0.093812255859375,0.4497284385111182,0.6076004213266074,11.109162338620424,-0.3108107447624206,0.919022262096405,0.2607824504375458
0.103838134765625,0.2753293184604495,0.8686370105404406,11.206811396467684,-0.3230108320713043,1.3614126443862915,0.429629236459732
0.113864013671875,0.1002473672447726,1.1120181891415268,11.15760400570631,-0.3500291407108307,1.7533400058746338,0.5394510626792908
0.12389013671875,-0.1116266384637914,1.1691743469502776,10.8799607842803,-0.4230045676231384,1.951269268989563,0.5947832465171814
0.133916015625,-0.3691890304947272,1.073352723725885,10.599691890525817,-0.5328293442726135,1.911617398262024,0.5692235827445984
0.143942138671875,-0.4727929050931707,0.8670181041017174,10.213652591788769,-0.6058264970779419,1.724479079246521,0.4385116398334503
0.153968017578125,-0.8503833417735993,0.4817443829096853,9.347377122747895,-0.5625333786010742,1.4069889783859253,0.2175811231136322
0.163994384765625,-1.5072345546118917,-0.0116955706265754,8.325282146441936,-0.3814513087272644,1.0226320028305054,0.0071274987421929
0.174020263671875,-1.610065983533114,-0.3536811533046886,7.51466835886836,-0.1157330647110939,0.5912235975265503,-0.0993605926632881
0.18404638671875,-1.121229085079208,-0.579115208337456,7.132071894061565,0.1682971566915512,0.2322595715522766,-0.0848004072904586
0.194072265625,-0.4809602102620527,-0.8812715242512523,7.089675936880707,0.3966600298881531,0.0349241383373737,0.0345877707004547
0.20409814453125,-0.186530287349224,-1.1072876534882932,7.347132110324502,0.5125492215156555,-0.0412282980978488,0.2520637512207031
0.214124267578125,0.0681387761266902,-1.1394657296460122,7.776698416098951,0.4640780985355377,0.0417645908892154,0.5111019611358643
0.224150146484375,0.3533487795451656,-0.981768811136484,8.183736663722991,0.2722812294960022,0.3048832714557647,0.6838475465774536
0.23417626953125,0.1155656766794621,-0.7881091833639889,8.455821081978081,-0.0096806623041629,0.5986565351486206,0.6845163106918335
0.2442021484375,-0.6689393447127193,-0.7391619779087603,8.646268835031986,-0.3081957101821899,0.7677435278892517,0.5415806174278259
0.254228271484375,-1.1313838377382606,-0.9286343100592492,8.284436341312528,-0.5315914750099182,0.7140401005744934,0.3466470837593078
0.264254150390625,-0.9127938399139792,-1.1952423427298664,6.879903305631876,-0.5540546774864197,0.5177248120307922,0.2134122252464294
0.2742802734375,-0.0999660295527428,-1.8341959336973723,4.344022307243943,-0.356725662946701,0.227029874920845,0.1804558634757995
0.284306396484375,0.4615061892621219,-2.3669519803114234,1.37777303904891,-0.0639320686459541,-0.2084086686372757,0.2346627116203308
0.294332275390625,0.4914939888339489,-2.15107007240206,-0.8522861066550016,0.2047680914402008,-0.5614244937896729,0.342877060174942
0.3043583984375,-0.0248383078541606,-1.4238728191837668,-2.825941218316555,0.3994433283805847,-0.5556710958480835,0.4662497639656067
0.31438427734375,-0.2416381343260407,-0.6448647147074341,-5.007564542153477,0.4319581091403961,-0.1543787866830825,0.6238971948623657
0.324410400390625,0.0474228454321622,0.0696215620303526,-7.268243282526731,0.2150248885154724,0.4690096080303192,0.7427085041999817
0.334436279296875,0.3894306947410106,0.4615184642218053,-9.242753549712896,-0.1571484059095382,1.0144591331481934,0.8175323605537415
0.344462158203125,1.0534226461794227,0.1836316067656502,-11.030435423386097,-0.6336666345596313,1.337063550949097,0.8977293372154236
0.35448828125,2.3245098459012805,-0.4850723582886159,-12.938499580240247,-1.1103620529174805,1.2240440845489502,0.9459059238433838
0.36451416015625,3.600233984708786,-1.3851925215251744,-14.436666592907905,-1.3455734252929688,0.6208690404891968,0.9212018251419068
0.374540283203125,4.233615182371437,-1.777585427072644,-15.848925254404543,-1.2814106941223145,-0.0671831741929054,0.8205053210258484
0.384566162109375,3.539795590358972,-0.5733093716029077,-17.113243763709068,-0.8798657059669495,-0.4821833670139313,0.6364405751228333
0.39459228515625,2.0538778184115887,0.6185920632012188,-17.92692161502838,-0.236015111207962,-0.6023116111755371,0.4797444343566894
0.404619140625,1.4636968800500034,1.130904310593009,-17.84059007000923,0.3083755373954773,-0.4110205769538879,0.3259992599487304
0.414645263671875,1.0971869691040366,1.7084275735639034,-16.76984884395599,0.5615289807319641,0.0926633700728416,0.0057642632164061
0.424671142578125,-0.6971218484282493,1.6218534519605337,-15.42132177313566,0.4934639036655426,0.6503601670265198,-0.3641800582408905
0.434697265625,-2.379227086125314,1.159540476360172,-14.226435111975668,0.2554827630519867,0.9434428811073304,-0.6467885971069336
0.44472314453125,-2.5557187945410607,0.5873700456593185,-13.823617696917056,0.0494074486196041,0.7966934442520142,-0.8030145168304443
0.4547490234375,-1.8758745363891125,-0.3114999348530545,-13.841059830105303,-0.0380068197846412,0.2647365927696228,-0.8377243280410767
0.464775390625,-1.173345787416026,-0.8804944023989141,-13.392958335208892,0.0177583303302526,-0.4030880630016327,-0.7498016953468323
0.47480126953125,-0.7467816591322421,-0.8999417379297315,-12.019446460735796,0.144505888223648,-0.9895776510238647,-0.6285463571548462
0.484827392578125,-0.6833127379801124,-0.5083803878355772,-9.570174655264616,0.2242824733257293,-1.317119598388672,-0.5272194743156433
0.494853271484375,-0.8433542468544095,-0.1465584063769783,-6.205137665918469,0.254983127117157,-1.2491644620895386,-0.4173222780227661
0.50487939453125,-0.559136104017496,-0.141249696376454,-3.0982869178563357,0.1781996339559555,-0.928329348564148,-0.2324923276901245
0.5149052734375,0.3879964972194284,-0.1176381264388095,-0.3047895870268344,-0.0303290802985429,-0.6044106483459473,0.0159350670874118
0.52493115234375,1.451627672071755,0.0822653093603905,2.4185353064239026,-0.3257197737693786,-0.429865688085556,0.2363090813159942
0.534957275390625,2.1142713507063684,0.4111029032470658,4.650726203459501,-0.5949762463569641,-0.4436201155185699,0.3585729598999023
0.544983154296875,1.9445764628238973,0.8023111655872315,6.312631825953722,-0.6718288064002991,-0.4844498336315155,0.3843637108802795
0.55500927734375,1.200343319130689,1.2268594240039583,7.144945988681912,-0.4751892387866974,-0.4474766254425049,0.3312006294727325
0.56503515625,0.2151226139746606,1.4894507683791218,7.303140992906689,-0.1206272393465042,-0.3377721905708313,0.2368949502706527
0.575061279296875,-0.4211061186062171,1.6641723983824253,7.6372747478395695,0.2394196093082428,-0.3005710244178772,0.1173283457756042
0.585087158203125,-0.496627077406086,1.870644672911614,8.647312791126966,0.5201266407966614,-0.3008489906787872,-0.0149244079366326
0.595113037109375,-0.3880565933762118,2.230255398928374,9.916413858532906,0.7586502432823181,-0.2942590117454529,-0.1579470783472061
0.60513916015625,-0.4618304527804255,2.466686173869669,10.538744962131975,0.9289577603340148,-0.2955464124679565,-0.2911862134933471
0.6151650390625,-0.4119884904425591,2.419540830204636,10.951955176389216,1.006981372833252,-0.2770185172557831,-0.3901684582233429
0.625191162109375,-0.2516477428933605,2.271556692740321,11.449144819581509,0.9874069094657898,-0.2183006107807159,-0.4645332396030426
0.635217041015625,-0.1808003471287898,2.1751555891275403,11.832490641450882,0.8194072842597961,-0.1681879162788391,-0.498160183429718
0.6452431640625,-0.0969050162806175,1.9100119299210607,12.321445540261267,0.5634868144989014,-0.1166239455342292,-0.4383547306060791
0.65526904296875,0.2843700819956138,1.6706003856033085,12.73153674571514,0.270707905292511,0.0264562405645847,-0.3588332831859588
0.665294921875,0.388728683951497,1.2127248079285025,12.585221564376354,-0.110462911427021,0.1711741238832473,-0.2866614162921905
0.675321044921875,0.3388592125521972,0.6800552705541253,12.8005418928802,-0.4688857793807983,0.2418959736824035,-0.1528482288122177
0.685346923828125,0.5590608102915808,0.4688157450905069,12.803690127778053,-0.6551927328109741,0.3295413851737976,0.0052996561862528
0.695373046875,0.7186882219396531,0.1581471830276772,11.822829663658142,-0.6593019962310791,0.4142821133136749,0.1330786645412445
0.70539892578125,0.5390735957304016,-0.2212094596076756,10.789127251666784,-0.5710861682891846,0.4752040505409241,0.2113742679357528
0.715425048828125,0.3457014431297779,-0.2089351027124561,10.360881965363024,-0.4556934833526611,0.5169011950492859,0.2183323055505752
0.725451171875,0.1425781502349302,-0.0524976918778847,10.10178679254055,-0.4160462319850921,0.4808117747306824,0.1549557447433471
0.735477294921875,-0.05060567671936,-0.1076191289886366,10.090917023479935,-0.4390274584293365,0.3773647546768188,0.0940761491656303
0.745503173828125,-0.0089122417846694,-0.2047685028186067,9.877660057246684,-0.464266300201416,0.1761518567800521,0.0917636528611183
0.755529052734375,0.55985970558431,-0.7546339800678193,9.240107419118283,-0.4183752238750458,-0.0722880437970161,0.1387687027454376
0.76555517578125,0.8962970978170632,-1.4961362374924123,8.245518873897195,-0.3303435742855072,-0.3039343059062958,0.2017313092947006
0.7755810546875,0.725919415302202,-1.935541215714067,7.456001065844297,-0.2501991987228393,-0.422606885433197,0.2411751300096511
0.785608154296875,0.6089932273918762,-2.1993097871750598,6.948070832929015,-0.2628399431705475,-0.3954895436763763,0.2437164336442947
0.795634033203125,0.650730391870439,-2.3111335008472205,6.549408783984184,-0.3129132091999054,-0.1979059129953384,0.1442484259605407
0.80566015625,0.7853956135563552,-2.4790210470467806,5.589338009914756,-0.2411897331476211,0.2235153019428253,-0.0689427703619003
0.815686279296875,0.6682060620021074,-2.788973423664272,3.7511674734979863,0.0289581213146448,0.8769005537033081,-0.2741763293743133
0.82571240234375,-0.2512500853452831,-2.767633406254649,1.1548410664975644,0.4776832461357116,1.473888874053955,-0.2700424194335937
0.83573828125,-0.7214746377877891,-2.410075959505886,-2.759591554096341,0.7580139636993408,2.111236572265625,0.0174844153225421
0.845764404296875,-0.4777693417988717,-0.824107913788408,-6.567069528359174,0.22849802672863,2.7535500526428223,0.5987101793289185
0.8557900390625,-0.6286065306067466,0.6328829658169299,-9.087197077298164,-0.2306788712739944,3.21696400642395,0.7873786091804504
0.86581591796875,-1.907409492337704,-0.776709764406085,-11.735464683938028,-0.7947047352790833,3.1384217739105225,0.7304731011390686
0.875842041015625,-1.5918305080100894,-2.7466756661608813,-15.295158568465707,-1.160008192062378,2.511012554168701,0.636665403842926
0.885867919921875,0.9772713535867632,-3.4480914123907684,-18.748820182204245,-1.2656418085098269,1.2798446416854858,0.5754173398017883
0.89589404296875,2.22230853157714,-3.391160733900964,-20.857235061967373,-1.0334221124649048,-0.1026485115289688,0.5305763483047485
0.905919921875,2.0192484035789966,-2.337007362294197,-22.20972752928734,-0.5490463972091675,-1.032796025276184,0.4548955261707306
0.9159462890625,0.7369052850231528,-0.4878258217152207,-22.690400921964645,-0.0517559200525283,-1.2570469379425049,0.2960065305233001
0.92597216796875,-1.0030373707450926,1.6414192993044852,-21.57479413374662,0.2303111106157302,-1.033473014831543,0.0539680905640125
0.935998046875,-1.663959194023162,2.68550603492707,-19.008601583725213,0.2894308865070343,-0.7681912779808044,-0.228203684091568
0.946024169921875,-0.6975177158780396,1.964309629558772,-16.054907261198757,0.2388194501399994,-0.5719027519226074,-0.4906381666660309
0.956050048828125,0.9476721880063416,1.0027785736784338,-13.463374518215655,0.1790637075901031,-0.50910884141922,-0.7022625207901001
0.966076171875,2.212911465417593,0.790527569617331,-11.153750837409495,0.2249656021595001,-0.71645188331604,-0.8366440534591675
0.97610205078125,3.253485955135524,0.6542667493030428,-9.299372678035498,0.3812257647514343,-1.0244566202163696,-1.0114682912826538
0.986128173828125,3.4816011755436658,0.3480733598928898,-7.544603478404879,0.5917666554450989,-1.2271944284439087,-1.2697619199752808
0.996154052734375,2.9129630836874245,-0.0027786709330976,-5.8397015947490925,0.7344897389411926,-1.331270456314087,-1.5079883337020874
1.006179931640625,2.537465637230873,-0.0392483433375135,-3.6507033582299946,0.8142329454421997,-1.3265470266342163,-1.6511112451553345
1.0162060546875,2.6955016515016554,0.106002679368481,-1.5022393766731024,0.8661629557609558,-1.161718487739563,-1.647039771080017
1.026232177734375,2.983535626299679,-0.0770807554624974,0.1858569181323051,0.8419455289840698,-0.8304480910301208,-1.5613470077514648
1.03625830078125,2.9940462066590783,0.033883948493842,1.9718606294602157,0.749432384967804,-0.4236883521080017,-1.4144896268844604
1.0462841796875,2.701969970732927,0.0690913869766751,3.475906178772449,0.6360467672348022,-0.050241257995367,-1.1980377435684204
1.056310302734375,2.607469147783518,0.0721629079430829,4.744285361644625,0.487447440624237,0.2443442940711975,-0.9452416896820068
1.066336181640625,2.381016746021062,0.3022382037772796,5.780460301229358,0.2588603496551513,0.4397399127483368,-0.7045284509658813
1.076362060546875,1.793242722670734,0.465756576715596,6.601590222120285,-0.0191292017698287,0.5071448087692261,-0.5179082155227661
1.08638818359375,1.1058533829014747,0.5158139719024301,7.28894587881565,-0.2755963206291199,0.4290995299816131,-0.4000762701034546
1.0964140625,0.4769017651841044,0.6720065502636134,7.806867928913235,-0.4460932314395904,0.2400079220533371,-0.3741000592708587
1.106440185546875,-0.1505463891677558,0.9758345987819136,8.116880803546309,-0.4900452792644501,0.0750746950507164,-0.4118968844413757
1.116466064453125,-0.779413032015413,1.364879216814786,8.16893130877912,-0.3888978958129883,0.0262909121811389,-0.5099818706512451
1.1264921875,-1.6587416055053472,1.7969914076797664,8.082669321864843,-0.1695025265216827,0.0510149672627449,-0.6082258820533752
1.136518310546875,-2.3118831501707438,1.9895722272396088,7.990896462574601,0.0843265503644943,0.0570251867175102,-0.6445327401161194
1.14654443359375,-2.249736928989738,2.1007678721413017,8.279484856384991,0.2726747691631317,0.0449864901602268,-0.633908748626709
1.1565703125,-2.334789686244726,2.0439922380827364,8.630860838019847,0.3450155556201935,0.0755380094051361,-0.6095740795135498
1.16659619140625,-2.7022937958598137,1.808060790965706,8.672550108236074,0.2761785387992859,0.1218586042523384,-0.5672180652618408
1.176622314453125,-2.8145231677234173,1.598045875393599,8.786962084835768,0.1096377670764923,0.0894170477986335,-0.4986301958560943
1.186648193359375,-2.774656436759233,1.2609933104045687,8.916551756823063,-0.0962406322360038,0.0212320424616336,-0.3947405219078064
1.19667431640625,-2.722800577315688,0.8764487802699208,8.818281352207064,-0.2758671343326568,-0.0753664001822471,-0.2746668457984924
1.206700927734375,-2.6225892677649854,0.6194524794228374,8.476734106147289,-0.3910403847694397,-0.1674775034189224,-0.1554632186889648
1.21672705078125,-2.498303839665651,0.5111315862398594,8.122638344159721,-0.4340778589248657,-0.2518650889396667,-0.0335953757166862
1.226753173828125,-2.296647002594173,0.4904183954916894,7.766243657580017,-0.458967924118042,-0.254518449306488,0.0636935904622078
1.236779296875,-2.176564871403575,0.6914777050614357,7.578160295569896,-0.4998479783535003,-0.1170695275068283,0.1296965777873993
1.24680517578125,-2.2716788578152656,0.8442070642914623,7.31384475775063,-0.547516405582428,0.0246399138122797,0.1970971971750259
1.2568310546875,-1.9378896785363555,0.7313589029423893,7.070481991589069,-0.5740593671798706,0.0622141882777214,0.2800754308700561
1.266857177734375,-1.1670613003190606,0.3694173958905041,6.64305737401843,-0.5659734606742859,-0.0435240492224693,0.3387835025787353
1.276883056640625,-0.8293638615552336,0.0851425178976729,6.062080025070905,-0.5147193670272827,-0.2162508219480514,0.3844548463821411
1.2869091796875,-0.5559802703350782,-0.1762138413224369,5.565256292581558,-0.4251385331153869,-0.3653810918331146,0.4268556237220764
1.29693505859375,-0.1045924472443759,-0.328131701506488,5.050598797237873,-0.313543289899826,-0.42486572265625,0.4814746379852295
1.306961181640625,0.7390081025213002,-0.4926951082520187,4.502101576134562,-0.2066748291254043,-0.369857907295227,0.6037237048149109
1.316987060546875,1.8757105779990555,-0.7147030978262424,3.62117155879736,-0.1693871170282364,-0.2068349123001098,0.7899404764175415
1.327012939453125,2.7476638004153964,-0.8314522121366112,2.615423906180262,-0.2260707020759582,-0.0251053292304277,0.9997639656066896
1.337039306640625,3.250901491600275,-0.9278067001286894,1.6338170076072216,-0.3434348702430725,0.1244079917669296,1.1218960285186768
1.347065185546875,2.899854595789313,-0.9658527184717356,0.4216816900044679,-0.3955844640731811,0.2943181693553924,1.1483391523361206
1.35709130859375,1.952743841058016,-0.9213103969119488,-1.5445762971431016,-0.3875177502632141,0.5363411903381348,1.0998656749725342
1.3671171875,1.0824362669568508,-0.4806613369133323,-3.78527315671742,-0.3896188139915466,0.6888517737388611,0.9724562168121338
1.377143310546875,-0.1634557012319564,-0.6046186290368437,-5.904604567292332,-0.3509457111358642,0.6452611684799194,0.8303888440132141
1.387169189453125,-1.2827388398751616,-1.2808689543500542,-8.01615073081851,-0.2524354755878448,0.4058829247951507,0.807391345500946
1.3971953125,-1.64776048502475,-1.6160159779787062,-10.257686963826416,-0.1033942997455596,0.1833806037902832,0.8907389640808105
1.40722119140625,-1.957642426754534,-1.6083797840118408,-12.605104660975933,0.0301311332732439,-0.0945714637637138,0.975143015384674
1.4172470703125,-2.782081910584867,-1.566910878548026,-14.376301848316192,0.0995464250445365,-0.571603536605835,1.0733822584152222
1.427273193359375,-3.257005069172382,-1.4187743270009756,-15.36138139143586,0.1352653503417968,-0.890267014503479,1.214013695716858
1.437299072265625,-3.355240986996889,-1.00783300752379,-16.20421285652518,0.1228142902255058,-0.8387303352355957,1.390718698501587
1.4473251953125,-2.851707527735829,-0.4491161518316716,-16.602240699219703,-0.0080458577722311,-0.5166844725608826,1.518171787261963
1.45735107421875,-2.0483530636407434,0.094565120357275,-16.06598161292076,-0.2858356535434723,-0.0675916597247123,1.5076912641525269
1.467377197265625,-1.6587646941199898,0.92090254676342,-15.19300752302408,-0.6857515573501587,0.36574587225914,1.339119553565979
1.477403076171875,-1.8477838756754996,1.9243585813120003,-14.373608371448515,-1.0308634042739868,0.5975138545036316,0.9611021876335144
1.487428955078125,-2.534285253629088,2.5319945123434064,-14.240019400691985,-1.0628219842910769,0.2861481010913849,0.3840994238853454
1.497455078125,-3.0211200915455816,2.581888424064219,-14.520310506278276,-0.6692848801612854,-0.4433066248893738,-0.3038749694824219
1.50748095703125,-3.226650262919068,2.331053568456322,-14.55952257272601,0.072172038257122,-1.2379369735717771,-0.935075044631958
1.517507080078125,-2.899789713859558,1.9026815870329736,-13.687045326435564,0.873948872089386,-1.8589520454406736,-1.3256875276565552
1.527532958984375,-1.3486606340721248,1.0491084362421184,-11.201436133170128,1.4089741706848145,-2.153630256652832,-1.3937000036239624
1.53755908203125,0.7635853482864796,-0.0889409968651831,-7.41699884275496,1.4922560453414917,-2.094245672225952,-1.1775085926055908
1.5475849609375,2.752645680481195,-1.0018358860008418,-2.9030747268795967,1.1396207809448242,-1.6896510124206543,-0.7990854382514954
1.557611083984375,3.884738031814992,-1.4691792569838464,1.3869161304473876,0.5315271019935608,-1.0779335498809814,-0.3922489881515503
1.567637451171875,4.103338112641871,-1.6561892906740308,4.531810485699773,-0.1298490613698959,-0.5098381638526917,-0.0539637431502342
1.577663330078125,3.7881893364250656,-1.3999543295882642,6.361134867838024,-0.6836568117141724,-0.1093375980854034,0.1228901296854019
1.587689453125,3.1855680186852813,-1.0524901876349002,6.978872798427939,-0.9777342677116394,-0.0046513625420629,0.1033311635255813
1.59771533203125,2.380488922754675,-1.0297489251252263,6.807604962140322,-0.9372984170913696,-0.1109751388430595,-0.0419344194233417
1.607741455078125,1.7555448601782322,-0.921603242378682,6.475379086655378,-0.6064133048057556,-0.2881524264812469,-0.2372912019491195
1.617767333984375,1.290899349977076,-0.7205703824244439,6.11153174598217,-0.1249454468488693,-0.4878959059715271,-0.3919598758220672
1.62779345703125,1.01865652628988,-0.4071183271229266,6.546558070728183,0.3627971708774566,-0.6223379373550415,-0.4853114485740661
1.6378193359375,0.9892140856411308,-0.1173443037245422,7.439637375542521,0.7357745170593262,-0.6516138315200806,-0.5072537660598755
1.64784521484375,0.9804849818710236,-0.0695486794572323,8.642192963895202,0.9051485061645508,-0.5751557946205139,-0.4492388069629669
1.65787158203125,1.0190095044460148,0.0525559705369174,10.013992773753404,0.8394531011581421,-0.3809269666671753,-0.3077296018600464
1.6678974609375,1.121896536011994,0.1603721290681511,11.09736551784277,0.5757663249969482,-0.1256094425916671,-0.0914194136857986
1.67792431640625,1.292221538491547,0.0751885119751095,11.707131738901138,0.2037916928529739,0.122540183365345,0.1483220756053924
1.6879501953125,1.2402138494871555,-0.0628207594417035,11.872822651839256,-0.1629494279623031,0.3299373388290405,0.3697952330112457
1.697976318359375,1.147975418511778,-0.0852659616142511,11.6699374420166,-0.4526371657848358,0.4990336894989013,0.524778425693512
1.708002197265625,0.986967987214774,0.1226190292570739,11.16888527817726,-0.6209354400634766,0.6458346247673035,0.5908561944961548
1.7180283203125,0.6290944602541625,0.4595912955515086,10.46137413768172,-0.6575512886047363,0.7730575203895569,0.585763156414032
1.72805419921875,0.2737691199390217,0.7704993654586374,9.716522569829223,-0.5845169425010681,0.8690111041069031,0.5093691349029541
1.738080078125,-0.1252153567600529,0.9854175429023802,8.945058304861188,-0.4484177231788635,0.8711597323417664,0.3704532980918884
1.7481064453125,-0.4247365475304424,0.9992402434844524,8.31097012797296,-0.2909747660160064,0.7432852387428284,0.1944905817508697
1.75813232421875,-0.5199113242186606,0.7309435270745307,7.653685199892521,-0.1354594528675079,0.4913435578346252,0.0378178842365741
1.768158447265625,-0.4261443685017526,0.347650969762355,7.108823120421171,-0.0078537994995713,0.2001418322324752,-0.0600004643201828
1.778184326171875,-0.0791548948554322,0.0144510616134852,6.791052471268177,0.0859903991222381,-0.040246270596981,-0.1058230772614479
1.78821044921875,0.1193726129480637,-0.2070734552927315,6.734949475774169,0.1309922486543655,-0.1297681182622909,-0.1160335466265678
1.798236328125,0.2252203392168507,-0.3052924950476736,6.784243960297108,0.0981424301862716,-0.0652365386486053,-0.0625359639525413
1.808262451171875,0.5717611192476004,-0.2999029109638184,6.869539148005843,-0.0225631035864353,0.1138215065002441,0.0719697847962379
1.818288330078125,1.2428168715924024,-0.1261645929094404,6.801687262529135,-0.2118853628635406,0.3364665806293487,0.2685736417770386
1.828314208984375,1.8477374061852687,-0.0456901033554226,6.51569765304029,-0.4365993738174438,0.5418936610221863,0.4865593314170837
1.83834033203125,2.221932830132544,0.0091833503436297,5.983974456605315,-0.6324344277381897,0.7462606430053711,0.6463609337806702
1.8483662109375,2.256689524606615,-0.0014878274049609,5.048325591608882,-0.6943249702453613,0.968140721321106,0.7254680395126343
1.858392578125,2.1803430747680363,-0.1916732031956315,3.37881300124228,-0.6350477933883667,1.2114341259002686,0.777705729007721
1.86841845703125,2.057407161581516,-0.1334792998369783,1.5463888995230195,-0.5053287744522095,1.5843651294708252,0.9368159770965576
1.878444580078125,2.8100451455265283,0.3892508811946958,-0.5704916107684374,-0.4886209070682525,2.0221476554870605,1.197920560836792
1.888470458984375,3.4269606538176536,1.6233322923414408,-2.424234979370236,-0.706309974193573,2.536593198776245,1.4266825914382937
1.898496337890625,3.477840946227312,2.771643226417899,-4.165041120100021,-1.1238254308700562,2.9460935592651367,1.4803996086120603
1.9085224609375,2.6578730548530816,3.549039804044366,-5.806418918350339,-1.5587925910949707,3.11568546295166,1.3120250701904297
1.91854833984375,1.29861328535527,3.8330548985898494,-7.900413643094897,-1.7493876218795776,2.737217664718628,1.0021915435791016
1.928574462890625,0.6527731497444212,3.372326269571483,-10.8021164970994,-1.5106672048568726,1.7954308986663818,0.5758351683616638
1.938600341796875,-0.3308345672570169,2.179087960140407,-13.676280771315096,-0.8378152251243591,0.5431066155433655,0.08738424628973
1.94862646484375,-1.7643275938317178,0.7060432599000632,-15.98914270339012,0.0222276486456394,-0.8113803863525391,-0.2337541282176971
1.95865234375,-2.6747704136401413,0.4162546965196728,-16.215490621864795,0.7485736608505249,-1.8022561073303225,-0.2918824255466461
1.9686787109375,-3.002456307607889,1.278388389580697,-14.594934077847004,1.1632133722305298,-2.091423749923706,-0.2171297818422317
1.97870458984375,-2.778649890309572,1.4226147819466888,-12.277386618304252,1.2067033052444458,-1.616176962852478,-0.2513969540596008
1.98873046875,-3.466829722869396,0.8722114349611103,-10.345824681484698,0.9691755771636964,-0.5108733773231506,-0.3745726943016052
1.99875634765625,-4.543038858939707,0.4077218459740281,-10.203519320309162,0.646801769733429,0.5018489956855774,-0.3392708897590637
2.0087822265625,-3.6501612141773103,-0.571816429631412,-11.15527293241024,0.367658257484436,0.8564682602882385,-0.0625676363706588
2.018808349609375,-1.222068974857032,-1.996048729777336,-12.451388263469934,0.1535795181989669,0.6557255387306213,0.2984283566474914
2.028834228515625,0.5675732391037046,-3.097385000580549,-13.313580262589454,-0.0035803131759166,0.0112840961664915,0.5860720276832581
2.038860107421875,1.4979220979958772,-3.2880566255182027,-12.813192115616795,-0.0590465031564235,-0.8450998067855835,0.6644406318664551
2.04888623046875,1.5232348184287547,-2.7475404662966727,-11.009004512822628,0.037940364331007,-1.5661380290985107,0.4928251504898071
2.058912109375,0.7839866235412657,-1.7787173537120222,-8.43405933202505,0.2549794614315033,-1.9045741558074951,0.1418756693601608
2.0689384765625,0.2830678768232464,-0.452664491963014,-5.441831572964787,0.4965623319149017,-1.8139972686767576,-0.2819656133651733
2.07896435546875,-0.0215955996058881,0.5364074087284505,-2.62488439296484,0.7076213359832764,-1.4408718347549438,-0.645100474357605
2.088990478515625,0.2963208146933466,0.5860526063852012,-0.449212671008706,0.8551144599914551,-1.021734356880188,-0.8423659801483154
2.099016357421875,1.308808077763766,-0.0652417029783129,1.0835323185652497,0.91190505027771,-0.6983658671379089,-0.8758482933044434
2.10904248046875,1.901330756945908,-0.6657204557314514,2.39524620077312,0.8666328191757202,-0.4782428741455078,-0.8041452765464783
2.119068359375,1.9555434086486696,-0.9525185320589692,3.4264562114268537,0.7663698196411133,-0.3899585604667663,-0.7035006880760193
2.12909423828125,1.8489837529845532,-1.0417216139264405,4.208401538398862,0.6661369204521179,-0.4668786227703094,-0.633726954460144
2.139120361328125,1.3268413087129591,-0.9731865684911608,4.9756379565387965,0.574905276298523,-0.629925012588501,-0.5719541311264038
2.149147216796875,0.847929518880695,-0.7459533916145563,5.592329008424282,0.5038144588470459,-0.7959458827972412,-0.4861289262771606
2.159173583984375,0.7843358753703534,-0.220442639953643,6.214657189413905,0.4541324079036712,-0.8841705918312073,-0.3914559483528137
2.169199462890625,0.6521391626898199,0.3154727840067818,7.0076096480906,0.4283856153488159,-0.8498251438140869,-0.3042192757129669
2.1792255859375,0.5123847646387294,0.6817066910229623,7.702132127675414,0.3923287987709045,-0.7211800813674927,-0.2228745967149734
2.18925146484375,0.3822383720841258,1.137096589361876,8.382621405732632,0.3217708468437195,-0.5483840703964233,-0.160203605890274
2.199277587890625,0.1885001626500859,1.476037306185067,8.902750610485672,0.2429279536008834,-0.378949761390686,-0.1277282238006591
2.209303466796875,0.0683588120855391,1.6005333082951605,9.131091748604176,0.1748911291360855,-0.2630856037139892,-0.1092991679906845
2.21932958984375,0.0686450451483949,1.6892156542241572,9.247468303275108,0.1201439946889877,-0.2057802528142929,-0.1233116537332534
2.22935546875,-0.1829785862170159,1.750689675232023,9.273828486934304,0.0826425179839134,-0.1752313524484634,-0.1481444239616394
2.23938134765625,-0.3765587920777499,1.682480354619771,9.12374021679759,0.0639098435640335,-0.1910856962203979,-0.1447624713182449
2.249407470703125,-0.1160044699555262,1.5300646644487976,8.967793283760548,0.0641524195671081,-0.2181529700756073,-0.1102143451571464
2.25943310546875,0.1725224577249027,1.248324090706557,8.77876884150803,0.0582977198064327,-0.2274985313415527,-0.0514860525727272
2.26945947265625,0.3651954673465341,0.9736251060388982,8.593783445513248,0.0200005583465099,-0.2025500982999801,0.0240644197911024
2.2794853515625,0.5979934387434274,0.7058699491597712,8.529354520222544,-0.0607888326048851,-0.1502368301153183,0.0669799298048019
2.289511474609375,0.4035631188593804,0.5148287967899814,8.574721602168678,-0.1536859571933746,-0.0700879320502281,0.0400104224681854
2.299537353515625,0.1044457961821462,0.3527960410332307,8.570546362310647,-0.192322552204132,0.0470152534544467,-0.0487969443202018
2.309563232421875,-0.1320542537362314,0.0433954896122217,8.14696146903336,-0.1350584775209427,0.1032556220889091,-0.1250134259462356
2.31958935546875,-0.1535610242811962,-0.3228246811395511,7.491334245032071,-0.0176564734429121,0.0949580147862434,-0.1287133544683456
2.329615234375,0.2739240730387158,-0.7712173775348812,6.723468881338834,0.0896006748080253,0.0210478417575359,-0.0520777553319931
2.339641357421875,0.8830365611623973,-1.3747251957856117,5.910755491137504,0.1264811903238296,-0.0938372015953064,0.0795665606856346
2.349667236328125,1.4052378229491411,-1.7582906517550347,5.3360962392956015,0.0787858441472053,-0.1939697563648224,0.2188936471939087
2.359693359375,1.7200640892133117,-1.9317381701692935,4.771230067193508,-0.0076891263015568,-0.2778651714324951,0.3186095952987671
2.36971923828125,1.7344588175296782,-2.1045840694285927,4.051100268143415,-0.0471575520932674,-0.3962682485580444,0.3897849023342132
2.379745361328125,1.7108420873597263,-2.3554984200134874,3.107719347590208,0.0215091276913881,-0.4530870616436004,0.3816558718681335
2.389771484375,1.2582989567540586,-2.2865485101670027,1.790709697061777,0.1841312944889068,-0.3203466832637787,0.3254892826080322
2.39979736328125,0.3399913583872839,-1.7223006160937249,0.1656687011063098,0.4166186153888702,0.0890924856066703,0.3744371235370636
2.409823486328125,0.2324741645363159,-0.649740942441672,-1.8646692517638208,0.5713495016098022,0.8332865834236145,0.6100199222564697
2.419849365234375,0.4384159671843051,0.7640926402214914,-4.20230614413321,0.4274535775184631,1.8100829124450684,0.9810278415679932
2.42987548828125,0.6597110592488199,1.81233817602396,-6.73170187215507,-0.130957618355751,2.5308949947357178,1.3200194835662842
2.4399013671875,1.412098064107448,1.827729806423187,-8.99425049805343,-0.8963519334793091,2.7475106716156006,1.4663006067276
2.44992724609375,1.9325766668200488,0.6505928830958903,-11.557540896892547,-1.4302541017532349,2.395016431808472,1.316429853439331
2.459953369140625,1.816661884441972,-0.6192980195134877,-14.86163855662942,-1.3839325904846191,1.479996919631958,0.9184167981147766
2.469979248046875,1.0744283170681446,-1.2812740280196069,-17.930440436804293,-0.8110046982765198,0.3943533301353454,0.4862458705902099
2.48000537109375,0.11097703371495,-0.2660131355173886,-19.31502315586805,-0.044325366616249,-0.2261160612106323,0.0918892547488212
2.490031494140625,-0.7809121114667504,1.1149220938894897,-19.097833526360983,0.5789476633071899,-0.3430813252925873,-0.2692030370235443
2.5000576171875,-0.5470293405078351,0.3383523224759847,-17.539423349654673,0.8718498945236206,-0.2847391963005066,-0.5126412510871887
2.51008349609375,0.81385839551799,-1.4588874339416622,-15.312979471838473,0.8063499331474304,-0.0602916777133941,-0.6237276196479797
2.520109619140625,1.5491101411804555,-2.702610606724024,-13.335622583049537,0.5553121566772461,0.2668597996234894,-0.5942102074623108
2.530135498046875,1.7913988483697174,-3.1367718390733,-12.044938629388808,0.2837312519550323,0.4719981551170349,-0.4368849992752075
2.540161376953125,2.309179298039526,-3.0064819098621607,-10.991162566661837,0.0576991997659206,0.4865669906139374,-0.2966144382953644
2.5501875,2.089547828338295,-2.5352023684740064,-9.6557673646152,-0.1130044311285018,0.3606595396995544,-0.2289296686649322
2.56021337890625,1.1742844565056263,-1.8048796767115591,-7.9716323746562,-0.2154969871044159,0.1895088404417038,-0.2171169519424438
2.5702392578125,0.5238362425774336,-1.1321411589115855,-6.201333597460389,-0.2190866321325302,0.0876625031232833,-0.2789272964000702
2.58026513671875,0.0959546750195324,-1.0599532900571822,-4.571088603121042,-0.1407713294029235,-0.0070850425399839,-0.3827032446861267
2.590291015625,-0.2130462460920214,-1.3399784381836652,-2.9268565844833847,-0.0138867255300283,-0.0702194422483444,-0.4513647258281708
2.600317138671875,-0.1544734994836151,-1.2322662514835596,-1.1961691021859646,0.1268706619739532,-0.1171326264739036,-0.4799947738647461
2.61034423828125,-0.0295129486016929,-0.9649236209280788,0.4762438857972622,0.2528684139251709,-0.1933803409337997,-0.5234932899475098
2.6203701171875,-0.2089171834632754,-0.9104586749646812,2.1382097140461207,0.3439415693283081,-0.3094403445720672,-0.561049222946167
2.63039599609375,-0.6102697136010974,-0.8059215381041168,3.842560393559933,0.3954487144947052,-0.4374843239784241,-0.5872815847396851
2.640422119140625,-1.1716161140792072,-0.3868978517951443,5.494376583716273,0.4036776125431061,-0.5324097871780396,-0.6173607110977173
2.650447998046875,-1.8941645185783504,0.1270311100782826,6.972035645884275,0.3807372450828552,-0.5976282358169556,-0.5887418389320374
2.66047412109375,-2.110697583872825,0.4556270315630361,8.06907801888585,0.3356190323829651,-0.6173750758171082,-0.5140221118927002
2.6705,-2.036063052518666,0.5652950650386512,8.915649839547276,0.2739992439746856,-0.555833101272583,-0.4522156715393066
2.680526123046875,-2.123482977296412,0.4203789368428289,9.594606501209736,0.185187891125679,-0.4573560357093811,-0.3977873027324676
2.690552001953125,-1.9940841517060997,0.4611608098905533,10.204384412705895,0.0885116159915924,-0.3107993602752685,-0.3385205864906311
2.700577880859375,-1.6977324304178356,0.6838187147408723,10.569812300568818,0.0032438598573207,-0.2185189723968505,-0.2458636164665222
2.710604248046875,-1.2406947648718951,0.6563108223512768,10.739993510663508,-0.0714239850640297,-0.2064577788114547,-0.1291045099496841
2.720630126953125,-0.87405370182693,0.6203081464041024,10.94620581908226,-0.1478721499443054,-0.1921904236078262,-0.0226401202380657
2.73065625,-0.8100326997499913,0.7866575963161885,10.977861186540126,-0.2411358505487442,-0.1615865379571914,0.0570155791938304
2.74068212890625,-0.833112181238085,0.9589126900754869,10.905532447910309,-0.3483664393424988,-0.1874690055847168,0.1234121769666671
2.750708251953125,-0.6268549376990645,0.9246958015665412,10.85441016343832,-0.4594820141792297,-0.2412242591381073,0.1476338803768158
2.760734130859375,-0.4997602973978966,0.8157054116241633,10.673665473753212,-0.5307985544204712,-0.2551576793193817,0.1379900425672531
2.770760009765625,-0.4962346805550158,0.7428627321228385,10.25238768837452,-0.5177218317985535,-0.2232479453086853,0.1100207194685936
2.7807861328125,-0.4213887714724987,0.7717980269670486,9.790059515205025,-0.4175044298171997,-0.1669599115848541,0.0453149639070034
2.79081201171875,-0.3143577719695866,0.7427493348762393,9.34232042388022,-0.2721180915832519,-0.1114616766571998,-0.0466487444937229
2.800838134765625,-0.0982698931593447,0.5749032897308468,8.954791763368249,-0.1405557841062545,-0.0628957375884056,-0.143881544470787
2.810864013671875,-0.0236190682575106,0.3516148684246465,8.567621414774656,-0.0725541710853576,-0.0050460174679756,-0.2217545807361602
2.820890380859375,-0.0477066308096051,0.1198132511213421,8.270937392792105,-0.0695655718445777,-0.0111286779865622,-0.2247418463230133
2.830916259765625,0.3408043187379836,-0.3167134682502597,7.897811351642012,-0.1004753038287162,-0.129304364323616,-0.1733322739601135
2.8409423828125,0.8165520915813743,-0.8879578701473771,7.342873868358135,-0.1191930621862411,-0.2789588272571563,-0.0917649716138839
2.85096826171875,0.9957049820303916,-1.3903443513303997,6.77476418429017,-0.1290326714515686,-0.3585817217826843,0.0364269129931926
2.860993896484375,1.2049095310676845,-1.4916267972439528,6.315480201122164,-0.141816109418869,-0.3599737584590912,0.1413969993591308
2.87102001953125,1.1333633941829204,-1.3684633589118718,5.921074056056142,-0.1429309397935867,-0.2916823327541351,0.1780288964509964
2.8810458984375,0.7549182769019156,-1.1593187964335083,5.248692096608877,-0.1324870884418487,-0.1374450922012329,0.1721955090761184
2.891072021484375,0.5476360011640936,-0.7887270960666238,4.10491544496119,-0.1080657318234443,-0.0372382067143917,0.1293792724609375
2.901097900390625,0.3012560791384429,-0.3076840663593262,2.7039573451578613,-0.0411804392933845,0.0132670467719435,0.0277205426245927
2.9111240234375,-0.0450810315463691,-0.0996154625494033,0.8045043647825717,0.1309251636266708,0.009811284020543,-0.0966636762022972
2.92114990234375,-0.5952342031631619,0.1225689795702695,-1.6934546069681644,0.3925674259662628,0.1494237780570984,-0.1423581838607788
2.931176025390625,-1.1885960365831851,0.8438440761979669,-4.575159213560819,0.5421347618103027,0.5758140683174133,0.0150885228067636
2.9412021484375,-1.272669719672948,1.8277714536078276,-7.69542473899126,0.3535560667514801,1.1577472686767578,0.3756616115570068
2.95122802734375,-0.7443931565605103,2.3901512157216667,-10.525518400812148,-0.2189668416976928,1.6265177726745603,0.855134904384613
2.961254150390625,0.4299550858963281,2.3460569301903247,-13.03423023724556,-1.0041242837905884,1.718061089515686,1.2661666870117188
2.971280029296875,1.789568125811219,1.8202777368515728,-15.434632505607604,-1.660732626914978,1.1723828315734863,1.3491005897521973
2.98130615234375,1.422675426092744,1.0141571690440176,-17.4486552834928,-1.8317115306854248,0.2038203477859497,1.0907704830169678
2.99133203125,-1.1689999402314424,1.9446335998386144,-18.92504184150696,-1.3377164602279663,-0.5524131059646606,0.6701239347457886
3.00135791015625,-3.45642435645014,3.824963069809973,-20.49835265022516,-0.3746484816074371,-0.9191029667854308,0.1771403402090072
3.011384033203125,-4.208906273050606,3.5922312955170868,-21.23112098157406,0.5252310037612915,-0.993090271949768,-0.2231951057910919
3.021409912109375,-4.108118624916672,2.288829022319615,-20.28169610468149,1.029551386833191,-0.9278907179832458,-0.2950586378574371
3.03143603515625,-2.666490368811786,0.8447012775491922,-18.029858257889742,1.1390460729599,-0.8854368925094604,-0.0606185495853424
3.041462158203125,-0.7515920550886541,-0.7452015503339469,-15.162931533712149,0.9676002860069276,-0.9007428884506226,0.3389823734760284
3.05148828125,0.9546396158661692,-1.6736296702966094,-12.09659633591175,0.6581029891967773,-0.7997889518737793,0.7459231615066528
3.06151416015625,1.831290421514213,-1.7269681695133448,-8.976609042900801,0.3405924141407013,-0.4810825884342193,1.0602903366088867
3.0715400390625,2.234970006360113,-1.1111370223928243,-6.014436814886332,0.0716202780604362,0.0100821852684021,1.2085987329483032
3.081566162109375,2.522565882001817,-0.3554883853897452,-3.5300095248818395,-0.1840410679578781,0.5041901469230652,1.0885958671569824
3.091592041015625,2.0094494786202906,0.3986856490161269,-1.525675197318196,-0.360321432352066,0.8118848204612732,0.7410176992416382
3.1016181640625,1.238375089752674,1.0761752338007091,-0.91198800342381,-0.3242750167846679,0.704835832118988,0.3096580505371094
3.111644775390625,1.0925178082492202,1.3854671006828545,-1.188797696635127,-0.0872231647372245,0.2571977078914642,-0.1355318874120712
3.121671142578125,0.7703582764875143,1.4361518705204128,-1.1601590466499327,0.2435957640409469,-0.3185942471027374,-0.5570895075798035
3.131697021484375,0.2764206938937306,1.614595005264878,-0.2778290993869304,0.5680857300758362,-0.8190956711769104,-0.9672340750694276
3.14172314453125,-0.2558553871836513,1.458698779501766,1.145898466107249,0.8284052014350891,-1.241236448287964,-1.3111424446105957
3.1517490234375,-0.5273672297151759,0.7272186613325029,2.838708929952979,0.9751929640769958,-1.5524994134902954,-1.4589035511016846
3.161775146484375,-0.2531722125142812,0.2130073753863573,4.970527481657267,0.9830777645111084,-1.5938133001327517,-1.4178704023361206
3.171801025390625,-0.1937730798180215,-0.1769446398150175,7.198751228627562,0.8817389607429504,-1.385305643081665,-1.2202504873275757
3.181826904296875,-0.2667893257879652,-0.800294638133049,9.195047211164235,0.653881847858429,-1.008436679840088,-0.878385603427887
3.19185302734375,-0.1861813643136993,-1.1965648235052824,10.863760175585746,0.2887821495532989,-0.4926301538944244,-0.4805195331573486
3.20187890625,-0.1859135984892956,-1.350846161417663,12.038806994765997,-0.1647978723049163,0.0246662460267543,-0.1210196912288665
3.211905029296875,-0.4114101060327142,-1.3941462278313934,12.650828301274776,-0.5743280053138733,0.4155707061290741,0.1542518734931945
3.221930908203125,-0.6478684996332973,-1.3522465297348796,12.22244974398017,-0.8069812059402466,0.5875030755996704,0.4008906781673431
3.231957275390625,-0.3582805733915418,-1.052058956610784,11.17750113083124,-0.8491126894950867,0.6389803886413574,0.5847353935241699
3.241983154296875,-0.1639363791546784,-0.3188461328973993,10.224922173821923,-0.7689067721366882,0.6581996083259583,0.6461840867996216
3.252009033203125,-0.2981283755719661,0.5591589369038119,9.573943067887424,-0.6510131359100342,0.6642096042633057,0.5788485407829285
3.26203515625,-0.2662230519410222,1.1518803900610657,9.104180360803008,-0.5395321249961853,0.6131328344345093,0.3900456428527832
3.27206103515625,-0.297088949521631,1.4110083691745996,8.767351375436782,-0.4479468166828155,0.5180550217628479,0.1268550306558609
3.282087158203125,-0.3212549110721797,1.4627140064924955,8.460385613414644,-0.3517430424690246,0.4038573503494262,-0.1367734223604202
3.292113037109375,-0.1503456058986484,1.3533107979655266,8.087340820807219,-0.2491428405046463,0.2551867961883545,-0.3571142256259918
3.30213916015625,0.2146502106899395,1.1431845309734343,7.8240540415138,-0.1692171245813369,0.08653574436903,-0.5024315118789673
3.3121650390625,0.7173179564997554,0.7482393105946481,7.564686481490731,-0.1436042189598083,-0.049618687480688,-0.5656989812850952
3.32219091796875,1.1156216935262084,0.2350765107881277,7.487652341648936,-0.1844310015439987,-0.1248713657259941,-0.5574700832366943
3.332217041015625,1.3706896566592155,-0.1451225374881178,7.633592844456434,-0.2746315896511078,-0.1230754628777504,-0.5239500403404236
3.3422431640625,1.355730718588829,-0.4976056766472757,7.743785742056369,-0.3674262166023254,-0.060930598527193,-0.4845342338085174
3.352269287109375,1.1917223519101738,-0.853707883086428,7.588274862349033,-0.4008017778396606,0.0196369513869285,-0.4020731747150421
3.362295166015625,1.32553431776762,-1.0655712030041962,7.111849190244079,-0.3704012334346771,0.1269157379865646,-0.2655752301216125
3.3723212890625,1.5424293482422828,-1.2094698247205464,6.3705643749624485,-0.3319748640060425,0.1967017650604248,-0.1013988628983497
3.38234716796875,1.7963342589452862,-1.4208416347943245,5.630280845677852,-0.3279156684875488,0.2635649442672729,0.0299493037164211
3.392373291015625,1.7171746513821184,-1.495671688720584,4.863030983534455,-0.359809935092926,0.3219357430934906,0.0698088556528091
3.402399169921875,1.1665868146751075,-1.4666162746280431,3.921363881161809,-0.3884136080741882,0.3186073303222656,0.0943211168050766
3.412425048828125,0.7397782101109623,-1.5995584719136355,2.6261720946878198,-0.379219114780426,0.333971232175827,0.1947284340858459
3.422451171875,0.8276522353317588,-1.649795497983694,0.6917109292954206,-0.3162755668163299,0.3880171775817871,0.3697535097599029
3.43247705078125,0.6777806036204099,-1.1570355808671564,-1.6686942597210406,-0.1948858052492141,0.5974640846252441,0.5638889670372009
3.442503173828125,0.1708944729305803,0.0203122817970812,-4.640895129796863,-0.0700003281235694,0.9716920256614684,0.7649642825126648
3.452529052734375,-0.2323256777100265,1.7731445220157502,-7.752554739445447,-0.0618779510259628,1.366668939590454,0.8838751316070557
3.46255517578125,-0.7132651009123772,3.649094753989577,-10.375286922812462,-0.225457563996315,1.6263806819915771,0.9118977189064026
3.4725810546875,-0.6287457198817282,4.904702718093991,-12.701534406161308,-0.5222665071487427,1.6412228345870972,0.9617711305618286
3.48260693359375,0.9273550839036704,5.284484125480056,-14.6198206818223,-0.8378984928131104,1.416703224182129,1.00042462348938
3.492633056640625,2.939940230201185,4.579017058032751,-16.112528260040282,-1.0833871364593506,0.839171290397644,0.8668644428253174
3.502658935546875,2.978690232095122,3.72169412625432,-16.56841792459488,-1.120579481124878,0.1068171560764312,0.4635049998760223
3.51268505859375,0.8338074700258672,4.067062976428866,-16.58678827854395,-0.6964184641838074,-0.3659505844116211,-0.1138475090265274
3.5227109375,-1.6931714061126113,5.191468572652339,-17.51716007992029,0.1578450798988342,-0.4843629896640777,-0.6641900539398193
3.532737060546875,-2.845732837240398,5.118642990416288,-18.362431339377164,1.0775538682937622,-0.5593973994255066,-1.0135730504989624
3.542762939453125,-2.0798213840939104,3.414876248270273,-17.61513062480688,1.6653366088867188,-0.6125860214233398,-1.126333475112915
3.552788818359375,-1.4298032321460543,1.2310606750860809,-15.468983688020703,1.7765485048294067,-0.5446497201919556,-0.9585386514663696
3.562815185546875,-0.578136864824593,-0.6307867241900413,-12.777989869332313,1.5180716514587402,-0.3933667242527008,-0.5012107491493225
3.572841064453125,0.6322549701116978,-1.9359832603931424,-10.152960514938831,0.9566783905029296,-0.1808635741472244,0.1527205258607864
3.5828671875,1.3395643044248222,-2.327993157972396,-7.584479561719298,0.2124108970165252,0.1122500449419021,0.8003549575805664
3.59289404296875,1.6701292609602212,-1.8613810238733888,-5.376854950663447,-0.4585888981819153,0.4541972577571869,1.2276129722595217
3.602920166015625,1.1939864974498748,-1.0897118109177797,-3.3845617740273477,-0.8704635500907898,0.7726431488990784,1.3453965187072754
3.612946044921875,0.2090070537038147,0.0969422978173941,-2.137201413786411,-0.9219455122947692,0.8952054977416992,1.099745512008667
3.62297216796875,-0.7658633762210607,1.1089265798017385,-1.4449854575783014,-0.6334178447723389,0.6659947037696838,0.5444535613059998
3.632998046875,-1.5264217779017983,1.474175603966415,-0.7152379353553057,-0.1367027461528778,0.199187234044075,-0.1126749962568283
3.643024169921875,-1.6660988364003595,1.5276327611267566,0.1692372072428464,0.4283598661422729,-0.3831627368927002,-0.655971884727478
3.65305029296875,-1.049869849068671,1.0299422557402402,1.3135598023355006,0.8909962177276611,-0.9375483989715576,-0.9887775182724
3.663076171875,-0.3230025584571063,0.1601340825285762,3.1772792060285804,1.1275488138198853,-1.230474829673767,-1.0909773111343384
3.673102294921875,0.128952981518954,-0.4509125337291508,5.611451642045378,1.0880109071731567,-1.200139403343201,-0.9973371624946594
3.6831279296875,0.3959070511482656,-0.8164311686154454,8.02996941281259,0.8110854029655457,-0.9260919094085692,-0.7814730405807495
3.693154052734375,0.372273442908749,-1.329176473662257,9.941405676448344,0.4175538122653961,-0.5035191178321838,-0.538672149181366
3.703179931640625,0.1446015823539346,-1.5138444742709398,11.138019015270473,0.0671302750706672,-0.0804280787706375,-0.3158699870109558
3.7132060546875,-0.1503781199287623,-1.387819801288843,11.285285798245669,-0.1561511904001236,0.1868553310632705,-0.0960288345813751
3.72323193359375,-0.1461856366749852,-1.1147525825414806,10.642871691560744,-0.2409068197011947,0.2313450425863266,0.0769458711147308
3.7332578125,-0.3548013529736548,-0.8040477070562541,9.824772516667842,-0.2186648249626159,0.1340706646442413,0.1623577773571014
3.743283935546875,-0.6644862377613783,-0.3705520990088581,9.114980571758746,-0.1505749970674514,-0.0219926983118057,0.1491785943508148
3.75331005859375,-0.9203606949716806,0.2088243906132876,8.71707430961728,-0.0662613660097122,-0.1815309375524521,0.0963173881173133
3.763336181640625,-0.8971184241373091,0.6749195881661028,8.487658235743641,0.0227819643914699,-0.3083059191703796,0.0499179325997829
3.773362060546875,-0.663895943718031,0.9287822671625764,8.499499480184912,0.0866487398743629,-0.3220719993114471,-0.0061165378428995
3.78338818359375,-0.6691349403500556,1.1628601223021744,8.789127738437056,0.1107601970434188,-0.2388221174478531,-0.0544052384793758
3.7934140625,-0.7085459634359925,1.39490332980901,9.133665983006358,0.1009654253721237,-0.1298377513885498,-0.0678060203790664
3.803440185546875,-0.5995734744764865,1.2352449750334025,9.219203747299312,0.0450196042656898,-0.0327210538089275,-0.0306698363274335
3.813466064453125,-0.5608346515636891,0.9356987685527652,9.31460239587128,-0.0388497337698936,0.0551192201673984,0.0548747032880783
3.823491943359375,-0.4215664661269634,0.6099405547119676,9.284102043667437,-0.1426749229431152,0.1216553673148155,0.1424974948167801
3.83351806640625,-0.5445122431203723,0.3041015316974371,9.225449363690617,-0.239559069275856,0.1771895587444305,0.1943169981241226
3.8435439453125,-0.7410650350511073,0.0670990943480283,8.984358049592375,-0.322027325630188,0.1842115074396133,0.2259439080953598
3.853570068359375,-0.7630639547608792,-0.1464366888266056,8.642638954097032,-0.3967432081699371,0.1550548821687698,0.241555854678154
3.86359619140625,-0.8266005343217402,-0.3510414889834821,8.234808094790578,-0.4491401016712188,0.0880862325429916,0.2350465506315231
3.873622314453125,-0.9120404642634092,-0.592571194498986,7.667873884242772,-0.4415795505046844,0.0175486579537391,0.2678956389427185
3.883648193359375,-0.5485008743651211,-0.9061204265646636,6.903377704721689,-0.3959793150424957,0.003589432220906,0.3504706919193268
3.893674072265625,0.130435255965963,-1.1569974408138544,6.207369370493293,-0.3731541633605957,0.0679447203874588,0.4530969262123108
3.9037001953125,0.5801034156572074,-1.2920844681084156,5.646330063202977,-0.4141189157962799,0.1345320045948028,0.543193519115448
3.91372607421875,1.0964011524885893,-1.4475035778790712,4.930234049713612,-0.4939806163311004,0.108639195561409,0.5790111422538757
3.923752197265625,1.3339718912452458,-1.7219133703418077,3.81252006008327,-0.5263987183570862,0.0308221634477376,0.5403206944465637
3.933778076171875,1.1761625984024255,-1.828201077196747,2.462753218334913,-0.4165183901786804,0.0308732651174068,0.4184420704841614
3.94380419921875,0.4782242459595203,-1.671131423740089,0.6897516119211912,-0.151116281747818,0.2570235729217529,0.2967774271965027
3.953830078125,-0.3719797937244176,-0.992506259054318,-1.7979191900491711,0.1433183848857879,0.7596220374107361,0.2901919186115265
3.96385595703125,-0.4376997817389667,-0.0304384659487754,-5.101069339802861,0.1777959465980529,1.3590974807739258,0.4189008772373199
3.97388232421875,0.0789319362871348,0.6606068390447646,-8.350794188839197,-0.1693403571844101,1.734257459640503,0.5906044244766235
3.983908203125,0.8206288395009934,0.7111655713498592,-11.498307786679268,-0.7235074639320374,1.6321468353271484,0.706609845161438
4.0014541015625,2.249426401735842,-0.9864882408738136,-17.642904766917226,-1.2094935178756714,0.4114818572998047,0.6241051554679871
4.01147998046875,2.02124717618078,-1.4773993883185088,-19.640964251995086,-0.8791738748550415,-0.6204949021339417,0.4113730490207672
4.021506103515625,0.7389644095100462,-0.0783360162205994,-18.96576898869276,-0.2062450349330902,-1.262656569480896,0.1660708785057068
4.031531982421875,-0.5645682120688259,2.578993579405546,-17.338574614095688,0.4715142846107483,-1.2071309089660645,-0.066946655511856
4.041557861328125,-0.6642242258243263,3.4361154356539245,-15.170545515847206,0.8788980841636658,-0.8103249669075012,-0.3588474988937378
4.051583984375,-0.6714278735928237,2.412430121416598,-12.817917390573024,0.9375455975532532,-0.2981912791728973,-0.6626244783401489
4.06160986328125,-0.7866885759763419,1.9117191722303628,-11.734791314721107,0.8128681182861328,0.2015250474214553,-0.8289820551872253
4.07163623046875,-0.5383829465851188,1.6730460251897572,-11.973914543616772,0.6914361715316772,0.3963636457920074,-0.8072350025177002
4.0816630859375,0.2970955253928899,0.8490032855920493,-11.982646131604907,0.6093428730964661,0.2172511368989944,-0.64033442735672
4.091689208984375,0.931148923228681,0.1383480018518865,-11.26754555889368,0.5494586229324341,-0.1906022429466247,-0.4723485112190246
4.101715087890625,0.9530860297486186,-0.0918173560190945,-9.548052839827536,0.5463405847549438,-0.6525073051452637,-0.3952731490135193
4.1117412109375,0.8544286716416478,-0.0962008318003267,-7.211867315310239,0.5980755090713501,-1.046599507331848,-0.4267010688781738
4.12176708984375,0.6819157306637614,0.1453949246887117,-4.419017634734511,0.6578616499900818,-1.3043715953826904,-0.4741990864276886
4.13179296875,0.7934173727747053,0.3995123821638524,-1.4748650475353002,0.6822094321250916,-1.3836071491241455,-0.5414669513702393
4.141819091796875,0.544862517862767,0.618063947673887,1.5687158821433782,0.6586809158325195,-1.2556270360946655,-0.6416641473770142
4.151844970703125,0.230782247660309,0.5797745490290224,4.033164798480272,0.6359556913375854,-0.9910075664520264,-0.6741558909416199
4.161871337890625,0.5964568037606776,0.4257483549214899,5.859747772955894,0.6132192015647888,-0.7125508785247803,-0.603309690952301
4.171897216796875,0.8128253261432051,0.1388565358959138,7.219690556281805,0.5502163171768188,-0.4569601714611053,-0.4911232590675354
4.18192333984375,0.6529268790014088,0.0129146092938259,8.39474497424662,0.4186143577098846,-0.2602090239524841,-0.3737377822399139
4.19194921875,0.598410933503136,0.0021289748527109,9.127847067594528,0.2399741113185882,-0.1542537063360214,-0.2699260711669922
4.201975341796875,0.4440815917305648,-0.1844802229516208,9.4092557790339,0.0358223095536232,-0.1043444648385047,-0.1638084203004837
4.212001220703125,0.3721752797638997,-0.3424571639789268,9.51104442090392,-0.1268828958272934,-0.0807862132787704,-0.0308743864297866
4.22202685546875,0.2457096215486526,-0.3200744691159576,9.58396995638311,-0.2235436588525772,-0.0467685870826244,0.0816244632005691
4.232052978515625,-0.2633399342527613,-0.1530018194958567,9.656662267628311,-0.2513080835342407,0.0303362924605608,0.1416505724191665
4.242078857421875,-0.6712151076249778,0.1761494708493352,9.630103931048511,-0.2239864319562912,0.1309318840503692,0.1437733769416809
4.25210498046875,-0.8722245867036282,0.47275801644288,9.516094105508923,-0.1826380938291549,0.2310324758291244,0.1147641390562057
4.262130859375,-0.8992975217420607,0.6158312201857566,9.47161725040078,-0.1726283431053161,0.3041183948516845,0.0959843248128891
4.2721572265625,-0.8256333697900176,0.6564996959868818,9.404587787222862,-0.2000457793474197,0.366618812084198,0.0872111618518829
4.28218310546875,-0.775485337177664,0.6078948011633009,9.186688548141715,-0.2520016729831695,0.4167078137397766,0.0683392062783241
4.292208984375,-0.8609018862437456,0.4710623184408992,8.782733068963886,-0.3105767071247101,0.415748119354248,0.0472238399088382
4.302235107421875,-0.7495335881888866,0.1971381906032562,8.184840825572609,-0.3483996987342834,0.3265034556388855,0.0474984124302864
4.312260986328125,-0.6047578913770616,-0.0575317861881107,7.655305494570731,-0.353471040725708,0.1941588968038559,0.0468933023512363
4.322287109375,-0.7001620198417454,-0.2621016611620784,7.29830875044465,-0.3425315618515014,0.0443262681365013,0.0178009308874607
4.33231298828125,-0.7478617825191467,-0.5050569425012916,7.109610471406579,-0.3179235756397247,-0.0624842345714569,-0.0354936756193637
4.342339111328125,-0.5347840453103184,-0.7833821548420935,6.947921195325255,-0.2794968485832214,-0.0891648456454277,-0.0527328476309776
4.352364990234375,-0.1953092216104268,-0.9006022476650773,7.017954516494274,-0.2803214788436889,-0.0574991442263126,-0.0226391684263944
4.362390869140625,0.1233278351135551,-1.0021315079465507,7.0898419410973785,-0.3201573193073272,0.0194568894803524,0.0128152295947074
4.3724169921875,0.3398110699169338,-1.047295395470783,7.023349069014191,-0.3770147860050201,0.0968867614865303,0.0263146217912435
4.382443115234375,0.6454284130048007,-1.1252340098716318,6.778641902506351,-0.4535020887851715,0.1233958601951599,0.0415340550243854
4.39246923828125,1.0532549614623188,-1.3935460699811577,6.296930398952961,-0.5115861296653748,0.0802000686526298,0.0740579888224601
4.4024951171875,1.286577979646623,-1.606047833932936,5.623240864038468,-0.488699734210968,0.0085799479857087,0.0877594202756881
4.412521240234375,1.0072388410229236,-1.4971630963221192,4.6122558952897785,-0.3893044292926788,-0.0664567574858665,0.0561188720166683
4.422547119140625,0.6334127618446945,-1.1189592404510824,3.4179672000229355,-0.229877769947052,-0.0515848658978939,-0.045602161437273
4.432572998046875,0.0433338225528597,-0.6280646788150072,1.7866168747901916,0.0022015199065208,0.1355269253253936,-0.1588622331619262
4.44259912109375,-0.3605307634711265,0.0992109003365039,-0.4753612577438354,0.2661982774734497,0.5672626495361328,-0.2118125408887863
4.452625,-0.5080386617258191,0.9152231128875166,-3.68023574218452,0.436290979385376,1.1691409349441528,-0.183110773563385
4.462651123046875,-0.3927661227740347,1.437956143463403,-7.430185656586289,0.3282068371772766,1.656229853630066,-0.0478927679359912
4.472677001953125,0.3013893501292914,1.133183726767078,-10.99156471772194,-0.1083620712161064,1.6307473182678225,0.1803866922855377
4.482703125,1.399003312473744,0.1005212522827088,-14.318623566329478,-0.6273764967918396,1.0119658708572388,0.4339041709899902
4.492729248046875,1.7919588203400372,-0.9844097540993244,-17.064108853662013,-0.8572618365287781,0.1173508167266845,0.615816593170166
4.50275537109375,1.86185843212679,-1.1840030097045005,-18.989132328623533,-0.6263705492019653,-0.6502757668495178,0.6652970314025879
4.51278125,1.8473899079218503,-0.546443941835314,-19.21035399012565,-0.1330778747797012,-1.39201021194458,0.527757465839386
4.52280712890625,1.0184580811083317,0.7163131633713841,-16.864024672734736,0.4390452802181244,-1.9581609964370728,0.1961965560913086
4.532833251953125,-0.949083954500407,3.1529443907171486,-14.143428327465056,1.0290228128433228,-1.7379095554351809,-0.2559096813201904
4.542859130859375,-2.649302210384607,5.324463669168948,-12.519706012892724,1.4571062326431274,-0.8483417630195618,-0.6996445059776306
4.55288525390625,-2.292790034905076,4.948855748075246,-11.035179403042791,1.5614415407180786,-0.0534626431763172,-1.0080245733261108
4.562910888671875,-0.9020163522467016,2.620167885836959,-10.171246697735786,1.4174848794937134,0.5602588057518005,-1.1382359266281128
4.57293701171875,-0.0697708708405494,0.502939877282083,-10.641000052469968,1.1310362815856934,0.8988754749298096,-0.9649963974952698
4.582962890625,1.2160706842903046,-0.82749390296489,-11.061639539945125,0.7141580581665039,0.8574348092079163,-0.476153701543808
4.59298876953125,2.1683169752791525,-1.628954808398336,-10.602948846495153,0.2248767167329788,0.5550042390823364,0.0980042517185211
4.60301513671875,1.9714859509289264,-1.5466634786807,-9.067121088474988,-0.1763380914926529,0.1066911667585372,0.469097375869751
4.613041015625,1.0604331825286148,-0.7105488276910037,-7.266460490763187,-0.3280490636825561,-0.3683941662311554,0.4588603377342224
4.623067138671875,-0.3137896166928112,0.1934007941732183,-5.152962024125457,-0.2132647037506103,-0.7188701629638672,0.0984742119908332
4.633093017578125,-1.644403868073225,1.0993624865122138,-2.640073194268345,0.0704306215047836,-0.8660255670547485,-0.4077076315879822
4.643119140625,-1.9330311325892804,1.5989596292376518,-0.2764379372894763,0.3890805244445801,-0.9464370608329772,-0.8193085193634033
4.65314501953125,-1.2999990406252444,1.3517065776392816,2.0846564030349253,0.5972207188606262,-0.9776235222816468,-1.0513181686401367
4.6631708984375,-0.7536164005231112,0.7158136894166469,4.303582160305977,0.6218352317810059,-0.8901429772377014,-1.0930967330932615
4.673197021484375,-0.4264868617964908,0.2092381955785676,6.189111244747043,0.4917860031127929,-0.7337164878845215,-1.016006588935852
4.683222900390625,-0.4161043647961691,-0.1828435616604983,7.537493938660621,0.3027859926223755,-0.5479902625083923,-0.8749474287033081
4.6932490234375,-0.2403116714952513,-0.6276647197119891,8.176704865390063,0.1402491331100464,-0.4015550017356872,-0.6632086634635925
4.703275146484375,-0.0214362443257123,-0.8855275011952966,8.605066471549868,0.018388744443655,-0.2845951020717621,-0.4077270925045013
4.71330126953125,0.1071822445418685,-0.9101433984704316,8.947076074424386,-0.0911499112844467,-0.1622324883937835,-0.1729929149150848
4.7233271484375,-0.0367375478266738,-0.6731195530068129,9.426626016029717,-0.2066413611173629,-0.0119449812918901,-0.0198885966092348
4.733353271484375,-0.298742105289828,-0.1447624354714527,9.780749250546098,-0.2951394021511078,0.1503541618585586,0.0327171459794044
4.743379150390625,-0.4230740211457013,0.3077695161530748,9.762577049517631,-0.3136520981788635,0.2541186213493347,0.0193672534078359
4.753405029296875,-0.2782365476766601,0.583707650694251,9.522257304313776,-0.2573910653591156,0.270621657371521,-0.0144686866551637
4.76343212890625,-0.1028103861331939,0.8278866286095231,9.291949834558368,-0.1663173586130142,0.2371515780687332,-0.0543497912585735
4.7734580078125,-0.0172451493114233,1.0827954556580632,9.216420838582517,-0.1008272171020507,0.1851691901683807,-0.1125677824020385
4.783484130859375,0.0232811780726537,1.166576950868219,9.297046280914545,-0.0792167335748672,0.1301416158676147,-0.1843317300081253
4.793510009765625,0.0675508567035198,1.1284021185137332,9.344046517020464,-0.1029023975133895,0.0766391903162002,-0.2541839182376861
4.8035361328125,0.0642328181967139,0.9897805604174732,9.41128582355678,-0.1686260253190994,0.0552215203642845,-0.2990150451660156
4.81356201171875,0.0051432446399703,0.7146797169506549,9.37229061473012,-0.2633822560310364,0.052436850965023,-0.2672949731349945
4.823588134765625,0.1855930430317297,0.3343723494617268,9.087823100242018,-0.364650547504425,0.053358569741249,-0.1386493742465973
4.833614013671875,0.349184864798747,0.0069048109523952,8.651285786411165,-0.4352923929691314,0.0315748453140258,0.0140278600156307
4.843639892578125,0.287060234395042,-0.2704149506729096,8.285653315886854,-0.4595676362514496,-0.0232567116618156,0.1520088911056518
4.853666015625,0.1884899335170164,-0.3890487827513367,8.09496415529251,-0.4656011462211609,-0.036362525075674,0.217654138803482
4.86369189453125,-0.1300310225466266,-0.2264415881074964,8.034230577388405,-0.461822897195816,0.0504634492099285,0.2244116514921188
4.873718017578125,-0.1517633272094652,-0.2195753555998206,7.85829650285542,-0.4481146037578583,0.1709897220134735,0.2490492761135101
4.883743896484375,0.1499428703166544,-0.2556207747101783,7.50439246404767,-0.4269329011440277,0.3003801703453064,0.3047032356262207
4.89377001953125,0.6396043099611998,-0.2555238902069628,6.849974615836143,-0.409958004951477,0.3416520357131958,0.3675793409347534
4.903796142578125,0.8405278643220663,-0.3310167188908904,6.201081084004044,-0.431439071893692,0.3223499655723572,0.3718278706073761
4.913822265625,0.6808017780724912,-0.4446479934416711,5.385139963927864,-0.5036978721618652,0.2549070715904236,0.3859706223011017
4.92384814453125,1.0509897930093108,-0.4451894799072295,4.75956885549426,-0.6142736673355103,0.1299459487199783,0.431898683309555
4.9338740234375,1.154516656848788,-0.5401988369006663,4.239447249525785,-0.6901474595069885,0.0112306773662567,0.4618987143039703
4.943900146484375,1.0362833683952688,-0.4658863040424883,3.2050100935190917,-0.6307022571563721,-0.0018041646108031,0.4638433456420898
4.953926025390625,0.8681843714021146,-0.0085918141912668,1.5770634392499925,-0.3549462556838989,0.1179917305707931,0.4634110927581787
4.9639521484375,0.0860480519026517,1.1271078409194946,-0.5616074625670909,0.0115774003788828,0.6008508205413818,0.4713539779186249
4.97397802734375,-0.1082945896979421,2.420540801027417,-2.773325480416417,0.1095628440380096,1.093496322631836,0.4313367009162903
4.984004150390625,-0.594690817001462,3.007045096702873,-4.812578561148047,-0.077505312860012,1.443617582321167,0.2936230301856994
4.994030029296875,-1.316534141971171,3.216427851851284,-8.318874032965303,-0.3774790465831756,1.6595852375030518,0.0672342032194137
5.004055908203125,-1.664167429946363,2.8545839599549767,-12.62357204555869,-0.6287464499473572,1.433712124824524,-0.1805503070354461
5.014082275390625,-0.9036625120185316,1.424135269512236,-16.78445721502304,-0.6268689036369324,0.6892212629318237,-0.375973105430603
5.024108154296875,0.0683842387877404,-0.3390466614156961,-20.228593460047243,-0.2925007939338684,-0.4384977519512176,-0.4442629516124725
5.03413427734375,0.2718892610091716,-0.6337804261133074,-21.393136420869823,0.2971388101577759,-1.5169382095336914,-0.3399692475795746
5.04416015625,-0.5683474383465945,0.8401654607504606,-20.55799492576122,0.8273869752883911,-1.9300003051757808,-0.1844079047441482
5.054186279296875,-1.0547420582149176,1.8479764756381512,-18.236804725801942,0.8951435089111328,-1.7051042318344116,-0.2451202720403671
5.064212158203125,-2.108583806589245,1.7253871839322148,-15.59171107302308,0.5914400815963745,-0.9390097856521606,-0.4600120782852173
5.074238037109375,-2.350595742663741,1.5732852358855307,-14.85896962968111,0.3032075464725494,-0.1727272719144821,-0.4564116597175598
5.08426416015625,-0.3612044249489903,1.0915312083646656,-14.9310902785182,0.1674467921257019,0.1655186861753463,-0.1382552832365036
5.0942900390625,1.788529722674191,0.2266578612066805,-14.126343921673296,-0.043349765241146,0.3043055534362793,0.2626959085464477
5.104316162109375,2.530271049551666,-0.0145593442935496,-11.85050911322236,-0.3755183815956116,0.2090504318475723,0.5139710307121277
5.114342041015625,2.251685286578536,0.342715778382495,-9.3897251491338,-0.582668125629425,-0.1392582207918167,0.4894287586212158
5.124368408203125,1.60239486438334,0.6769026517421006,-7.522903103250265,-0.4700867235660553,-0.6754310727119446,0.239759013056755
5.13439404296875,0.9282502791777252,1.001060079322755,-5.560969409042596,-0.0730160027742385,-1.1976895332336426,-0.0808388069272041
5.144419921875,0.5199836953351273,1.3133499589771032,-3.257604204109311,0.4180176258087158,-1.533966898918152,-0.3493647873401642
5.154446044921875,0.5119747955983505,1.4149313878372312,-0.3519809617906809,0.8253100514411926,-1.6342449188232422,-0.5586207509040833
5.164471923828125,0.3885832110662013,1.233166415193677,3.0359231084018945,1.0044089555740356,-1.438886284828186,-0.7572818994522095
5.174498046875,0.1492672360774129,0.9537127102795988,6.2395660052210085,0.8973636031150818,-1.023389220237732,-0.9435449838638306
5.18452392578125,0.074626028387295,0.3942572381146252,8.39638806527853,0.6189165711402893,-0.5071061253547668,-1.0500247478485107
5.194550048828125,0.4256958940818905,-0.6223042886573821,9.278252148595453,0.2888183295726776,-0.1179897412657737,-0.9912076592445374
5.204576904296875,1.0976382200028747,-1.405504657191783,9.698378425851464,-0.0216609798371791,0.0934868231415748,-0.7840717434883118
5.214603271484375,1.3765833908729257,-1.6492726431533693,9.585380992224811,-0.2578593790531158,0.1844641268253326,-0.4784705936908722
5.224629150390625,1.5300110345654188,-1.6503239057719707,9.312247941699624,-0.3875412046909332,0.1735318601131439,-0.1505928635597229
5.2346552734375,1.5466564644180236,-1.515242358370125,9.079211923763156,-0.4163276851177215,0.1450150460004806,0.0997533798217773
5.24468115234375,1.1647834915801882,-1.1161567502509802,9.127305215802789,-0.3916218280792236,0.1224282532930374,0.2296482622623443
5.25470703125,0.6216210556335747,-0.6686615506846457,9.35567207288444,-0.3583166897296905,0.0988324061036109,0.2505311071872711
5.264733154296875,0.1821294220417738,-0.3465090331856161,9.431755195611714,-0.2898095250129699,0.0899313241243362,0.219865620136261
5.274759033203125,0.0808487753596622,-0.1135431578759103,9.360383319315314,-0.1841662526130676,0.0511444360017776,0.1911243200302124
5.28478515625,0.1372222400918137,0.0376532926984131,9.350627064454557,-0.0711712539196014,0.0105874240398406,0.1750883758068084
5.29481103515625,0.1797956635982729,0.1004516941778361,9.364087434530258,0.0100298812612891,-0.0311899818480014,0.1576044559478759
5.304837158203125,0.1450022903756238,0.1101703935071825,9.466710189136862,0.0365845263004303,-0.0565802939236164,0.1352765262126922
5.314863037109375,0.0930293073584325,0.1503659180343151,9.420208550202846,0.0256909318268299,-0.0717909410595893,0.1205865889787674
5.32488916015625,0.2427836876319721,0.17908245556131,9.36561069857478,-0.0145630119368433,-0.091436818242073,0.1175660267472267
5.334915283203125,0.2789282197352498,0.0569391540572047,9.24720585294664,-0.0620136223733425,-0.1011837199330329,0.1090132892131805
5.344941162109375,0.1576003627998754,-0.0738316174734383,9.043446198377012,-0.1021783426403999,-0.0804816335439682,0.1068233698606491
5.35496728515625,0.1623368898024782,-0.1091352783057838,8.752598627462982,-0.1491602212190628,-0.0471256077289581,0.1229598969221115
5.3649931640625,0.1703999674119055,-0.1645313676394522,8.486564010766148,-0.2119469046592712,-0.0240312051028013,0.1556675136089325
5.375019287109375,0.1982905937750823,-0.3866718244869261,8.192586325132847,-0.2632485330104828,-0.0028442656621336,0.2005680948495865
5.385045166015625,0.3090744978044182,-0.4810638532996177,7.746717703855038,-0.2831641733646393,0.0192370675504207,0.2658989131450653
5.39507080078125,0.4913710200414061,-0.3913219153150916,7.2496338591247795,-0.2908976078033447,0.0493222512304782,0.3390128910541534
5.405096923828125,0.606923106586933,-0.1095297575160861,6.811745715206861,-0.3341952562332153,0.0663691461086273,0.37979257106781
5.415122802734375,0.5625926376795396,0.2487856679931283,6.466743944779038,-0.4174006283283233,0.0338014289736747,0.3492859601974487
5.425149169921875,0.552820491129905,0.2875539361961186,5.8228235251843925,-0.4694547653198242,0.013103075325489,0.2215525209903717
5.435175048828125,0.4401067698154598,0.148619512758404,4.855909753352403,-0.413093239068985,0.0607276558876037,0.0108367102220654
5.445201171875,-0.0155114619531901,0.1379704007111489,3.4157308192729947,-0.2123856991529464,0.2066651582717895,-0.1398793011903762
5.45522705078125,-0.0952641172057948,0.4840823243379593,1.5311837316066026,0.0292270798236131,0.4186220169067383,-0.1260815858840942
5.465253173828125,-0.019202407159307,0.966220236609876,-0.7939782945930958,0.2091369181871414,0.7085041999816895,-0.0804480612277984
5.475279052734375,-0.6281727422993629,0.9535371345169842,-3.581489536750317,0.2484471797943115,0.9997603297233582,-0.081496775150299
5.485304931640625,-0.9870284852303564,0.7006029685422778,-6.688614425578713,0.1309852600097656,1.1080896854400637,-0.0455694012343883
5.4953310546875,-0.2912022295705974,0.2021484199807047,-9.735079386261106,-0.0866475030779838,0.9297624826431274,0.0771242156624794
5.50535693359375,0.4890445498552173,-0.734720926721394,-12.39587271247506,-0.2616291642189026,0.5304174423217773,0.2681362628936767
5.515383056640625,1.0502942119605838,-1.5410748648934065,-14.250028753530978,-0.3355753421783447,-0.1012048199772834,0.4725320339202881
5.525408935546875,0.9824475871808828,-1.3839720398195088,-15.018275225496293,-0.2398922592401504,-0.8636009693145752,0.6073577404022217
5.535435302734375,-0.3272270442843437,-0.044846711333841,-14.90380245862007,0.0409484021365642,-1.3172484636306765,0.5866761803627014
5.545461181640625,-1.8967232631504531,1.7405508507944645,-14.50838392164111,0.4280322194099426,-1.2532594203948977,0.4316072463989258
5.555487060546875,-2.6475632577627897,2.6913854483544823,-13.68416597160697,0.7691256999969482,-0.7618597745895386,0.2363004833459854
5.5655126953125,-2.8334602156445383,3.0080373226106163,-13.461831380426885,0.953157901763916,-0.0686437413096427,0.1470827162265777
5.57553857421875,-2.2866301971010863,2.846194901794195,-13.946207134753465,0.7720564007759094,0.4862992465496063,0.1414263099431991
5.585564697265625,-1.51914564941898,1.6593400097899138,-14.053887757271529,0.3551866710186004,0.6864346861839294,0.1965872943401336
5.595590576171875,-0.7766088613148778,0.5843520860776305,-14.424246671795844,0.0419262051582336,0.5411118865013123,0.3069117963314056
5.60561767578125,-0.3713229737835005,0.4618046607520431,-15.103961458349229,0.0401868931949138,0.0365355014801025,0.3412822782993316
5.6156435546875,-0.5668000627741218,0.5029512754589319,-14.725834247910976,0.2778876423835754,-0.6463195085525513,0.2590120434761047
5.625669677734375,-0.6867765416331589,0.347568479110673,-13.051053946274518,0.6352689862251282,-1.2346287965774536,0.1337529420852661
5.63569580078125,-0.6484083786636591,0.3472637970756739,-10.278628045046329,0.8552254438400269,-1.4925620555877686,0.0155145553871989
5.6457216796875,-0.3625533553399145,0.1566159914050251,-6.413722548687458,0.8456026315689087,-1.4089821577072144,-0.0542072691023349
5.655747802734375,0.1511392404943704,-0.012121011230722,-2.8425445625931025,0.6463894248008728,-1.0263363122940063,-0.0485386364161968
5.665773681640625,0.9119843501619994,-0.4070901970069855,-0.037497663745284,0.3259502053260803,-0.598325788974762,0.0196936801075935
5.675799560546875,1.210789748212695,-0.8293290094375609,2.032500683861971,0.0072572417557239,-0.1380211263895034,0.0954163670539856
5.685825439453125,1.3591435957722364,-1.033232967848703,3.1888813810169694,-0.2300682365894317,0.250600665807724,0.1363318413496017
5.6958515625,1.3739775922887028,-0.9893431188482792,4.183066606134176,-0.3959634602069855,0.4610914587974548,0.1381760984659195
5.70587744140625,1.4410963411852715,-0.8477554044228046,5.029879834336042,-0.4430007636547088,0.5153989195823669,0.1461197733879089
5.7159033203125,1.670377682763338,-0.6985610143858939,5.700251623004674,-0.3144251704216003,0.433025985956192,0.194213792681694
5.725929443359375,1.6014641594044865,-0.5860294447053224,6.267733530563116,0.0238524861633777,0.355128526687622,0.2852236032485962
5.735955322265625,1.4272199376545849,-0.2103871098853647,6.920499519914388,0.4234367907047272,0.3216062188148498,0.3663217723369598
5.745981689453125,1.2797493026703597,0.2793107162468135,8.197682771489024,0.6204974055290222,0.2886663973331451,0.3577597141265869
5.756007568359375,0.551277937863022,0.5439563628032803,10.205159488731622,0.5492829084396362,0.3401849865913391,0.1966257244348526
5.76603369140625,-0.0875227001656312,0.8110038098044693,11.532830818527936,0.3138195276260376,0.489144891500473,-0.013623908162117
5.7760595703125,-0.1271498136876616,1.1176922892551868,12.032463763219118,0.052554216235876,0.6547991037368774,-0.1495925933122635
5.78608544921875,0.2735009157232008,1.1396936201177537,11.94553132969737,-0.1719638556241989,0.7156491279602051,-0.1663974076509475
5.796111572265625,0.594584762811102,0.9355092373300344,11.759005718523262,-0.377222329378128,0.7008151412010193,-0.1114854589104652
5.806137451171875,0.5112161957833916,0.673115096027404,11.470210988485812,-0.5586555600166321,0.6624866127967834,-0.0190537925809621
5.81616357421875,0.2860628756544552,0.6328429260674864,11.114324835950136,-0.6824172735214233,0.5980851054191589,0.0650420114398002
5.826189453125,-0.0923827530832029,0.7639024514116346,10.664591355937718,-0.713011622428894,0.488539457321167,0.1213337779045105
5.836215576171875,-0.3423498311469331,0.8583924607060849,10.12215387326479,-0.6346718072891235,0.4132265746593475,0.1277663856744766
5.846241455078125,-0.5887706331722438,0.88128526051566,9.635762687462568,-0.5061793923377991,0.3689057230949402,0.0764081180095672
5.856267822265625,-0.8623959241937845,0.9450091793421656,9.364767818009852,-0.3813998401165008,0.3204703032970428,0.0138260498642921
5.866293701171875,-0.778550423836708,0.9533687922127544,9.043685267829895,-0.3050358295440674,0.2449664771556854,-0.0430023446679115
5.876319580078125,-0.6738019092477857,0.7361870537512004,8.603464297050238,-0.2872198820114136,0.1646641492843628,-0.0901186093688011
5.886345703125,-0.5614600534530356,0.3551579843915998,8.120778980028629,-0.3320126533508301,0.1129791140556335,-0.078513354063034
5.89637158203125,-0.2111419833732769,0.0328523221574723,7.474701674661039,-0.4118998348712921,0.1050259917974472,0.0214736256748437
5.906397705078125,0.1068280973419547,-0.1177704932473599,6.779213564914465,-0.5453500747680664,0.0671262815594673,0.1523083299398422
5.916423583984375,0.012475560289435,-0.0516650130465626,6.128938807857036,-0.6985247731208801,0.0243589635938406,0.2474088966846466
5.92644970703125,-0.3162847579767927,0.1053996719740331,4.922769120660424,-0.7954881191253662,0.041075624525547,0.3470582664012909
5.9364755859375,-0.3095054000349715,0.3652902329578995,3.3303935459882017,-0.7727423906326294,0.1068563610315322,0.4408197700977325
5.94650146484375,-0.5184720486631617,0.4910889882296324,1.5696061089813709,-0.6489149928092957,0.167956992983818,0.4634065628051758
5.956527587890625,-1.082182511391491,0.6032504094235599,-0.0890869812071323,-0.525614857673645,0.2413392663002014,0.4019524753093719
5.9665537109375,-1.5299004137977956,0.9703969377726316,-1.68631993278265,-0.5150282382965088,0.2802291512489319,0.2997121214866638
5.976579833984375,-1.8080748194910583,1.0731050325751303,-3.3351106376379724,-0.5652109384536743,0.2587196230888366,0.2068486511707306
5.986605712890625,-1.8063875970564784,0.532562715999037,-5.2056911592721935,-0.5589019060134888,0.0954084619879722,0.1338788419961929
5.9966318359375,-1.7540055217817423,-0.5654843040004373,-7.158961070030927,-0.4069217443466186,-0.2741076350212097,0.0532824918627738
6.006658447265625,-1.7528588359646498,-1.7532278154075145,-8.67207430741787,-0.122195728123188,-0.7362635731697083,-0.0085507817566394
6.0166845703125,-1.660429266331345,-2.330588142901659,-9.41266646426022,0.2002219259738922,-1.1845351457595823,-0.0089566595852375
6.02671044921875,-1.311469552057981,-2.3985835285022854,-9.029285571077466,0.4234342575073242,-1.4201908111572266,0.0865642726421356
6.036736328125,-1.2186962835535406,-2.015540342841297,-8.120603623461722,0.4991337656974792,-1.316243290901184,0.2662549614906311
6.046762451171875,-1.2883277459234,-1.0124259613372384,-7.390974759182334,0.4469323456287384,-0.8460397720336914,0.4407271444797516
6.05678857421875,-1.4868492075785993,-0.075103756301105,-6.990673710858822,0.2647809684276581,-0.2819511294364929,0.522559404373169
6.066814697265625,-1.372794519983977,0.1437590671151876,-7.115328849053382,0.0106139350682497,0.0475588291883468,0.5413442850112915
6.076840576171875,-0.7625340126026421,-0.1976798962645232,-7.584881712779402,-0.2331471741199493,0.0083861546590924,0.5543085336685181
6.08686669921875,-0.3978890918109565,-0.4900482470050454,-8.076995367881656,-0.3317283391952514,-0.3006076514720917,0.5393807291984558
6.096892578125,-0.5702489245863631,-0.197278475856781,-8.600107387837767,-0.1914007663726806,-0.6801544427871704,0.4659045040607452
6.106918701171875,-0.8115468306399881,0.2966967353336512,-8.797629024800658,0.480182945728302,-0.9993862509727478,0.4654789566993713
6.116944580078125,-0.3030949302044697,0.8880056548118591,-9.074940822315217,1.071349859237671,-1.050459623336792,0.5121636390686035
6.126970458984375,0.9785413004573434,0.7409918236844241,-7.157692657530308,1.0444601774215698,-1.1794400215148926,0.4023423194885254
6.13699658203125,0.4711377217646688,0.0602801350481808,-3.2260476208508013,0.6010069847106934,-1.0715051889419556,0.1397421509027481
6.1470224609375,0.1849848114728927,0.0244027659811079,-1.9870482617199416,0.2401385456323623,-0.7097896933555603,-0.025443073362112
6.157048828125,0.962693523788452,0.4452740163855254,-1.916409375873208,0.1334007233381271,-0.3934934735298157,-0.0696854814887046
6.16707470703125,0.9940465472988784,0.4971794140592217,-1.6852970194756984,0.1181650459766388,-0.1886460483074188,-0.1058221757411956
6.177100830078125,0.7338113375958055,0.3229468827471137,-1.11247608897686,0.0828058645129203,-0.1340998113155365,-0.1558214724063873
6.187126708984375,0.6380668712608516,0.2346482754386961,-0.5007902980327605,0.0504010505974292,-0.1545651257038116,-0.2062859684228897
6.197152587890625,0.4451573312032967,0.1705677251942455,-0.1783481499373912,0.1083787158131599,-0.2209455072879791,-0.229190707206726
6.2071787109375,0.5920486684622243,-0.0328643048562109,0.1266939505457878,0.2957986891269684,-0.4068229794502258,-0.2082241773605346
