seconds_elapsed,ax,ay,az,gx,gy,gz
0.07723291015625,0.1399958969230763,-0.487477958125621,0.5658569367051124,-0.4235290884971618,-0.4178031980991363,0.0266628004610538
0.087212890625,0.1408461022779345,-0.4841292322196066,0.6659241616100072,-0.3567790687084198,-0.4629307389259338,-0.0130515871569514
0.09719189453125,0.177221356130857,-0.4375701640099286,0.7604261536031961,-0.2849101126194,-0.5308793187141418,-0.0484271384775638
0.107171875,0.2303931387448683,-0.3555871695891022,0.7938239808142185,-0.2037010192871093,-0.6445062756538391,-0.0774159133434295
0.117151123046875,0.238928729236871,-0.2649232944540679,0.7422235574364662,-0.1170196160674095,-0.7796064615249634,-0.0924519747495651
0.127130859375,0.1992315461533144,-0.162618227494508,0.6343044499874114,-0.0421754717826843,-0.884232223033905,-0.115555964410305
0.13711083984375,0.1697294477391988,0.0221121708258986,0.5981517711102962,0.0158973895013332,-0.9165549278259276,-0.1505880206823349
0.147090087890625,0.1894027375129982,0.2370122280910611,0.6873661780893803,0.0700213462114334,-0.8248308897018433,-0.1900009363889694
0.15706982421875,0.2585853236041963,0.4724392328172921,0.99529757027328,0.1295027434825897,-0.6441238522529602,-0.2433257400989532
0.167048828125,0.1897440617639571,0.6923837139904498,1.2317793447494507,0.2072761058807373,-0.3861663937568664,-0.2698012888431549
0.177028564453125,-0.0360473918717354,0.6868867240093648,1.434515501490235,0.2987799048423767,-0.1337399035692215,-0.2492735832929611
0.187009033203125,-0.343703839571774,0.6140953363038599,1.5193652835190294,0.3916334211826324,0.0606325082480907,-0.1841553002595901
0.19698779296875,-0.6776140148818492,0.5891549563147127,1.375859898903966,0.4677651524543762,0.2117031812667846,-0.0748695880174636
0.2069677734375,-0.9146201054930686,0.4775587677881121,1.21756903308928,0.4952979683876037,0.3120025992393493,0.0518534742295742
0.216947021484375,-1.0328653766453266,0.300198752105236,0.939746363443136,0.4630718529224396,0.3746094703674316,0.1565194427967071
0.226927001953125,-0.9836022371087224,0.1675825719036161,0.5722831703603267,0.3795900046825409,0.3970247805118561,0.2232902199029922
0.23690673828125,-0.8325092469088733,0.0840489870399236,0.3012415391564369,0.2531414031982422,0.4185982644557953,0.2479003816843032
0.246885986328125,-0.7042281002368778,0.11531330935359,0.266800340372324,0.1155667677521705,0.4605481326580047,0.2564094364643097
0.256865966796875,-0.5724510742731392,0.1327088269211351,0.3860270237773656,-0.0248884800821542,0.4913822412490845,0.2540965974330902
0.266844970703125,-0.4532023616993799,0.0975967431381344,0.4380062173396348,-0.171552762389183,0.5310702323913574,0.2630645036697387
0.276824951171875,-0.3434630165532231,-0.0224944481417536,0.5144821387767792,-0.313374787569046,0.5627623200416565,0.2951886653900146
0.2868037109375,-0.1886529237926937,-0.2833994468651711,0.5389800356954336,-0.4365555644035339,0.5733835101127625,0.3386389315128326
0.296783935546875,-0.0240228450191207,-0.4114169010996818,0.6128349609792232,-0.5132728815078735,0.6256534457206726,0.3652045130729675
0.306763916015625,0.0131254390329122,-0.3216238174498081,0.97526775867939,-0.5438262820243835,0.722379744052887,0.3822202384471893
0.31674267578125,-0.1717463039869442,-0.0211499016650021,1.4303525365918874,-0.5428910255432129,0.8198950886726379,0.4071114361286163
0.326722900390625,-0.2973185387601144,0.0246260533429682,1.6915519882172343,-0.5348861217498779,0.8963480591773987,0.4521167278289795
0.33670166015625,-0.3040751916797831,-0.0490047077961266,1.783656271418929,-0.5316337943077087,0.8955454230308533,0.5054281949996948
0.346681884765625,-0.2515413599094376,-0.1833034342572093,1.5830279006123542,-0.530055582523346,0.8244534134864807,0.5474571585655212
0.3566611328125,-0.2062659931010566,-0.3285786050237715,1.3647662579596045,-0.5210235714912415,0.7651479244232178,0.5489845275878906
0.366640869140625,-0.2033163495152257,-0.3719340548865497,1.2229215000331402,-0.5195050239562988,0.7612959146499634,0.5068174004554749
0.376620849609375,-0.2774232950650155,-0.253929387557134,1.0508458544939756,-0.5372122526168823,0.8086869716644287,0.4138979613780975
0.38660009765625,-0.2702721446687355,-0.0915158157892525,0.7707260138213634,-0.5787202715873718,0.8769914507865906,0.27323779463768
0.396579833984375,-0.143861431511119,-0.0424726026136428,0.4543973801702261,-0.617795467376709,0.9482516646385192,0.0936093404889106
0.406558837890625,0.0246636454069986,-0.1052714424844831,0.1124082355618476,-0.6205300092697144,1.038375735282898,-0.0638183653354644
0.4165390625,0.0038303719431161,-0.2001079271290451,-0.0590454786866903,-0.5885539054870605,1.1426788568496704,-0.209047332406044
0.426518798828125,-0.0701988869942724,-0.0163579181481152,-0.0117547352015972,-0.5251466631889343,1.2179020643234253,-0.3265289664268493
0.436497802734375,-0.2089053468950092,0.1003773868326097,-0.0653717590987682,-0.4632266163825989,1.2466496229171753,-0.3973068594932556
0.446477783203125,-0.4073443909637629,0.1188083118624985,-0.1922685387402772,-0.4192003011703491,1.1619411706924438,-0.4367187321186065
0.456456787109375,-0.4521403950236737,0.1388064131438732,-0.536213493591547,-0.4355603754520416,0.9960624575614928,-0.4635393917560577
0.46643701171875,-0.2057610575199127,0.1751261922162026,-0.9526695579022167,-0.4972546398639679,0.8274944424629211,-0.5119245052337646
0.476415771484375,-0.0724218237407505,0.3442561762249097,-1.2466735470205546,-0.5815653800964355,0.7322003841400146,-0.5761507749557495
0.48639599609375,0.0683718176975846,0.4763722248846664,-1.455424434006214,-0.6587957739830017,0.7673221826553345,-0.6356732249259949
0.4963759765625,0.2760800637625157,0.4694067332535981,-1.565456003564596,-0.7073826193809509,0.9122081995010376,-0.6639847755432129
0.50635498046875,0.2379832650803029,0.416035391213186,-1.580484061348438,-0.7477718591690063,1.11399507522583,-0.6715529561042786
0.5163349609375,0.0777466720253229,0.5359137799926101,-1.6758260112971066,-0.7939905524253845,1.3493000268936155,-0.652287483215332
0.526313720703125,-0.1397638599991798,0.7164668926283717,-1.702427602496743,-0.8537135720252991,1.6066532135009766,-0.5737117528915405
0.5362939453125,-0.5335873828716576,0.5615507274111733,-1.5159616125553843,-0.9290162324905396,1.807234525680542,-0.4510267972946167
0.54627392578125,-0.7491266148231923,0.4544444707149639,-1.3139192832976578,-1.0042036771774292,1.903183460235596,-0.3126231133937835
0.556252685546875,-0.910125570552796,0.3598405161846429,-1.080588081806898,-1.047253966331482,1.8845908641815183,-0.1876130104064941
0.56623291015625,-0.8734580740213393,0.0959110185408964,-0.8501151923567056,-1.0087672472000122,1.786260008811951,-0.0847998112440109
0.576211669921875,-0.645478462691605,-0.2825127271585166,-0.6671943276762962,-0.8680680990219116,1.6629456281661987,0.0157398860901594
0.586191650390625,-0.5194684027567505,-0.5956780744731426,-0.5381272182583808,-0.6471287608146667,1.5193620920181274,0.1229478269815445
0.5961708984375,-0.4937395027384161,-0.5745673357747495,-0.4477595495909452,-0.3811458349227905,1.3761239051818848,0.2264806926250457
0.60615087890625,-0.570574320615828,-0.2816448948154226,-0.2542810505390167,-0.1093417555093765,1.2377092838287354,0.2831772565841675
0.616130859375,-0.5689183701023459,0.0535499134777113,-0.11050152515769,0.1385234594345092,1.074777603149414,0.2781480252742767
0.626110107421875,-0.5197720618784427,0.3799314103160053,-0.2426058103144168,0.3383263349533081,0.9996552467346193,0.2368759661912918
0.63608984375,-0.3098541769400239,0.4196543123627081,-0.0487491255998611,0.4803792238235473,1.0206098556518557,0.1852035969495773
0.646069091796875,-0.0105003512263298,0.0385091240764595,0.2020113495975732,0.5479417443275452,1.055982232093811,0.1577831655740738
0.656049072265625,0.105147012387216,-0.4077006570555269,0.1791565437108278,0.5293153524398804,1.0757797956466677,0.1304188668727874
0.66602880859375,0.2434133273050188,-0.6030718745188787,-0.0127303022354841,0.4317298829555511,1.103709697723389,0.0672169998288154
0.676008056640625,0.3303691417023539,-0.5344126547146588,-0.008433481824398,0.2763975858688354,1.131428360939026,-0.0394500754773616
0.68598779296875,0.1983943281441927,-0.3734267776623368,0.1888221976786852,0.0760170966386795,1.2159322500228882,-0.1802511364221573
0.695966796875,-0.0082671853467822,-0.2598081068648025,0.549525979629159,-0.1326081752777099,1.3529040813446045,-0.3310500681400299
0.705947021484375,-0.1735141539096832,-0.3390156452229246,0.8202344333559274,-0.3258591294288635,1.5149787664413452,-0.4511879384517669
0.71592578125,-0.316597805981338,-0.6724069477580488,0.9419301372230052,-0.4713461995124817,1.630457878112793,-0.5614520311355591
0.72590576171875,-0.6490273873448371,-0.7197263328157365,0.8438970484942198,-0.5363023281097412,1.7791507244110107,-0.6736550331115723
0.735885986328125,-0.8656032688677311,-0.467885222774744,1.125575809046626,-0.5094013214111328,1.9946149587631223,-0.7723904252052307
0.74586474609375,-0.7924561995923519,-0.4998616754131391,1.584979034680128,-0.2896689176559448,0.7709473371505737,-0.7593108415603638
0.755844970703125,-0.8804945485293865,-0.930068288385123,2.4566876346856352,0.1390602737665176,-1.136522889137268,-0.6383054852485657
0.765823974609375,-0.3295417509675026,-1.266328095561266,5.910817450457811,0.3670449554920196,-1.5932902097702026,-0.2409674376249313
0.775803466796875,-2.339405363346636,0.2224906585246324,4.923100544571876,0.2402937263250351,-1.3620119094848633,0.3497695922851562
0.785783447265625,-3.1744743777409195,1.2967948377564549,2.3600918852835893,-0.0449247099459171,-1.327359914779663,0.8771527409553528
0.795762451171875,-3.388313235515356,1.3425919816829264,1.592138843306899,-0.3389715254306793,-1.3781181573867798,1.094304442405701
0.805742431640625,-2.659058172984421,0.8839774952743202,2.5644670414030557,-0.6542807221412659,-1.333415985107422,1.0321964025497437
0.815721435546875,-2.14262197753042,0.4925447765285149,2.896768320211768,-1.0008857250213623,-1.0422223806381226,0.8074747920036316
0.825701416015625,-2.1787086054340006,0.4132631865534931,2.1879677244275806,-1.3400813341140747,-0.3276255130767822,0.5631846189498901
0.835680419921875,-2.010994662235677,0.1810002718813717,1.862529901647568,-1.5961891412734983,0.1119009256362915,0.2728157937526703
0.84566015625,-1.3485571736976505,-0.2178486048724502,1.3967466195881366,-1.6588459014892578,0.2569904625415802,-0.0933571308851242
0.855640380859375,-1.1510115713372826,-0.0758368928812444,1.7166022583216427,-1.5046344995498655,0.111725352704525,-0.4957052767276764
0.865619384765625,-1.109889287354052,0.0809924490135163,2.3917963525801897,-1.3272091150283811,0.6568134427070618,-0.7902423739433289
0.87559912109375,-1.8013558864995836,0.1581200392924249,2.556857150921225,-1.177363395690918,0.9751742482185364,-1.0258508920669556
0.885578369140625,-1.662059351751208,0.0131087801590561,2.328276943349838,-1.0121620893478394,1.2222650051116943,-1.235936164855957
0.895558349609375,-2.0731147260621188,0.1361021226212382,2.8675726208657024,-0.8374654650688171,1.082935094833374,-1.340179204940796
0.905538330078125,-2.7625802145183083,0.36983532904163,3.0721172883331773,-0.6346426010131836,0.6880181431770325,-1.29611074924469
0.915517578125,-3.5003394860222934,0.7904264473304152,3.267979467651248,-0.5001024007797241,0.0607479400932788,-1.1083511114120483
0.925497314453125,-3.4515853919863697,0.943363823287934,2.923203322672844,-0.5100194811820984,-0.5334863662719727,-0.7466725707054138
0.9354765625,-3.451700250537693,0.6929566915728151,2.119327318921685,-0.6800625324249268,-0.9934789538383484,-0.3796586990356445
0.94545654296875,-2.9965616966113444,0.7565026965491474,1.1701958720177412,-0.9385265707969666,-1.347866415977478,-0.135625272989273
0.955435302734375,-1.9049495319649576,1.1744032605797052,0.0818120217680931,-1.2472623586654663,-1.5715718269348145,0.11506949365139
0.96541552734375,-1.706055437605083,1.13621279226467,-1.3049760983854533,-1.5245178937911987,-1.837990641593933,0.3893519043922424
0.9753955078125,-1.6933295192837714,1.0264183924630284,-2.1371225033313035,-1.710891842842102,-2.1666574478149414,0.5844030976295471
0.985374267578125,-1.2091370125696062,0.9172506001271308,-2.2001801402688024,-1.764833927154541,-2.4321181774139404,0.7022943496704102
0.9953544921875,-0.6500131835117936,0.5929740762114525,-1.896733200022578,-1.6981780529022217,-2.642606735229492,0.7753118872642517
1.005333251953125,-0.3634551264852285,0.3442693645000457,-1.75243403468132,-1.5577714443206787,-2.7164666652679443,0.7637505531311035
1.015313232421875,-0.0517763644665479,0.5550652013167738,-1.4563690213799476,-1.3679523468017578,-2.536811590194702,0.6282470226287842
1.02529345703125,0.5779571243435144,1.096989181509614,-1.1000801332622765,-1.15463125705719,-2.1378419399261475,0.424384206533432
1.0352724609375,1.2829478064507245,1.1847624497696756,-0.8254518757432698,-0.9410734176635742,-1.610671877861023,0.2232506275177002
1.04525244140625,1.8036274846933784,0.8949038898929953,-0.8039590058594942,-0.7546180486679077,-1.115573167800903,0.0431202799081802
1.0552314453125,1.9066746021918952,0.930425285129249,-1.2739900084912776,-0.6463260650634766,-0.6571080684661865,-0.1720624417066574
1.06521142578125,1.6800903907433151,1.2948968951806423,-1.899736473491788,-0.6332680583000183,-0.2029309719800949,-0.43402960896492
1.0751904296875,1.5053548783451318,1.6021607633665202,-2.305451948079466,-0.6206481456756592,0.2389245778322219,-0.7168609499931335
1.08517041015625,1.741798366637528,1.282078914661705,-2.35257376473844,-0.5126868486404419,0.5906293392181396,-0.947035789489746
1.095150390625,1.964507928609848,0.4979916072249412,-2.194257764482498,-0.2464159578084945,0.9383974075317384,-1.0858635902404783
1.10512939453125,2.242704107743501,-0.2551496500670909,-1.7915794656336306,0.1761017441749572,1.1701425313949585,-1.1654059886932373
1.115109375,2.5671888675823804,-0.8617170750841497,-1.534317937979102,0.7192206978797913,1.3021074533462524,-1.136132836341858
1.12508837890625,2.060287100932002,-1.311654845497012,-1.0569774891167878,1.2669168710708618,1.2311513423919678,-1.095861792564392
1.135068115234375,2.0022771027728914,-1.5957611254572868,-1.0833294894695282,1.605168700218201,0.9276936054229736,-1.1635555028915403
1.14504833984375,2.582615861555934,-1.8789853618860244,-1.7618676334589718,1.6049388647079468,0.5594977140426636,-1.285402536392212
1.15502734375,2.7194743555024266,-2.521284610019624,-2.192421196705103,1.2866342067718506,0.1785957515239715,-1.3815157413482666
1.16500732421875,2.396668927052617,-3.371813059352338,-2.1381296345472336,0.7320631146430969,-0.0871544480323791,-1.3958187103271484
1.174986572265625,1.614364411379397,-3.902164967434108,-1.5627514207810165,0.1573238223791122,-0.0540490932762622,-1.3002240657806396
1.184966552734375,0.9716795249290764,-3.984418595489859,-0.1186801554381847,-0.2127999067306518,0.1229920014739036,-1.1206437349319458
1.1949462890625,0.9506783840849996,-3.685511929021776,1.0526567033082246,-0.3315289318561554,0.2479786723852157,-0.9184185266494752
1.204925537109375,1.2148857853546735,-3.397415994903445,1.5432202063590288,-0.2524692714214325,0.3470767438411712,-0.7096623778343201
1.214905517578125,0.9471300439536572,-3.205966079069674,2.0356664544165133,-0.1042462959885597,0.3560447692871094,-0.4917080104351043
1.22488427734375,0.4920088795535266,-2.9261800003960725,1.9957851104050877,0.0083652008324861,0.219833418726921,-0.3111086785793304
1.234864501953125,0.1545126624502241,-2.535052730870247,1.458400819468498,0.0468423590064048,0.0538033172488212,-0.2011596858501434
1.24484326171875,-0.072921736086905,-2.2142682868540287,0.8773048125773668,0.0545303709805011,-0.0511465333402156,-0.1535104066133499
1.2548232421875,0.1189377834610641,-2.0441051969379185,0.394118560296297,0.1145456731319427,-0.1293352246284485,-0.1813659071922302
1.264803466796875,0.4179850274436175,-1.9326874337181448,0.180717217156291,0.2301356494426727,-0.1776279211044311,-0.2353846728801727
1.2747822265625,0.4521599765069782,-1.6213596770942211,-0.0142436294078826,0.4167464971542358,-0.0926349014043808,-0.3021987974643707
1.28476220703125,0.8400871348172426,-1.1052151580631733,0.0180576347380876,0.6817337274551392,0.1136090829968452,-0.4017394781112671
1.2947412109375,1.3956556094810366,-0.5754135773405432,0.0770212803602218,0.9781282544136048,0.3452648520469665,-0.5181211233139038
1.304721435546875,1.805057079105079,0.0194409057900309,-0.0407213019669055,1.1460055112838743,0.5123420357704163,-0.5996530055999756
1.314701416015625,1.9197480187766252,0.8085033712908625,-1.052484269350767,1.0677624940872192,0.6304142475128174,-0.6047982573509216
1.324680419921875,1.8671943863272664,1.9235674309343096,-2.856166845232248,0.7351518273353577,0.6414086222648621,-0.5052453279495239
1.334660400390625,1.675985585772991,2.951717469495535,-5.012194540041685,0.3519604802131653,0.6054790616035461,-0.2420180737972259
1.3446396484375,1.1403563218101858,3.670930445961654,-6.38542584400773,-0.0722224935889244,0.1563063561916351,-0.023362424224615
1.354619384765625,2.0595605402231216,4.965292503613234,-9.14630685339272,-0.516090989112854,-0.3826066553592682,0.1240885481238365
1.364598388671875,3.351117477326095,5.998094751894474,-11.24266830726862,-0.702368974685669,-0.4694075882434845,0.3667941391468048
1.37457861328125,3.6792514073222873,5.329817889678478,-10.230094023501872,-0.6766434907913208,-0.4885602593421936,0.654697835445404
1.384558349609375,4.17300815345645,4.168357697302103,-10.37659742088914,-0.5085351467132568,-0.5459079742431641,0.8837409019470215
1.394537353515625,4.790571896523237,3.5511882142499087,-11.08141859164834,-0.2356898933649063,-0.588793933391571,1.049473524093628
1.40451708984375,4.855452657234668,3.4662919627308844,-11.504525930541751,0.0516454875469207,-0.6168418526649475,1.142553448677063
1.414496337890625,4.688724802464247,3.883333425714076,-11.897267357265948,0.2704740464687347,-0.6450312733650208,1.1482268571853638
1.424476318359375,4.455240456238389,4.527816447627544,-12.285696181488037,0.3517356216907501,-0.6693618893623352,1.085087776184082
1.434456298828125,4.076291700284183,5.147218512037396,-12.53026715439558,0.3099260330200195,-0.6336456537246704,0.9770997166633606
1.444435546875,3.663015142792463,5.576192697137594,-12.446907318663596,0.2253533601760864,-0.5369148850440979,0.8220584988594055
1.45441552734375,3.529923015642166,5.894436809021234,-12.08165829449892,0.152408093214035,-0.410729169845581,0.5982652306556702
1.46439453125,3.614787702979147,5.907624791896343,-11.30368771637678,0.1015206798911094,-0.2444722801446914,0.3216749131679535
1.47437451171875,3.617134266105294,5.433572863185406,-10.193139380592108,0.0733745321631431,-0.0333530269563198,0.0168342590332031
1.484353271484375,3.532332414871454,4.62533603387624,-8.821371134915948,0.0808550864458084,0.2235834151506424,-0.2877693176269531
1.49433349609375,3.242673176959157,3.601479308594763,-7.143135139867663,0.156155988574028,0.5237248539924622,-0.5530399680137634
1.5043134765625,2.5047856029003857,2.374821252381801,-4.883072485566139,0.3162742853164673,0.7979950308799744,-0.7498345375061035
1.514292236328125,1.5139453042969109,1.195773088605702,-2.2099866640120744,0.5337352752685547,0.9638622403144836,-0.8773560523986816
1.5242724609375,0.4552767933532595,0.3537944409534335,0.2427250527799129,0.7554559707641602,0.9844666123390198,-0.952646255493164
1.534251220703125,-0.673586074540019,-0.1572571388527751,2.5290251411437987,0.9722427725791932,0.911236047744751,-0.9936921000480652
1.544231201171875,-1.608631128424406,-0.5449680240638554,4.827494975250959,1.1470211744308472,0.7806540727615356,-1.001250147819519
1.55421142578125,-2.4167297183066605,-0.9558644084207712,6.80578008480072,1.265887975692749,0.6178889870643616,-0.9644631147384644
1.564190185546875,-3.082036917062104,-1.3340639534428715,8.40614081300795,1.3227128982543943,0.4518060386180877,-0.8709341883659363
1.57417041015625,-3.5577813289046287,-1.554418038330227,9.741423786851763,1.303383231163025,0.2387284487485885,-0.7356079816818237
1.584149658203125,-3.879525850124657,-1.576062007122487,10.655632973456385,1.1838845014572144,-0.0470689535140991,-0.5975824594497681
1.59412939453125,-4.106885283729434,-1.490189019525796,11.173898137903214,0.959597647190094,-0.3343683779239654,-0.4543544054031372
1.6041083984375,-4.205656915865839,-1.589589451085031,11.629585557883978,0.6446069478988647,-0.5639464855194092,-0.2987988889217376
1.614088623046875,-4.294381493501365,-1.891833299151808,11.831030505770444,0.2689108550548553,-0.7352440357208252,-0.1587904691696167
1.624068359375,-4.195446779757738,-2.074256735704094,11.855104624319075,-0.1205101311206817,-0.7997013330459595,-0.0770623087882995
1.63404736328125,-3.922625279399752,-2.050912392734736,11.914092235338687,-0.4780749976634979,-0.6625210642814636,-0.0418906956911087
1.64402734375,-3.492401386499405,-1.982243784047663,11.849308505260945,-0.7795683145523071,-0.3983628749847412,-0.0452830307185649
1.65400634765625,-2.924249032333493,-2.063361247680336,11.381392887347936,-1.0081021785736084,-0.1627270728349685,-0.1146049797534942
1.663986328125,-2.353851091197878,-2.3853389931343494,10.836238546931742,-1.1293377876281738,-0.000242824666202,-0.2300860285758972
1.67396630859375,-2.123360081569105,-2.9589257934391497,10.542381857329609,-1.1629716157913208,0.0877211168408393,-0.3494769930839538
1.6839453125,-2.104653627533465,-3.519304298733174,10.316837071931362,-1.1296207904815674,0.1185863465070724,-0.4446138739585876
1.69392529296875,-2.086438318015635,-3.9061923232540487,9.933328752976657,-1.068468689918518,0.0991470292210578,-0.5000811815261841
1.703904296875,-2.074920021918416,-4.132758852915465,9.351319138371943,-0.9947690367698668,0.0547348260879516,-0.5048429369926453
1.713884521484375,-2.069208950795233,-4.301297848761082,8.68717776852548,-0.9178032279014589,-0.0072075040079653,-0.4610659182071686
1.723863525390625,-2.0264134729027745,-4.467443811990321,8.154989292666315,-0.8327149748802185,-0.082486018538475,-0.371587187051773
1.733843505859375,-1.947869074628502,-4.671301666237413,7.737575781500339,-0.7213937640190125,-0.1329913735389709,-0.252405047416687
1.743823486328125,-1.8287706937782464,-4.88125199214071,7.457425545689463,-0.5901137590408325,-0.1552631258964538,-0.1110351160168647
1.753802490234375,-1.7078526962853968,-5.061684839397668,7.230207274121046,-0.4429029822349548,-0.1907626241445541,0.0339395850896835
1.763782470703125,-1.5639388769999143,-5.132770884490013,7.087331419581174,-0.2781427800655365,-0.2372180074453354,0.1541496217250824
1.77376123046875,-1.318887427099049,-5.047831670612097,7.003886828175187,-0.1155084669589996,-0.2253236621618271,0.2417460978031158
1.7837412109375,-0.9899996099956332,-4.839847384084761,6.792767458492517,0.0321465022861957,-0.1646049171686172,0.2820362746715545
1.793721435546875,-0.7675418308272958,-4.439774591559171,6.337969096305966,0.149101123213768,-0.056989599019289,0.2842247784137726
1.8037001953125,-0.6560963028177619,-3.982589918757975,5.858481114020943,0.2425703406333923,0.0811008960008621,0.2594850957393646
1.81368017578125,-0.7080893787749111,-3.75732570386678,5.609716196554899,0.3421533703804016,0.2655127346515655,0.2176859825849533
1.823659423828125,-0.7042324110858142,-3.688327570964396,5.505639151486754,0.4534471333026886,0.4119756817817688,0.1243893280625343
1.83363916015625,-0.4118504702113568,-3.634885611373186,5.25728339934349,0.6063712239265442,0.4983702898025512,-0.0176763217896223
1.843619384765625,-0.1989762196853756,-3.533867661614716,4.958574593535065,0.7789661884307861,0.6726598143577576,-0.1393686681985855
1.8535986328125,0.0547100798308849,-3.1091847439676523,4.17847167955935,0.9246039390563964,0.8930718898773193,-0.1956691145896911
1.863578369140625,0.6035549453280866,-2.070703281006217,2.11722888533771,0.9866031408309937,0.9875754714012146,-0.1675285547971725
1.8735576171875,1.30969114420861,-0.5562395057931542,-0.8839742073386907,0.8790299296379089,1.0430076122283936,-0.0193694792687892
1.883537353515625,1.7078557650253177,1.4684911285892128,-4.628904832273721,0.5430498123168945,0.9243409037590028,0.2557499706745147
1.893516357421875,2.142429377567768,3.6588849111199377,-9.396564055243134,-0.0268108360469341,0.6256593465805054,0.6622638702392578
1.90349658203125,2.2850229080349207,5.412440643307567,-14.468905313211678,-0.6723570823669434,0.3060142695903778,1.1541849374771118
1.913476318359375,2.391643792366981,6.849941298088431,-18.384494702625272,-1.1565415859222412,-0.1280989795923233,1.5981247425079346
1.923455322265625,2.8927713595300912,7.999558492457866,-21.02891381714344,-1.2861238718032837,-0.6599338054656982,1.890758991241455
1.933435546875,3.703698158575594,8.71067496396899,-22.143919716858864,-1.0052766799926758,-1.13262677192688,1.9263066053390503
1.943414306640625,4.908814245066046,9.271645297676324,-21.813026551282405,-0.4663197100162506,-1.3016794919967651,1.6787056922912598
1.953394287109375,6.292647607067227,9.2453207698524,-20.29631850427389,0.1053244769573211,-1.1497321128845217,1.1617268323898315
1.963373291015625,7.641956183654069,8.129951297521592,-18.214352070975306,0.5361144542694092,-0.6890856027603149,0.4971761107444763
1.973353271484375,8.534176825812459,7.01281423099637,-16.294503952825067,0.7953664660453796,0.0017834147438406,-0.1769988238811493
1.98333349609375,8.741202204179764,6.6399599925249815,-14.848071803569791,0.9254621267318726,0.7274956107139587,-0.763595700263977
1.9933125,8.152735376259685,6.451084603354334,-13.417887024760246,0.935389757156372,1.2760450839996338,-1.1812639236450195
2.00329248046875,7.056451128149032,5.707448256510496,-11.999715339827535,0.8052557110786438,1.5507826805114746,-1.4131962060928345
2.013271240234375,5.680923822200298,4.700451480615139,-10.743466739732026,0.5339972376823425,1.5348854064941406,-1.4782840013504028
2.02325146484375,4.252792761050165,3.7988323109924793,-9.834639246165752,0.1570286601781845,1.3113598823547363,-1.3992754220962524
2.0332314453125,2.9988594521597025,3.1330040109723805,-9.34263548117876,-0.250527024269104,0.986903965473175,-1.234439730644226
2.043210205078125,2.1301590940594672,2.598545544354617,-8.807983245554565,-0.5648143887519836,0.6150433421134949,-1.018225073814392
2.0531904296875,1.5120599289417267,1.959955379872024,-7.872374128046632,-0.6944659948348999,0.3153978884220123,-0.7501387000083923
2.06316943359375,0.8213464862510561,1.036680551019311,-6.260087984246015,-0.6450982093811035,0.1384417414665222,-0.453540563583374
2.073149169921875,0.1900491091251373,0.173190036521852,-4.06308472044766,-0.4894004166126251,-0.0040813391096889,-0.1919428259134292
2.08312939453125,-0.3124766343981027,-0.4130737283959984,-1.7727409096509217,-0.3070005178451538,-0.1783511340618133,-0.0115855699405074
2.0931083984375,-0.6293234467044473,-0.8390981237798929,0.3015121727913618,-0.1614591926336288,-0.350913792848587,0.0820319205522537
2.103088134765625,-0.8149626304328441,-1.32784668636322,2.166754256007075,-0.0762324482202529,-0.4627545773983001,0.111869178712368
2.1130673828125,-1.1411068479165434,-2.044083277367055,3.966236457589269,-0.0420335568487644,-0.50864177942276,0.1101210638880729
2.123047607421875,-1.567737100239098,-2.865652758719027,5.608363028380275,-0.0344539321959018,-0.507077693939209,0.0971104577183723
2.133026611328125,-2.0353455518990757,-3.5105858624875546,6.929398865684867,-0.0327880531549453,-0.4535587728023529,0.0716233849525451
2.143006591796875,-2.483445585490763,-3.896082724910974,8.094864202049374,-0.0294734816998243,-0.3700444400310516,0.0161169841885566
2.152986328125,-2.776089684432745,-4.091599744053185,8.874878853219746,-0.0230683721601963,-0.2853227853775024,-0.0608846880495548
2.16296533203125,-2.957762010356784,-4.232279549853503,9.371499172091484,-0.0056789959780871,-0.2324052602052688,-0.1589361578226089
2.172945556640625,-3.071306264211237,-4.380780550798773,9.680492640548945,0.0071601807139813,-0.2176795750856399,-0.2528381943702698
2.18292431640625,-3.2270559211105105,-4.535596433979273,9.722116444313526,0.0206528194248676,-0.2314182966947555,-0.3206068575382232
2.192904296875,-3.369537515635788,-4.723456216366589,9.745075295096637,0.0309981815516948,-0.2354262769222259,-0.3523699641227722
2.202884521484375,-3.4682466039299964,-4.848843175967037,9.66606430222392,0.0442077256739139,-0.1879990994930267,-0.3448843657970428
2.21286328125,-3.577295592191815,-4.860908000031113,9.487705046370625,0.0562256351113319,-0.0479239821434021,-0.2921622097492218
2.22284326171875,-3.48157428753674,-4.707525072263181,9.215245365062357,0.0801014080643653,0.0489780642092227,-0.234895721077919
2.232822265625,-3.126898972095549,-4.713854275284708,8.998422815302014,0.1416415423154831,0.0635280385613441,-0.1881290972232818
2.24280224609375,-3.030854134574532,-4.873795246393978,9.084427612584827,0.2363326251506805,0.0489874444901943,-0.1432156860828399
2.252781494140625,-3.049288785931468,-4.854350541211664,9.267460120946168,0.348796397447586,0.0229738354682922,-0.0986029282212257
2.262761474609375,-3.047455140763521,-4.54459047229588,9.188690535613894,0.4496670961380005,-0.0181666780263185,-0.0575505644083023
2.272741455078125,-3.045710050661861,-4.091491315242648,8.900211447396874,0.5192168951034546,-0.0792850852012634,-0.0263407230377197
2.282720458984375,-3.0440324728384613,-3.714953419822454,8.637148539987207,0.5611706972122192,-0.1410392522811889,0.0002562668523751
2.292700439453125,-3.0388109387978908,-3.484543950997293,8.555047179883719,0.5683925151824951,-0.1955910176038742,-0.0051836804486811
2.302679443359375,-2.872686018356681,-3.306963570562005,8.473767073035239,0.5430911183357239,-0.2299599051475525,-0.023283589631319
2.312659423828125,-2.698275792390108,-3.231756938408315,8.307130988201498,0.4984085857868194,-0.2266667187213897,-0.0329476557672023
2.322639404296875,-2.576027130815387,-3.3136934633389115,8.234555581334233,0.4511893987655639,-0.1791668534278869,-0.043260745704174
2.332618408203125,-2.3974834583058957,-3.4061271246254443,8.163886884871125,0.4231817722320556,-0.1506999731063842,-0.0587552934885025
2.342598388671875,-2.122111981204152,-3.592290039967,8.100257585525512,0.4356088638305664,-0.1205039918422699,-0.0755955278873443
2.352577392578125,-1.9467340792492032,-3.814986742457747,8.196676224794983,0.4861229360103607,-0.0961546227335929,-0.0795937404036521
2.36255712890625,-1.8032336630702015,-3.9666859549224376,8.1689324778229,0.5485285520553589,-0.0722210630774498,-0.0542319305241107
2.372537109375,-1.634685022613406,-4.077037257954478,7.943892134815454,0.6285498142242432,-0.0294537935405969,-0.0145887359976768
2.382516357421875,-1.4669859847232698,-4.213766864824295,7.631203903493285,0.722923994064331,0.0561330132186412,0.0363615304231643
2.392496337890625,-1.329967331779003,-4.253046151289343,7.321812960150837,0.8152042627334595,0.1587062180042266,0.0997269228100776
2.4024755859375,-1.3801219402626157,-4.00922102831304,6.7085530517578125,0.8958846926689148,0.258048266172409,0.1968348324298858
2.41245556640625,-1.442140297280252,-3.366623381754756,5.67989331010878,0.9675678014755248,0.3700386583805084,0.2817161381244659
2.422435302734375,-1.1719181657657027,-2.373524198308587,4.43416376594007,1.0002590417861938,0.4819414913654327,0.357816219329834
2.43241455078125,-0.4598313879176974,-0.8560184250511228,2.109073635932803,0.9088078141212464,0.5322882533073425,0.4792005717754364
2.44239453125,0.6244575942337512,1.1882048453085123,-1.8683283587932584,0.5809500217437744,0.5334613919258118,0.6909645199775696
2.452373291015625,1.433579974205792,4.004170466925204,-7.225538113266229,0.025642117485404,0.4401531219482422,0.9971528053283693
2.462353515625,2.086894537350535,7.21156628653705,-12.69097560274601,-0.636330783367157,0.1703234910964965,1.270851731300354
2.472332275390625,2.6037615254372355,9.831108733952044,-16.85496925961971,-1.1860271692276,-0.366104781627655,1.4087847471237185
2.482312255859375,3.232253489753604,10.76587613993883,-18.762057264918088,-1.4546749591827393,-1.026291012763977,1.390123724937439
2.49229248046875,4.546465033996105,10.144939705568552,-18.994537987059356,-1.4470295906066897,-1.5247803926467896,1.2869815826416016
2.502271240234375,6.2138593170344825,9.247995542019606,-19.18834791002273,-1.2520744800567627,-1.644242286682129,1.1014127731323242
2.512251220703125,7.873293580979109,8.325343521240352,-19.19100865366459,-0.9368431568145752,-1.2663931846618652,0.8229544162750244
2.522230224609375,8.893460804092884,6.947984323689341,-18.743392311936617,-0.5830046534538269,-0.5555406808853149,0.5692078471183777
2.53221044921875,8.960469809004664,5.250936660665273,-18.2779878000617,-0.2304985225200653,0.1232096776366233,0.4362023770809173
2.5421904296875,7.875089232224226,4.225297728142142,-17.847499118745326,0.0933913961052894,0.4484319984912872,0.42890664935112
2.55216943359375,6.254844822895526,4.222011838339269,-17.30723488845825,0.3352268934249878,0.4334455132484436,0.4475334882736206
2.5621494140625,4.81536176212579,4.343267397223412,-16.36640248334408,0.4591198265552521,0.2636902928352356,0.412499338388443
2.57212841796875,3.730808283819258,4.187793634656072,-15.114890848642586,0.5138645768165588,0.112208791077137,0.2707712650299072
2.5821083984375,3.141837013508379,3.9708296305984256,-13.36991180614233,0.578554093837738,0.0587514266371727,-0.0070734107866883
2.59208837890625,3.014000907190144,3.8957650372639296,-11.257914976239205,0.6603445410728455,0.0962750986218452,-0.3934176564216614
2.6020673828125,3.0972604974180458,3.980411113414168,-9.204727478179334,0.7204959988594055,0.1968168765306472,-0.8214557766914368
2.61204736328125,2.987728109553456,3.984988504332304,-7.417722480854391,0.6798949837684631,0.3244303464889526,-1.2011524438858032
2.6220263671875,2.5166142801210283,3.6143209622502326,-5.905087966895104,0.5196893215179443,0.4618119299411773,-1.4778894186019895
2.632006103515625,1.812439298310876,2.8445325215399264,-4.44968048402369,0.2705422043800354,0.5939761400222778,-1.6463137865066528
2.6419853515625,1.1467632662430405,1.6411488118000328,-2.834828289127349,-0.0163273625075817,0.6474795341491699,-1.7253316640853882
2.65196533203125,0.6142059570714831,-0.0360435194142162,-1.0866261929273604,-0.2727828025817871,0.6639494299888611,-1.727643609046936
2.6619453125,0.061882747939229,-1.7432715079300105,0.6625982320576905,-0.4458776116371155,0.6448414921760559,-1.658300757408142
2.671924560546875,-0.4491527575150132,-3.1558439115509387,2.1661218033224343,-0.5063961148262024,0.5993262529373169,-1.5202902555465698
2.681904541015625,-0.9257026405215264,-4.240950055304169,3.483753385141492,-0.4389992356300354,0.5412464141845703,-1.3173725605010986
2.691883544921875,-1.5131027159929276,-5.043640648663044,4.69149718978703,-0.2709087133407593,0.501048743724823,-1.052175521850586
2.701863525390625,-2.2258879974991084,-5.474813805112243,5.91600274414122,-0.0288318842649459,0.4733380079269409,-0.7398757338523865
2.711843505859375,-2.9228762826755643,-5.483291126078367,7.060269225132465,0.239703431725502,0.4039293825626373,-0.4059037864208221
2.721822265625,-3.576228255221248,-5.194375984531641,8.118443815079331,0.4914869368076324,0.2569407224655151,-0.0753130763769149
2.731802490234375,-4.21619175388366,-4.662313473139703,9.094341103833914,0.682097315788269,0.0077009927481412,0.2264752835035324
2.74178125,-4.616502154557407,-4.01912516721189,9.90495255331993,0.7977200746536255,-0.3294221758842468,0.4779413640499115
2.75176123046875,-4.809822540438175,-3.4533594159215686,10.647063882553576,0.8137882947921753,-0.6598206758499146,0.6807170510292053
2.761741455078125,-4.871828914757073,-3.073740505620837,11.264910534214971,0.7151461243629456,-0.9383037090301514,0.834956169128418
2.77172021484375,-4.666986141125857,-2.8266192637085914,11.621478239274024,0.5139986276626587,-1.0992437601089478,0.9462330341339112
2.7817001953125,-4.281790599736572,-2.682260477134585,11.770158396178484,0.2152756005525589,-1.0805853605270386,1.0336263179779053
2.79167919921875,-3.8714720152676105,-2.602165196156501,11.77728839418888,-0.143908604979515,-0.9370056390762328,1.1199318170547483
2.8016591796875,-3.5345486296162005,-2.629495393891633,11.587478939038514,-0.5057349801063538,-0.7604279518127441,1.1935999393463137
2.811638427734375,-3.374135657081008,-2.7818811273157595,11.333375583153964,-0.7901372313499451,-0.6212237477302551,1.2252002954483032
2.8216181640625,-3.294882379885017,-2.8904046303987503,11.126526145875454,-0.9372001886367798,-0.5634512901306152,1.2122613191604614
2.83159814453125,-3.219046802178025,-2.900613305202126,10.82417752225995,-0.9468178153038024,-0.5250699520111084,1.175590753555298
2.841577392578125,-3.208677968376875,-2.909619618478417,10.597776996815204,-0.8541669845581055,-0.5095160007476807,1.1074692010879517
2.85155712890625,-3.130587597480416,-2.906066602171957,10.247398209524157,-0.7058936357498169,-0.5336199998855591,1.0040020942687988
2.8615361328125,-3.0113895556479693,-2.866762181265652,9.74478595676124,-0.5425893664360046,-0.5679566860198975,0.8768243789672852
2.87151611328125,-2.8930636204749343,-2.8380744314417243,9.238262083512543,-0.3872817158699035,-0.593325674533844,0.7533833980560303
2.88149609375,-2.737276846435666,-2.904868040037155,8.86422360369265,-0.252239465713501,-0.5809390544891357,0.6292350888252258
2.89147509765625,-2.5608757389128205,-2.984523760554194,8.676160699948667,-0.1321019381284713,-0.5225550532341003,0.491579920053482
2.901455078125,-2.2815470486178997,-3.0095488962173462,8.514862469011545,-0.0309215299785137,-0.4299084544181824,0.3503487408161163
2.91143408203125,-2.084873114525527,-3.0337726523697373,8.253729652881622,0.0725035294890403,-0.2911340892314911,0.2221543192863464
2.921414306640625,-2.123054668881744,-2.926304211297631,8.016055453750491,0.1930459290742874,-0.1303292512893676,0.0934549421072006
2.93139404296875,-2.056130858035385,-2.5524916491881013,7.868107702773809,0.3289192318916321,-0.0062049501575529,-0.0614046342670917
2.941373291015625,-1.8327170933164656,-2.099146554549783,7.598547250038385,0.4667314291000366,0.0404901169240474,-0.2495609521865844
2.951353271484375,-1.5676201958611606,-1.6670473692968486,7.169992167133093,0.5903342962265015,0.0798895582556724,-0.4137603640556335
2.961332275390625,-1.3184050504095852,-1.226726445274055,6.493654163536429,0.6475874185562134,0.1151538044214248,-0.5126880407333374
2.971312255859375,-0.8698268779121339,-0.6525881485663354,5.075730900406837,0.567782461643219,0.176749587059021,-0.501968502998352
2.9812919921875,-0.5121588103957474,0.0086418638780713,2.6689661112755534,0.3359617292881012,0.3205328583717346,-0.3813624680042267
2.991271240234375,-0.2266745200805366,1.03880821069777,-0.6063385846972466,-0.0071096769534051,0.5174547433853149,-0.2429311573505401
3.001251220703125,0.4167307895988226,2.809845823562145,-4.531510041448474,-0.3620307743549347,0.6411707997322083,-0.1753435879945755
3.01122998046875,1.5035441756613552,5.359398204427957,-8.920420122689007,-0.6014386415481567,0.6477596759796143,-0.2189534604549408
3.021210205078125,2.636552618926763,8.582503342086076,-13.207454468297955,-0.6047627925872803,0.5941449403762817,-0.3776003420352936
3.0311904296875,3.531692947924137,11.985677462124825,-16.196077480864524,-0.3789266347885132,0.4812540411949157,-0.6287464499473572
3.0411689453125,4.455440947246551,14.025131618386506,-17.129376567864416,-0.1599056124687194,0.2809307873249054,-0.8215609192848206
3.0511494140625,5.293849919718504,13.879418494594097,-17.720103741931915,-0.2901097238063812,0.1407738626003265,-0.7822071313858032
3.061128173828125,5.503085375350714,12.22962533469796,-19.16772831584215,-0.8158318400382996,0.0896414369344711,-0.5254315137863159
3.071108154296875,5.567361740428209,9.806044435322285,-20.58604730029106,-1.452155351638794,-0.0297556966543197,-0.1506124436855316
3.08108740234375,5.649304695099592,7.489164499777555,-21.084723967170717,-1.887977123260498,-0.1697077453136444,0.2715577185153961
3.091067138671875,5.927281094002724,6.166336518359184,-20.881796671772,-1.930107831954956,-0.3214230239391327,0.5830811858177185
3.101047119140625,6.56084787736535,5.663374136984348,-20.49739169623852,-1.5531874895095823,-0.4436996877193451,0.7411909699440002
3.111026123046875,6.8483648425519466,4.99297662935257,-19.225259298312665,-0.9074990749359132,-0.477831095457077,0.7767385244369507
3.121006103515625,6.696274584943056,3.8921898091256617,-16.871414198464155,-0.262059599161148,-0.3942323625087738,0.7016067504882812
3.1309853515625,6.415667837536335,2.8507942122831937,-14.449257194411754,0.1713736206293106,-0.2042597383260727,0.5099563002586365
3.140965087890625,6.153136845046282,2.0516919988051057,-12.587688246750831,0.3453153371810913,0.0599585883319377,0.2527860105037689
3.150945068359375,5.665665462791919,1.3532798183053731,-11.048346343129872,0.3666274547576904,0.3365898430347442,-0.0176115594804286
3.160924072265625,4.87199170410335,0.7081900626704096,-9.289580767339467,0.3263287842273712,0.4970477223396301,-0.2671675980091095
3.170904052734375,3.882580853781104,0.0616997925877571,-7.439540344908833,0.2814314067363739,0.5019493103027344,-0.4882596135139465
3.180883056640625,2.899919185458124,-0.6411550465345383,-5.607171772769093,0.2747348845005035,0.4117001295089721,-0.678907036781311
3.19086328125,2.0996265931516884,-1.6290929016947746,-3.506925586414337,0.3312430381774902,0.3331611454486847,-0.8150449395179749
3.20084326171875,1.2808728998728096,-2.9338135640144345,-1.1512164462596175,0.4466378092765808,0.3141107559204101,-0.8679038882255554
3.210822265625,0.2458633508056402,-4.168176787777245,1.3942062874555587,0.5895969867706299,0.4036739766597748,-0.7932162284851074
3.220802001953125,-1.1003154033228757,-4.951331782799959,3.7745232146441934,0.7253761291503906,0.4474100172519684,-0.6256495714187622
3.23078125,-2.1001921180799603,-5.313137388512492,5.68584257390201,0.8321340084075928,0.3364187777042389,-0.453398585319519
3.24076123046875,-2.7884640128374096,-5.550360336744785,7.106016830828786,0.8960295915603638,0.1085595041513443,-0.2830604016780853
3.250740234375,-3.5129733421459792,-5.670171542039514,8.149836732208728,0.9368560910224916,-0.1440906524658203,-0.0978308916091919
3.26072021484375,-4.034319521473348,-5.630687672913075,9.039612319302558,0.9649660587310792,-0.3559946715831756,0.0731560289859771
3.2707001953125,-4.162678190360963,-5.362706598323583,9.78262731937766,0.9884823560714722,-0.5126945972442627,0.1746343076229095
3.28067919921875,-3.9124382319062954,-4.957329561910033,10.294725777888296,0.9871186017990112,-0.6328215003013611,0.2111164182424545
3.2906591796875,-3.5696389399588107,-4.594995548409223,10.546101754635572,0.9534786343574524,-0.7266379594802856,0.1991541385650634
3.300637939453125,-3.255563638192415,-4.391522894087434,10.7066968057394,0.9094182252883912,-0.786547064781189,0.1418884396553039
3.3106181640625,-2.8502950305894017,-4.276690061727166,10.947091954267025,0.8651442527770996,-0.7926792502403259,0.0557394884526729
3.320598388671875,-2.381141833705455,-4.2403348460152746,11.153043565922976,0.8187636733055115,-0.7738693952560425,-0.0391356237232685
3.3305771484375,-2.044772574805468,-4.338496237298846,11.07552544195652,0.7990233898162842,-0.6752197742462158,-0.089702658355236
3.34055712890625,-2.0841523990355437,-4.416102331809699,10.891010586082936,0.8225239515304565,-0.5008242726325989,-0.0420464538037776
3.350536376953125,-2.3630128872968257,-4.17425669221282,10.773741466486454,0.8731333613395691,-0.3977718651294708,0.0743055567145347
3.36051611328125,-2.577822782060504,-3.711922673824429,10.56164419168234,0.9392407536506652,-0.4024275839328766,0.2093736231327057
3.37049609375,-2.670679344934225,-3.3159353970468044,10.547565397447348,1.004839301109314,-0.4638230800628662,0.3276311755180359
3.38047509765625,-2.67054022872448,-3.098959702551365,10.687406414335966,1.0473233461380005,-0.5406587719917297,0.4074114859104156
3.390455078125,-2.5912659087404606,-2.851155739071965,10.769095686507224,1.049597144126892,-0.5920789241790771,0.4439364969730377
3.400434326171875,-2.381354161281884,-2.520365449348092,10.665899515926837,1.0102518796920776,-0.6060208082199097,0.4263681471347809
3.4104140625,-1.997347975807637,-2.304724948979169,10.366562349087,0.9515975713729858,-0.4811596274375915,0.3736404776573181
3.42039404296875,-1.7522158618859949,-2.1972109151996677,10.076603251445292,0.9012033939361572,-0.2595606446266174,0.2874520719051361
3.430373291015625,-1.366592304342985,-2.1699175423435864,9.863929638057948,0.8742864727973938,0.005250884220004,0.1572203040122985
3.440353271484375,-0.9425564524278044,-2.258078202486038,9.719193250343205,0.8743221759796143,0.3118166923522949,-0.0309762246906757
3.45033203125,-0.7181861176364124,-2.3562381324648856,9.554602992123366,0.8862466812133789,0.5686508417129517,-0.2369165271520614
3.4603125,-0.6910381446003914,-2.4611302933081984,9.195891260772942,0.8537326455116272,0.8025069832801819,-0.3926177024841308
3.470292236328125,-0.9156411191038788,-2.5634292227879163,8.511878484764695,0.8008171319961548,1.0167605876922607,-0.503544270992279
3.480271240234375,-1.2251968976192176,-2.7155203571796416,7.787821867659687,0.7522117495536804,1.2710983753204346,-0.5791738033294678
3.490251220703125,-1.5655806528575718,-2.7175200065642597,6.829070944017172,0.7182990312576294,1.4686325788497925,-0.630266547203064
3.500230224609375,-1.3853205318190156,-2.719609380058944,5.610826788145303,0.7531600594520569,1.5695959329605105,-0.699820339679718
3.510210205078125,-1.064024338888377,-2.805129608695209,4.501246420609951,0.8820417523384094,1.6224477291107178,-0.7706695795059204
3.52018994140625,-0.553610326333344,-2.591270877176523,3.3390590830028053,1.068209171295166,1.554532527923584,-0.7875353693962097
3.530169189453125,-0.0778255824804306,-1.6493128290332852,1.368100955340266,1.2039411067962646,1.46537983417511,-0.6578967571258545
3.540149169921875,0.0958244727686047,0.0103862781262956,-1.2188058814078568,1.1818459033966064,1.417039155960083,-0.3551837205886841
3.550128173828125,0.3481047048792243,1.9124176758885385,-4.345403532469272,0.8947108387947083,1.2380266189575195,0.0935482680797576
3.560108154296875,0.5392188128873705,3.4844773155018687,-8.127112859225273,0.3503985106945038,0.8689266443252563,0.7345202565193176
3.5700869140625,0.3875584711283445,4.81363654576838,-12.312334013044833,-0.408684492111206,0.3170213103294372,1.537656307220459
3.5800673828125,0.3053878451809287,6.634973436284064,-17.07787668225169,-1.2510607242584229,-0.4796217679977417,2.340850591659546
3.59004736328125,0.7977519679129124,8.315787757387756,-21.28344504305124,-1.8798645734786987,-1.269481182098389,2.9154648780822754
3.600026123046875,2.2555971993252637,8.571219731527567,-22.678523437166213,-2.09882926940918,-1.790374755859375,3.08060073852539
3.61000634765625,4.5516345455884935,7.468834243932366,-21.630480365133284,-1.9239845275878904,-1.8676913976669312,2.8051087856292725
3.619985107421875,6.996995899617672,6.260503579309583,-20.24893248372078,-1.507829666137695,-1.4095416069030762,2.189857006072998
3.629965087890625,8.823734356915951,5.136462724745273,-19.044633851093053,-0.991530179977417,-0.6174368858337402,1.452343463897705
3.6399453125,9.446748182082176,4.331075147387385,-18.298831850647925,-0.5316744446754456,0.1155417561531066,0.8063777685165405
3.649924072265625,8.667210500773788,4.398680364626646,-17.839591706621647,-0.2601560056209564,0.5380944609642029,0.3891974985599518
3.659904052734375,7.006428329351544,5.21862253703773,-17.55685379240513,-0.2733919322490692,0.5980291962623596,0.2017628699541092
3.66988330078125,5.324857636922598,5.822875547632575,-17.270239329016206,-0.5075662136077881,0.3709227442741394,0.1482502669095993
3.679863037109375,4.017404042507708,5.348722496634721,-15.917426543700694,-0.7850157022476196,0.0870343074202537,0.1207150444388389
3.689843017578125,3.379327088244259,4.006565545368194,-13.382046480572225,-0.9757689833641052,-0.0232380758970975,0.0635972395539283
3.699822265625,3.206816558419168,2.7381349245697257,-10.59080949589014,-1.07650887966156,0.0718349143862724,-0.0415917672216892
3.70980224609375,3.015992957790196,2.039341489667445,-8.210634022998809,-1.146199107170105,0.2355808019638061,-0.1860917806625366
3.71978125,2.560231303529441,1.6982243055880069,-6.2039230294317,-1.2133920192718506,0.3186067044734955,-0.347791463136673
3.72976123046875,1.8244576528847216,1.2902929085165262,-4.248312108504772,-1.2813133001327517,0.2999942600727081,-0.4992607533931732
3.739740234375,1.0647899164333938,0.5607083217702805,-2.2535271150529383,-1.3158307075500488,0.2115663886070251,-0.6094343662261963
3.74972021484375,0.3058525400832295,-0.5886123738706112,-0.1691886919260025,-1.269330382347107,0.1458487212657928,-0.6548567414283752
3.7597001953125,-0.3298983093202114,-2.021041716736555,2.1478794596672057,-1.137434720993042,0.0646582543849945,-0.6687960028648376
3.76967919921875,-0.7191460487097502,-3.377982980158925,4.061643873989582,-0.9393517374992372,0.0338693633675575,-0.6291742920875549
3.779659912109375,-1.288916943988204,-4.435637053363025,5.483402185237408,-0.6818664073944092,0.1214873641729354,-0.504473090171814
3.789638916015625,-1.925177204218507,-5.050386031270027,6.809547328379749,-0.3742136359214782,0.2101442366838455,-0.33388152718544
3.799618896484375,-2.5217680096223947,-5.282661001706123,8.05656398974955,-0.0477367267012596,0.2270670235157013,-0.1478924751281738
3.809598876953125,-3.1980490223348137,-5.116832141602039,9.108087305113672,0.2377449125051498,0.1039239317178726,0.0019550921861082
3.819577880859375,-3.7141508712679143,-4.650792254433036,9.858726224195957,0.4550032019615173,-0.0937374830245971,0.1029304414987564
3.829557861328125,-4.021963897769153,-4.129305205330253,10.500199250638484,0.5698064565658569,-0.2710931003093719,0.1414433270692825
3.83953662109375,-4.131136512410641,-3.6696579418078064,11.032415783548354,0.5970607399940491,-0.3723054528236389,0.1069346219301223
3.849516845703125,-3.9966587761208414,-3.2845822274059056,11.411745940035582,0.5353817939758301,-0.395846426486969,-0.002796831773594
3.8594970703125,-3.622347032317519,-2.934375581811368,11.621893249815702,0.4160420596599579,-0.3276215493679046,-0.188491865992546
3.869475830078125,-3.17991978366524,-2.6807769605785605,11.73237957740426,0.2622081041336059,-0.1864429861307144,-0.4041171967983246
3.8794560546875,-2.806028603361547,-2.5132991642236706,11.678002675050497,0.1107024922966957,-0.0212843939661979,-0.6240120530128479
3.88943505859375,-2.5573469802647826,-2.330011512057483,11.473196726298331,-0.0125023517757654,0.1346227675676345,-0.7947632670402527
3.899414794921875,-2.5171032326817517,-2.158074836597592,11.07216794822216,-0.0805367976427078,0.2452107816934585,-0.8937098383903503
3.909394775390625,-2.597396374319493,-1.973118082175404,10.656294652235507,-0.1078141331672668,0.2631071209907532,-0.919672966003418
3.919373779296875,-2.7995807423964143,-1.8479072097942235,10.244895286792516,-0.119043618440628,0.1669241338968277,-0.8801865577697754
3.929353759765625,-3.051315907844901,-1.8050066640920936,9.754163441437482,-0.1274515241384506,0.0340419895946979,-0.7902284264564514
3.9393330078125,-3.228585907156765,-1.8255166604183608,9.312412776872517,-0.1353187710046768,-0.1027890890836715,-0.6769357323646545
3.949312744140625,-3.1034748418882487,-1.9767507395893331,8.962786853775382,-0.1426823735237121,-0.2569278180599212,-0.5752591490745544
3.959292724609375,-2.8420366130709644,-2.261545732466131,8.74898569766283,-0.1342129856348037,-0.4022985994815826,-0.4898986518383026
3.96927197265625,-2.6031968772917984,-2.603002523763477,8.526758658510445,-0.0907714590430259,-0.4671495854854584,-0.3969894349575043
3.979251953125,-2.4493378564447164,-2.8639567684561014,8.41233323790729,0.0029489081352949,-0.4133358895778656,-0.3131163716316223
3.989230712890625,-2.241863126874715,-2.882898200291395,8.403919045305251,0.1345598846673965,-0.3365421891212463,-0.2713260054588318
3.999211181640625,-2.0177840301148597,-2.8054382362529635,8.420610652387142,0.2906778454780578,-0.2796943485736847,-0.2879798412322998
4.00918994140625,-1.8817542420774696,-2.742788011072576,8.580386203801632,0.4412616491317749,-0.2636557221412658,-0.3588193356990814
4.019169189453125,-1.7956719956442713,-2.68447055439949,8.54422826422751,0.545493483543396,-0.2676454186439514,-0.4569613337516784
4.02914892578125,-1.7727141677744689,-2.582077516895533,8.239390161883831,0.606147825717926,-0.2725779414176941,-0.5551528334617615
4.0391279296875,-1.65682948827371,-2.454952189195156,7.784756634870171,0.6391772031784058,-0.2704407572746277,-0.6385851502418518
4.04910791015625,-1.3703627627924084,-2.4040261579476296,7.096917578572034,0.6583855748176575,-0.2529672384262085,-0.6680152416229248
4.059087890625,-0.944118002656102,-2.433807109835744,6.165694128802419,0.6562236547470093,-0.2008973807096481,-0.6292329430580139
4.06906689453125,-0.5055390999950469,-2.384634498126805,4.755688214668632,0.5835036635398865,-0.0896867364645004,-0.5148530006408691
4.079046875,-0.0105855452917516,-2.218112102800608,2.4904957962632177,0.4352806508541107,0.0442239232361316,-0.3519405424594879
4.08902587890625,0.3125419547192752,-1.8930317151561376,-0.5967226150900126,0.2513523995876312,0.2119776010513305,-0.186544269323349
4.099005859375,0.7414280231446028,-1.1252974304966628,-4.144772239053249,0.0809636041522026,0.337961882352829,-0.0235731918364763
4.10898486328125,1.0211994887709617,0.3167330497335642,-8.521923493438958,-0.0211985819041728,0.3440061509609222,0.1628317236900329
4.11896484375,1.4649964183412492,2.346224103450775,-12.738934454751014,-0.0218771547079086,0.149827092885971,0.3672716915607452
4.12894482421875,1.924920160717517,4.267247110599279,-16.047234826874732,0.0335628278553485,-0.2111095041036605,0.5860111117362976
4.138923828125,2.581985162436962,5.5091877838790415,-18.297323784172534,0.0213754028081893,-0.5793868899345398,0.7775589823722839
4.148904052734375,3.4061578120246527,5.982160685181618,-19.969395411372183,-0.1384630054235458,-0.7822725772857666,0.9332634210586548
4.1588828125,4.126488394343853,5.895046465352177,-21.430737544989583,-0.3665609061717987,-0.8215107917785645,1.017966389656067
4.168863037109375,4.8920478191822765,5.374367225500941,-22.005998269855976,-0.5329166650772095,-0.7665488719940186,0.9751063585281372
4.178843017578125,5.70063448484242,5.094033449816704,-21.90024423148632,-0.6030272841453552,-0.6782073378562927,0.800563633441925
4.18882177734375,6.384985699024796,5.403264234161377,-22.10328375508785,-0.5903933644294739,-0.5670937299728394,0.5485687255859375
4.198802001953125,6.7014347441852085,5.350847818225622,-21.858509368562697,-0.5168033242225647,-0.4221184551715851,0.2911733984947204
4.20878076171875,6.67812050409317,4.35463897832632,-20.593049872529505,-0.4492428004741668,-0.2208565473556518,0.0785373747348785
4.2187607421875,6.390393695548177,2.9547318488806487,-18.91832685403824,-0.4136890470981598,0.0417774617671966,-0.0910631120204925
4.228740966796875,5.974468377113342,1.6830585928991435,-17.283723079967498,-0.3704963326454162,0.3231543004512787,-0.1656692177057266
4.2387197265625,5.170105466628074,0.6253510359421373,-15.591404783552884,-0.2505872249603271,0.5229939222335815,-0.1277167797088623
4.24869970703125,4.137587003724277,-0.0898968362852931,-13.50036540148258,-0.0623138062655925,0.6479284763336182,0.0252755787223577
4.258678955078125,3.0030069272279736,-0.2722479382537305,-11.117833136332036,0.1088986918330192,0.655937135219574,0.2420728802680969
4.26865869140625,2.022621387143433,-0.1291118253424763,-8.571970842155814,0.1816336065530777,0.5380890965461731,0.4609469771385193
4.278637939453125,1.1251067302301525,-0.0713271603718399,-5.842567505574226,0.1639544814825058,0.3673428893089294,0.6355864405632019
4.2886181640625,0.4102561867572367,-0.2652490192770957,-2.936497688531876,0.1015999689698219,0.2287649810314178,0.7248442769050598
4.298597900390625,-0.1203485270418226,-0.6962603362280875,0.0877449189484119,0.0605191141366958,0.1752911061048507,0.7421814799308777
4.308576904296875,-0.5657683816388249,-1.228115561544895,3.0445804621100425,0.0695147067308425,0.1893487870693206,0.7105881571769714
4.318556884765625,-1.0609462466172874,-1.723223137766123,5.679938318294286,0.1357059925794601,0.2083954513072967,0.6659846901893616
4.328535888671875,-1.633086939767003,-2.133557650456577,7.723426844638586,0.240770623087883,0.178130492568016,0.6446059346199036
4.338515869140625,-2.2957763572394847,-2.5057652615875003,9.125431823146345,0.3950200974941253,0.0960108563303947,0.674536943435669
4.348495849609375,-2.9104063849419357,-2.6346613983526823,10.255871438837053,0.5838618874549866,-0.0433865338563919,0.7341789603233337
4.358474853515625,-3.393896004083752,-2.4207228795960543,11.261270131886004,0.7605692744255066,-0.1741788983345031,0.8179808855056763
4.368454833984375,-3.7957501270681617,-1.955818718458712,12.0282820936203,0.8598982691764832,-0.2912627458572387,0.9065786004066468
4.378433837890625,-3.825004278603196,-1.4415736033082007,12.447082675230504,0.850578248500824,-0.3926170468330383,0.9557602405548096
4.388413818359375,-3.6010812491878865,-1.1298640077598392,12.74433543701172,0.7494717836380005,-0.4275983572006225,0.9608234167099
4.3983935546875,-3.33865751646459,-0.8786343076154589,12.87098496389389,0.5806145668029785,-0.3819171488285064,0.9361076354980468
4.408372802734375,-3.125645464903116,-0.5633470727760345,12.75934479009509,0.3694575428962707,-0.3035084307193756,0.8909193873405457
4.41835302734375,-2.9589611570134755,-0.1619575716286897,12.461472435110808,0.1312343478202819,-0.2479391694068908,0.8304091691970825
4.42833203125,-2.902208465439081,0.1491122281787917,11.987683541250227,-0.1099714264273643,-0.1928697824478149,0.777811586856842
4.43831201171875,-3.0570567895844576,0.2728281492944807,11.469869627702236,-0.319438636302948,-0.188528835773468,0.7570900321006775
4.4482919921875,-3.293646408349276,0.2872801607560366,10.872694008147716,-0.4724255800247192,-0.2504571378231048,0.7377126812934875
4.45827099609375,-3.4334166980892418,0.1578564564527943,10.351873313999176,-0.5684692859649658,-0.3047230541706085,0.7414664030075073
4.4682509765625,-3.6832068669497966,-0.0508672867976129,9.830718273329737,-0.6283603310585022,-0.3374220728874206,0.7621234655380249
4.478229736328125,-3.71565133895874,-0.2761907575953751,9.30742446706593,-0.6552470326423645,-0.3982886075973511,0.7677257061004639
4.4882099609375,-3.630254152180254,-0.6005765871044249,8.88425458433032,-0.6419316530227661,-0.4635360836982727,0.7226173877716064
4.49818896484375,-3.443173829732835,-0.97446579464674,8.72116128666997,-0.5794439911842346,-0.4850302040576935,0.6428027153015137
4.508168701171875,-3.2326217385441063,-1.247855888672918,8.590400817337631,-0.4787159860134125,-0.5129440426826477,0.5171116590499878
4.518148681640625,-2.9038474648177623,-1.4685153862476348,8.512983231136202,-0.3317606449127197,-0.5691546201705933,0.3372465372085571
4.5281279296875,-2.610285958769917,-1.7082625922605394,8.495024380597473,-0.1399582773447036,-0.6135445833206177,0.1289136707782745
4.538107666015625,-2.363792931758612,-1.9135843815803528,8.517362469133735,0.0771790966391563,-0.6025888919830322,-0.090262085199356
4.5480869140625,-2.1262710005797443,-1.997469702491164,8.55021201481223,0.3026019632816314,-0.5392475128173828,-0.3055225908756256
4.55806689453125,-1.8767425513952969,-1.9712913051396608,8.6010917227,0.4962127208709717,-0.4785468578338623,-0.519390881061554
4.568046875,-1.6582038453668355,-1.8390850209131837,8.431129708313941,0.6457528471946716,-0.406417965888977,-0.7091768383979797
4.578026123046875,-1.5143560770548878,-1.6350900962829589,8.078129340347648,0.7520740032196045,-0.3455711305141449,-0.8592091798782349
4.588005859375,-1.3492756972305475,-1.4069212459914386,7.643135164305567,0.825985848903656,-0.3285419046878814,-0.9905429482460022
4.59798486328125,-0.9781858380831776,-1.1012224351651967,7.377743521687388,0.8463345170021057,-0.3554472923278808,-1.1073369979858398
4.607965087890625,-0.5270065431766212,-0.6952385188996791,6.733199417236447,0.7439777851104736,-0.3712978363037109,-1.1727761030197144
4.61794482421875,-0.100268300434947,-0.2524506202414632,5.023532511135936,0.473989188671112,-0.3589096069335937,-1.1272467374801636
4.627923828125,0.3258809634376317,0.0937991774860769,2.233771444225311,0.0419218726456165,-0.3228773772716522,-0.9112101197242736
4.637904052734375,0.4155043896090239,0.2947727084685116,-1.507288476756215,-0.512335479259491,-0.2589175701141357,-0.5328630805015564
4.647884765625,0.3697935357265174,0.5830388845872133,-5.777113328889012,-1.1002827882766724,-0.2438380718231201,-0.1015181541442871
4.657864013671875,0.589751826229319,1.3778043109700082,-10.59340243499279,-1.5443694591522217,-0.3783439695835113,0.2348004728555679
4.667843994140625,1.1640203982532025,2.88083717610836,-15.615841305673122,-1.6528725624084473,-0.6057767868041992,0.3963774740695953
4.677822998046875,2.0739526381909847,4.818289924532174,-20.09601454311609,-1.356276273727417,-0.7960375547409058,0.3773640990257263
4.687802978515625,3.137810534471273,6.438482895934581,-23.82043371042013,-0.7718062400817871,-0.7578474283218384,0.2594102025032043
4.697782958984375,3.580679681672156,6.884442118105292,-26.219236726891992,-0.098620131611824,-0.4774522483348846,0.100364089012146
4.707761962890625,3.863711902660131,6.01785334533155,-26.65904268712997,0.4870565533638,-0.1211414337158203,-0.082344114780426
4.717741943359375,4.025567767480015,5.383520253771543,-25.748675562906264,0.8807439208030701,0.194437026977539,-0.2614012062549591
4.727720703125,3.741495682050288,5.620743786525726,-24.23616204497814,1.081264615058899,0.4023039937019348,-0.3823894560337066
4.737700927734375,3.25356720367819,5.931924535894393,-22.05928796149492,1.12970769405365,0.4534228146076202,-0.4331274628639221
4.747680908203125,2.826163336634636,6.167604930859804,-19.45885528821945,1.014499306678772,0.3795493245124817,-0.3771084547042846
4.75765966796875,2.319119823426008,6.318060280743241,-16.98496692788601,0.718597412109375,0.2201596945524215,-0.2372030317783355
4.767639892578125,1.7878183595344423,5.967125613135099,-14.695900881940126,0.2911061644554138,0.060488648712635,-0.0220559779554605
4.777618408203125,1.2361534681804478,4.927512515795231,-12.272380772840975,-0.1653167605400085,-0.0464162267744541,0.247218370437622
4.787598388671875,0.7569551164917647,3.4508003790885207,-9.534794714325663,-0.5824922323226929,-0.1321185082197189,0.4871348440647125
4.79757861328125,0.434155167934671,2.0048310250394046,-6.96872608294487,-0.9126541614532472,-0.2106015980243683,0.6428642272949219
4.807557373046875,0.1736686868842691,0.8320787465371191,-5.195892818835377,-1.0862842798233032,-0.2851880490779876,0.7249261140823364
4.817537353515625,-0.19042159569934,-0.2200888580799102,-3.665881053617596,-1.0226964950561523,-0.3675289750099182,0.7128633260726929
4.8275166015625,-0.4705662054870277,-1.1069990458052603,-1.7022645208895206,-0.7467383146286011,-0.4257701337337494,0.5857875943183899
4.837496337890625,-0.5957567657325417,-1.8610358636975288,0.5961801787763834,-0.3487459421157837,-0.4711945950984955,0.3599241375923157
4.8474765625,-0.6237520032476633,-2.570207630881667,2.9852035595119,0.0779332444071769,-0.4842509329319,0.0502407178282737
4.857455322265625,-0.5517611182700842,-2.9652298620194197,5.226086881569028,0.4505161345005035,-0.4854967594146728,-0.3210042119026184
4.867435546875,-0.5203477428745478,-3.0120152863308784,6.997599710729718,0.730139434337616,-0.4596738219261169,-0.7134183049201965
4.877414794921875,-0.4511443697236478,-2.8677108602926134,8.498856506106257,0.9102575778961182,-0.3985148668289184,-1.1067216396331787
4.88739453125,-0.3947673065286129,-2.6855875757306813,9.870064779812097,1.01271390914917,-0.2897132039070129,-1.4752061367034912
4.89737353515625,-0.4104047649150714,-2.4528455723047253,11.109857919669151,1.0273256301879885,-0.1427173763513565,-1.78538179397583
4.907353759765625,-0.4579902535630389,-2.094954363556951,12.026048050957918,0.9808976650238036,-0.0194589048624038,-2.0352046489715576
4.91733349609375,-0.391747666446492,-1.7453747638195751,12.7138958750844,0.8823769092559814,0.0553551539778709,-2.2284975051879883
4.9273125,-0.2901572870949283,-1.4636507028207182,13.207943128597735,0.7502069473266602,0.094397947192192,-2.345196485519409
4.937292236328125,-0.1843001902095973,-1.194056932337582,13.503353477382658,0.5789952278137207,0.1211416721343994,-2.378128290176392
4.947271484375,-0.1657134900961071,-0.9098390086963772,13.453194484984872,0.3755788207054138,0.1591218113899231,-2.3113160133361816
4.95725146484375,-0.1571755980491638,-0.7168462473347783,13.262062841320038,0.1632822751998901,0.2047729194164276,-2.1620826721191406
4.967231201171875,-0.161419446163997,-0.6682015319574623,13.003228365260362,-0.0482585802674293,0.1817657947540283,-1.9552505016326904
4.97721044921875,-0.2339043982688337,-0.7369983701340854,12.595068420130014,-0.2597047984600067,0.0588121823966503,-1.713504195213318
4.987190673828125,-0.2587718591522425,-0.9551109597049652,12.021814943432808,-0.4553932845592499,-0.0989573001861572,-1.443679690361023
4.99716943359375,-0.3631824104910716,-1.350432319919765,11.433068129527568,-0.6349518299102783,-0.1313439905643463,-1.1358777284622192
5.007149658203125,-0.6167361331362277,-1.6701942890204489,10.76904775571227,-0.7810986638069153,-0.0110594201833009,-0.8189038634300232
5.017129638671875,-0.4645082936875522,-1.7962587094910445,9.965872593706846,-0.8474172353744507,0.1196836754679679,-0.5650646686553955
5.027108642578125,0.0121634256003424,-2.2059283285319804,9.421963284915686,-0.8129502534866333,0.2036594450473785,-0.3830316662788391
5.037088623046875,0.071906640760228,-2.753603127336502,9.14227891305089,-0.6877569556236267,0.2890789806842804,-0.2580465674400329
5.0470673828125,0.1982541159559041,-3.05275324717164,9.010714141598344,-0.4908622801303863,0.3652927577495575,-0.1772513091564178
5.057047607421875,0.3483509347252547,-3.066110156872868,8.901154865726829,-0.2630272507667541,0.3934703171253204,-0.1572150141000747
5.067026611328125,0.4698091765746474,-3.086059304445982,8.751353011316061,-0.0625042840838432,0.3758479058742523,-0.1724053025245666
5.07700634765625,0.3332620135996491,-3.137568542408943,8.364789980965853,0.0782845318317413,0.4602991342544555,-0.2043097019195556
5.086986572265625,0.2383693417884409,-2.979659953910112,8.028908505582809,0.1714403182268142,0.6355506181716919,-0.2625595331192016
5.09696533203125,0.4383561267558485,-2.7677412505432963,7.730572624740004,0.2670818865299225,0.7655954360961914,-0.3583113551139831
5.1069453125,0.7287144528482109,-2.8476772493064404,7.626316131451725,0.3872574865818023,0.7873519659042358,-0.4727064967155456
5.116924560546875,0.8519621353976428,-3.1307942259684203,7.661134346854686,0.5142250061035156,0.6757463216781616,-0.5737319588661194
5.126904541015625,0.9060632895499467,-3.188083216376602,7.282486911934614,0.6122521758079529,0.6025005578994751,-0.6316911578178406
5.136884521484375,0.8362817511849104,-2.9549682879850265,6.4528709022492166,0.6481270790100098,0.6334406137466431,-0.6401930451393127
5.14686376953125,0.9850544086784124,-2.619938460995257,5.006350490188599,0.5871208906173706,0.6816397905349731,-0.6153572797775269
5.156843505859375,1.3667692683450876,-2.427197336307168,2.7391759580552577,0.4198426604270935,0.769670307636261,-0.506766140460968
5.166822509765625,1.4708428062818943,-2.194741602476686,-0.2963262945860624,0.1235692575573921,0.9304448962211608,-0.2882305383682251
5.176802734375,1.3940281544096766,-1.4679168358325958,-4.476902837470173,-0.2785896360874176,1.0435551404953003,0.0449184104800224
5.186782470703125,1.115687013847381,-0.4050143405809998,-9.280607187288998,-0.5811406970024109,0.9146089553833008,0.4057509005069732
5.196761474609375,1.2447238742575049,1.2593220161914824,-13.562390188241004,-0.6773186326026917,0.5288686752319336,0.7127478718757629
5.206741455078125,1.977185916136205,3.222030786424875,-17.05651942144632,-0.6734722852706909,0.122694194316864,0.9600430727005004
5.216720458984375,2.9573838246941566,4.483922653104365,-20.231148989748952,-0.7016720175743103,-0.0872193500399589,1.0959399938583374
5.226700439453125,4.00599563652575,4.96697651117742,-23.07069086339473,-0.6850464344024658,-0.0602523535490036,1.126275658607483
5.236679443359375,4.58940751914382,4.634363974462449,-24.00012742974758,-0.5121399164199829,0.0473089963197708,1.0609480142593384
5.246659423828125,4.897347094634175,4.102445255455375,-23.37387301522493,-0.2470062375068664,0.1627067923545837,0.9016667604446412
5.2566396484375,4.997252991497517,4.194031067740917,-22.300220870161056,-0.0568842440843582,0.2764194905757904,0.669674277305603
5.26661865234375,4.974971601584554,4.618687389642,-21.331852807867527,-0.0072174025699496,0.3881027400493622,0.4229357242584228
5.2765986328125,4.7422635004282,4.905094347760081,-20.32677677090168,-0.0654902905225753,0.4703280925750732,0.2249212116003036
5.28657763671875,4.28278136433959,4.931882401442527,-19.256088151818517,-0.1660866141319275,0.5235954523086548,0.0971400514245033
5.2965576171875,3.658597618611157,4.64904979467988,-17.93297959989309,-0.2519381642341614,0.5307372212409973,0.0396629087626934
5.30653759765625,2.904939351707697,4.019291755950451,-16.06299353702068,-0.2943049967288971,0.4769074916839599,0.0461910963058471
5.316516357421875,2.0504203714340923,3.1443191857129333,-13.888466893446443,-0.2910029292106628,0.3578974604606628,0.0876703634858131
5.32649658203125,1.2421101846277711,2.251322590745985,-11.51501225324273,-0.2701787054538727,0.1988804191350937,0.1380850970745086
5.336475341796875,0.5904211768582462,1.6724188332021237,-9.180780785402655,-0.287044495344162,0.0170839931815862,0.1831628233194351
5.346455322265625,0.0814098707079887,1.34748063050732,-7.074177338975668,-0.3293887674808502,-0.1779595166444778,0.1916227340698242
5.3564345703125,-0.3215639039561152,0.9491976440079508,-4.895450905624032,-0.3268574178218841,-0.329522967338562,0.128702625632286
5.366414306640625,-0.5409970746062696,0.3115425684183835,-2.2389777806967497,-0.2167869955301284,-0.4091626107692718,0.0119297802448272
5.376394287109375,-0.6040187634475529,-0.476992073816061,0.7397212192267179,-0.0289960484951734,-0.4140580296516418,-0.149695336818695
5.38637353515625,-0.5776654479205608,-1.222703108042106,3.665993281820416,0.1933039724826812,-0.3786790370941162,-0.3258394598960876
5.396353515625,-0.6761388277627527,-1.811963205231726,6.255057588863372,0.3795878291130066,-0.329678475856781,-0.4662538468837738
5.40633251953125,-0.9341288158223032,-2.25028915604502,8.266790209984778,0.4879657328128814,-0.2888029515743255,-0.5532938838005066
5.416312744140625,-1.2724018625169993,-2.5679016920268536,9.891987857806685,0.5069298148155212,-0.2458389848470688,-0.569625973701477
5.42629248046875,-1.7686648923836648,-2.808917018279433,11.135731196594238,0.4525710940361023,-0.1807673126459121,-0.51292484998703
5.436271728515625,-2.305435143075138,-2.824704662258923,12.009561026537416,0.3507254123687744,-0.1237418502569198,-0.3939632773399353
5.44625146484375,-2.7668729432761667,-2.586602885365486,12.524949174243211,0.2384585887193679,-0.0559781938791275,-0.2450388669967651
5.45623046875,-3.1179397128313777,-2.161374024273455,12.79820965054035,0.1551509201526641,-0.0201424323022365,-0.1210095882415771
5.466210693359375,-3.067073448947072,-1.6170359686762092,12.926931892043353,0.1080241948366165,-0.0721535384654998,-0.0504154898226261
5.4761904296875,-2.854545966032147,-1.1523305449813603,12.869876710391043,0.0774942487478256,-0.146378219127655,-0.0043172370642423
5.48616943359375,-2.608796596994996,-0.7804065000321716,12.848413066601752,-0.0011158448178321,-0.2209209203720092,0.0388667620718479
5.4961494140625,-2.4810040375575424,-0.6847418209351599,12.50573944686055,-0.1476110070943832,-0.2560264468193054,0.1348372250795364
5.50612841796875,-2.6086802771389483,-0.7048433825910091,11.867716268610954,-0.3742806017398834,-0.2345540821552276,0.2993856966495514
5.5161083984375,-2.8313544755369424,-0.648204234393686,10.972261466836928,-0.6217556595802307,-0.2672116458415985,0.495695024728775
5.526088623046875,-2.851959456670284,-0.6862975990097969,10.011559993648529,-0.7819956541061401,-0.3205043375492096,0.6548625230789185
5.536067626953125,-2.783080566233396,-0.8771887849822639,9.525026769027113,-0.8152444362640381,-0.3526220619678497,0.7501299381256104
5.546047607421875,-2.804385220068693,-1.2444395043581724,9.16685688946843,-0.7395569086074829,-0.3848917484283447,0.7794171571731567
5.556026611328125,-2.7039173054084182,-1.649280095807463,8.7569106454432,-0.5922028422355652,-0.448637992143631,0.7432160377502441
5.566006591796875,-2.636473416210711,-1.877499507242441,8.412171325343847,-0.4140645563602447,-0.5199436545372009,0.6528748273849487
5.5759853515625,-2.6146973454713818,-1.93736317044422,8.187538978615402,-0.2485773265361786,-0.5627419948577881,0.533004879951477
5.585965576171875,-2.4871336263537405,-1.956108349055052,7.893405810159444,-0.1100288778543472,-0.5645267367362976,0.3717145919799804
5.595945556640625,-2.1242888868518173,-2.030440390331298,7.667064321425556,0.025240795686841,-0.529534101486206,0.1607498973608017
5.60592431640625,-1.6545032372832298,-2.1535573591731487,7.745535800594091,0.1498796492815017,-0.4479762315750122,-0.0625927522778511
5.615904541015625,-1.25713502754122,-2.2612439730405804,7.931876702851056,0.2731826603412628,-0.3199522197246551,-0.3023299872875213
5.625883544921875,-0.8532059249136597,-2.3152153633333743,8.229490699160099,0.3903965950012207,-0.1775058209896087,-0.5281689167022705
5.63586328125,-0.5848429383344947,-2.2963488964304326,8.43536456940472,0.4984040260314941,-0.0233309008181095,-0.7243937849998474
5.645843505859375,-0.342909839649871,-2.2824384444996717,8.536461137357353,0.5659746527671814,0.1246939301490783,-0.8524232506752014
5.655822509765625,-0.231006119544059,-2.335084577538073,8.512042150893807,0.6086310744285583,0.2581361532211303,-0.9385879635810852
5.665802490234375,0.0724548492275178,-2.4570447775602338,8.400707682043313,0.6292105913162231,0.3824799656867981,-0.9903222918510436
5.67578173828125,0.313026377235353,-2.563866152900457,8.028173761567473,0.6084922552108765,0.5285926461219788,-0.9726658463478088
5.68576171875,0.493245581741631,-2.6120950540184973,7.156312601348757,0.5250533223152161,0.6157524585723877,-0.8310859203338623
5.695740478515625,0.3535413429751992,-2.781932857502997,5.489678781288862,0.3775049149990082,0.6018675565719604,-0.5808103084564209
5.705720703125,0.207469761133939,-2.8822032037645577,3.189660548695921,0.1703042536973953,0.5248407125473022,-0.2696932852268219
5.715700439453125,0.4888458854779601,-2.7753409118920565,0.3462269283086061,-0.1132789850234985,0.4833332598209381,0.0091543430462479
5.725679443359375,1.1905039160311222,-2.4451021185711026,-3.410204164806008,-0.4675570428371429,0.5201058983802795,0.2325863540172577
5.73565966796875,1.9527353654906152,-1.8499504060596224,-8.259278519180416,-0.7650215029716492,0.5835786461830139,0.419540524482727
5.745638427734375,2.7542265199318527,-1.0580436570435765,-13.139533024716377,-0.7811148762702942,0.5720690488815308,0.5671481490135193
5.755618408203125,3.698393330165744,-0.0066449909724295,-17.056442264556885,-0.4378970563411712,0.4336041510105133,0.6401142477989197
5.7655986328125,4.66389372806847,1.538287133871019,-19.979051712989804,0.0245593953877687,0.3232696950435638,0.658923864364624
5.775577392578125,5.475640903586149,3.398579777985811,-22.587132270669937,0.2716307044029236,0.3250114023685455,0.6760581135749817
5.7855576171875,5.73328938473165,5.039496388465166,-24.93816582022905,0.1999867260456085,0.3093120157718658,0.6937681436538696
5.79553662109375,5.509586427807808,6.030252808177471,-26.193031441533563,0.02176851965487,0.1497298181056976,0.679394006729126
5.805516845703125,5.124228681594133,6.361997622147202,-25.77319274904728,-0.0515429750084877,-0.0570712909102439,0.6386058330535889
5.815496826171875,4.896910456782579,5.934494094121456,-23.724396763944625,-0.0215326137840747,-0.216223657131195,0.5353643894195557
5.825475830078125,5.130900998964905,5.233547718968987,-21.16550255423784,0.0023538556415587,-0.2327713966369629,0.3605367541313171
5.835455810546875,5.361372134849429,4.188320873400569,-18.65804627082348,-0.0295369643718004,-0.1195939928293228,0.1904454678297042
5.8454345703125,5.153948697075247,2.849805785767734,-16.35889839132428,-0.095650166273117,0.0582543835043907,0.1203687936067581
5.855414794921875,4.381965376669168,1.7818813707008956,-14.301076219201088,-0.1362335383892059,0.1866110265254974,0.16214020550251
5.865393798828125,3.2448096044659613,1.1061850260086357,-12.256007145667075,-0.1380059868097305,0.2006372213363647,0.2809766829013824
5.87537353515625,2.117047975812852,0.7460064369760453,-10.141536619126796,-0.1217774748802185,0.1356803327798843,0.4172601997852325
5.885353759765625,1.1147827584840355,0.4532503290269523,-8.031880799391866,-0.0977520495653152,0.0612536706030368,0.5426856875419617
5.895332763671875,0.2306369939707219,0.2104529416631907,-5.822019223064184,-0.0828636437654495,-0.0160829275846481,0.6232334971427917
5.9053125,-0.5842912958011031,0.0866600463211536,-3.69487509291172,-0.069008819758892,-0.1058458313345909,0.6514797806739807
5.915291748046875,-1.3158360767044126,-0.2279252507939934,-1.2978104445397851,-0.0170758422464132,-0.2075958997011184,0.5922183394432068
5.925271728515625,-1.806653116124868,-0.8006455704625696,1.3473060045927765,0.061923298984766,-0.2868120372295379,0.4556305408477783
5.935251708984375,-2.0408352353565395,-1.3387465583011506,3.886845525488257,0.1583449095487594,-0.3061761558055877,0.2479127645492553
5.94523095703125,-2.232524512904137,-1.7485124773234129,6.221242997545003,0.2463670074939727,-0.263603150844574,0.0072893579490482
5.9552109375,-2.4747645586460827,-1.9934211577527223,8.118115898299216,0.2888034284114837,-0.1926717311143875,-0.2589388489723205
5.96518994140625,-2.6511995684385297,-2.078377468895912,9.50573403953612,0.2874073088169098,-0.1148970276117324,-0.5283896327018738
5.975169921875,-2.8763711366102096,-2.074871506601572,10.475113909220696,0.2541582584381103,-0.070456326007843,-0.7587032318115234
5.985148681640625,-3.2130349945425984,-2.008893013781309,11.22008238145113,0.2172229439020156,-0.0944696068763732,-0.9270583391189576
5.99512890625,-3.562846211078763,-1.9230045363545416,11.811597491025925,0.201352909207344,-0.2244523763656616,-1.012943983078003
6.00510888671875,-3.80365257075578,-1.7069421573117374,12.195433142238857,0.1960771232843399,-0.4095603227615356,-1.0281846523284912
6.015087646484375,-3.9031227065503593,-1.2858312529325484,12.27518998504281,0.1573353111743927,-0.3738569319248199,-0.9084012508392334
6.025067626953125,-4.005957642602921,-0.7298511287279427,12.012013680386543,0.0545359961688518,-0.2824747562408447,-0.705568253993988
6.035046630859375,-3.5080621892288324,-0.4256253130637109,11.49143848543167,-0.0839779451489448,-0.2430759370326995,-0.4825814962387085
6.045026611328125,-2.895540824243426,-0.5892057366538792,11.272369033527374,-0.2153350412845611,-0.2088636010885238,-0.2932450473308563
6.055006591796875,-2.274072474953532,-0.9761753750436007,11.276204666167496,-0.3338305354118347,-0.1643203645944595,-0.1313131302595138
6.064985595703125,-1.8703579649247228,-1.349146956284344,11.100206294226648,-0.4357725977897644,-0.1184996962547302,0.0185018293559551
6.0749658203125,-1.6946097683526575,-1.560931219616532,10.84728367255926,-0.5279294848442078,-0.0799419209361076,0.1771711111068725
6.084945068359375,-1.68803974231258,-1.644866955540329,10.509521205735206,-0.6036604642868042,-0.0866115391254425,0.347473680973053
6.0949248046875,-1.7213368856281042,-1.6600860058516262,10.133189646542071,-0.6612193584442139,-0.1398478597402572,0.5080209970474243
6.10490478515625,-1.612927948835492,-1.6697810320444404,9.709935008132458,-0.6887373328208923,-0.2340461611747741,0.627400279045105
6.1148837890625,-1.363474902974814,-1.739401534628868,9.258961757192017,-0.6402648687362671,-0.269435316324234,0.6690377593040466
6.12486376953125,-1.0569840649880469,-1.9331312319628893,9.047677552336454,-0.5074146389961243,-0.1598515510559082,0.6743501424789429
6.1348427734375,-0.8838125870361924,-2.296767267972976,9.011322044363617,-0.3280084133148193,0.088532954454422,0.6543668508529663
6.14482275390625,-0.7776401771239936,-2.462120765650272,9.028370794320104,-0.1140033230185508,0.3641338646411896,0.585142195224762
6.1548017578125,-0.5830339892163873,-2.4648788321867583,9.078854780888555,0.1057471483945846,0.5714974403381348,0.4490855932235718
6.16478173828125,-0.4176365062668919,-2.398944470769167,9.13970292508304,0.3109824955463409,0.6415272355079651,0.2662190794944763
6.17476171875,-0.4806859598979354,-2.408367840413749,8.961178834056854,0.464448481798172,0.6421528458595276,0.097658559679985
6.18474072265625,-0.9076090576872228,-2.4608710578501225,8.589803435966372,0.5517046451568604,0.5951290130615234,-0.0325236618518829
6.194720458984375,-1.2574646978870034,-2.3191657083943484,7.939996880942583,0.61253821849823,0.5291925668716431,-0.1451426297426223
6.20469970703125,-1.291097941289097,-2.1232849705062806,7.459866509100794,0.6903995275497437,0.4554629325866699,-0.2582981884479522
6.214679931640625,-1.033654335065931,-2.019397602791339,7.290429979893565,0.8203716278076172,0.4347076117992401,-0.380855530500412
6.22465966796875,-0.6378789474733173,-1.9956611917644735,7.02821930539906,0.992941915988922,0.5017281174659729,-0.4785299599170685
6.234638916015625,-0.1348831022202968,-1.9433219327181577,6.353731898105144,1.2077306509017944,0.658388614654541,-0.5301159024238586
6.244618896484375,0.4946894969396292,-1.965921594800055,5.030616331917047,1.3974441289901731,0.8775716423988342,-0.4817178845405578
6.25459765625,1.1057947115167974,-2.0604858383744955,3.098119744595885,1.4900057315826416,1.1773420572280884,-0.3443544209003448
6.264577880859375,1.6158640022873878,-1.498382993505895,0.207375506979227,1.3584909439086914,1.3687344789505005,-0.1454013735055923
6.274556640625,2.1182713801279665,0.4978792694242671,-5.278192916381359,0.8808388710021973,1.4119802713394165,0.155178427696228
6.28453662109375,1.9944123607471584,3.84433675558269,-13.130699729919431,0.0850982293486595,1.2442638874053955,0.5910354852676392
6.294516845703125,1.2430755225285888,7.666280477571487,-20.663047537863253,-0.7263475060462952,0.5427869558334351,1.1021000146865845
6.30449560546875,0.6483852900490165,9.802140998142956,-24.71808163832426,-1.220258355140686,-0.6307929754257202,1.5490772724151611
6.3144755859375,0.8331826161257923,9.571355389481782,-25.390730724275112,-1.261378526687622,-1.841057300567627,1.798290491104126
6.324454833984375,2.468706573781371,8.51891788188219,-24.59808397054672,-0.8972041606903076,-2.5821893215179443,1.7220449447631836
6.3344345703125,5.193036844882369,7.644018376880884,-22.47156761690378,-0.3341922163963318,-2.634455919265747,1.2579947710037231
6.344414794921875,8.023626181265712,6.589707476624846,-19.952402190995212,0.1505502313375473,-2.037109613418579,0.5182828307151794
6.354393798828125,9.903694662213326,4.983963886335492,-18.099647833430765,0.3900584280490875,-1.025129795074463,-0.2630209624767303
6.364373779296875,10.301533119815588,3.508987779641151,-17.031090381157398,0.347474992275238,0.0525774434208869,-0.8638148903846741
6.374352783203125,9.151296916764974,2.7776573721408844,-16.693790855669974,0.1329206079244613,0.8718006610870361,-1.1582130193710327
6.384332763671875,6.884405877748131,2.3024897372730075,-16.17193321968913,-0.1182724609971046,1.260393738746643,-1.1637349128723145
6.394312744140625,4.493150792437792,1.616272290827334,-14.804068995714188,-0.3369629979133606,1.252118468284607,-0.9832053780555724
6.404291748046875,2.6621120075970888,1.0464482040569183,-13.047198439890144,-0.5202378630638123,0.9960211515426636,-0.7518847584724426
6.414271728515625,1.50153985010162,0.791299723033607,-11.295416731637715,-0.6925619840621948,0.6921219825744629,-0.5467526316642761
6.424250732421875,0.8585070269964635,0.569683947647363,-9.593698154193165,-0.8507874608039856,0.4353521764278412,-0.4121678173542022
6.434230712890625,0.6177050512336194,0.1692788544274866,-7.771748100215196,-0.9750857353210448,0.2133899331092834,-0.3672152459621429
6.444209716796875,0.6582413520224392,-0.07997136233747,-5.771909915027022,-1.0237958431243896,0.0328109674155712,-0.4350704848766327
6.454189697265625,0.83767685880512,-0.1757907936047762,-3.4436464156806466,-1.0363552570343018,-0.0487070642411708,-0.6285462379455566
6.464169677734375,0.8699420287244022,-0.8502889414884149,-1.08636608068645,-1.0598829984664917,-0.0770337507128715,-0.8626819849014282
6.474148681640625,0.6739353263691067,-2.2341996065095064,1.2136679339975118,-1.120526671409607,-0.1164890080690383,-1.0733801126480105
6.48412890625,0.3957170815341174,-3.731673376215994,3.31178470710814,-1.2651982307434082,-0.0418526269495487,-1.2247964143753052
6.49410791015625,-0.0094549338266253,-4.650369060584903,4.838732993102074,-1.4968663454055786,-0.0195782147347927,-1.3122130632400513
6.504087890625,-0.4432768512189388,-5.139361953318119,5.803166054034233,-1.7821543216705322,-0.1722575277090072,-1.3197613954544067
6.51406787109375,-0.8590348502628504,-5.512872025349736,6.614383652719855,-1.988414287567139,-0.450283020734787,-1.2181909084320068
6.524046875,-1.5476524897180497,-5.764849475121498,8.07780434617698,-1.9533029794692995,-0.6574401259422302,-0.9909716248512268
6.53402685546875,-2.315741725295037,-5.996389117020368,10.563156934332849,-1.7085741758346558,-0.787615954875946,-0.7008673548698425
6.544005615234375,-2.7079300481811166,-5.949353809601068,12.210166600990297,-1.3339600563049316,-0.8346333503723145,-0.4245918989181518
6.55398583984375,-2.949893468938768,-5.754245078998804,13.357242878705264,-0.7954297065734863,-0.5780361890792847,-0.0811908617615699
6.56396484375,-3.832585527512431,-5.522620681425929,14.559680393636226,-0.3180171251296997,-0.0619119070470333,0.2314260900020599
6.573944580078125,-3.366515829727053,-4.459831875681877,13.694016334491968,0.0511739589273929,0.3187752664089203,0.4665669798851013
6.583924560546875,-2.7665444419741627,-3.998275855928659,12.849168268883227,0.29329913854599,0.6485146284103394,0.5171002745628357
6.593903564453125,-1.7042733764939009,-3.743124744556844,12.354874347132444,0.3899431228637695,0.8098963499069214,0.4454551041126251
6.603883544921875,-1.4672640710122882,-3.688985450351238,11.4272626581192,0.3769386708736419,0.658513605594635,0.3781373202800751
6.61386279296875,-1.929990888110548,-3.542356673018634,10.274899964433908,0.2670164406299591,0.340298593044281,0.3553734421730041
6.6238427734375,-2.359299858123064,-3.268713627144694,9.326115139010549,0.0915181115269661,0.0169135108590126,0.3860394954681396
6.63382275390625,-2.740425081333518,-3.2787022294566035,8.573041686257719,-0.0469295121729373,-0.3191694021224975,0.4986954927444458
6.643802001953125,-2.960204727333784,-3.4761204060450197,8.295560961917042,-0.0743174105882644,-0.577842652797699,0.6727209091186523
6.65378173828125,-3.0475270369559526,-3.619183599850535,8.429625733491777,0.0033350382000207,-0.6599583029747009,0.8756223320960999
6.6637607421875,-2.8203642949670558,-3.4515579194575547,8.49526812622547,0.1739360839128494,-0.5839956402778625,1.0382789373397827
6.673740966796875,-2.025447404349596,-2.9937159517914056,8.782932975450157,0.3607352674007416,-0.4551963210105896,1.1053791046142578
6.683720703125,-1.330151017782837,-2.562695355555415,8.786521355330944,0.4481790065765381,-0.314868152141571,1.125393986701965
6.69369970703125,-1.2869159794293343,-2.3891141277588903,8.28902133101523,0.4440194070339203,-0.2793277204036712,1.157400131225586
6.7036796875,-1.81752829201296,-2.387163870473951,7.698985646343231,0.4201408326625824,-0.3950338661670685,1.230985164642334
6.71365869140625,-2.540282448217273,-2.469382281085849,7.630629318475723,0.4138080775737762,-0.4824883341789245,1.2910606861114502
6.723638671875,-3.019403350755572,-2.4300186773382126,7.897198188179731,0.4563002288341522,-0.5166853070259094,1.3119643926620483
6.73361767578125,-2.605749192123115,-2.5672803452581165,7.567420874890685,0.5307475924491882,-0.7080134153366089,1.2050672769546509
6.74359765625,-1.703888030438125,-2.699786781474948,6.795218358775973,0.6009393334388733,-0.8694515228271484,0.926571249961853
6.753577880859375,-0.8616226747989654,-2.511047585904598,6.255687118938565,0.6407738327980042,-1.0062203407287598,0.5696576237678528
6.763556884765625,-0.5199294443972409,-2.119312121352553,5.476588413569331,0.634251058101654,-0.9373810887336732,0.2788293957710266
6.773536865234375,-0.8632968916215003,-1.8129504627034068,4.729140399482846,0.563273012638092,-0.6211227178573608,0.1475941240787506
6.783515625,-0.5563832981780171,-1.3940746238999069,2.9363983198106287,0.432291179895401,-0.278748869895935,0.0889193564653396
6.79349560546875,0.5316764346837997,-0.3313261501662433,-0.9497498710632324,0.3320742845535278,-0.0328205823898315,0.0467857532203197
6.8034755859375,1.399998607121408,0.8272204928509891,-5.431316608691216,0.3293796479701996,0.1101520359516143,0.01829544454813
6.813454345703125,1.440788005888462,2.6335230419725177,-10.137828412258624,0.3759008049964905,0.1260436475276947,-0.0407047569751739
6.823434814453125,1.0794676994748411,5.278264812573791,-15.01547887277603,0.4387249648571014,0.074936456978321,-0.2145539224147796
6.83341357421875,1.0280842798486352,7.380905785110593,-17.73257042479515,0.5256377458572388,0.0147040076553821,-0.5266918540000916
6.8433935546875,1.6685199260674417,7.722664043572545,-17.436319533532856,0.5889992117881775,-0.0594706311821937,-0.8684771060943604
6.853372802734375,2.7038959703594445,7.179529226285219,-16.517541139316556,0.5163300633430481,-0.0481796264648437,-1.078964114189148
6.8633525390625,3.3219740926891563,7.619694082963466,-17.24281356195211,0.2542343139648437,-0.05137774720788,-1.087224364280701
6.87333251953125,3.515491754707694,7.94343386965394,-18.85136285731196,-0.0802277997136116,-0.1463985294103622,-0.8706901669502258
6.883311767578125,2.9418820119187234,7.021966090223192,-19.89253545905352,-0.3027683794498443,-0.265022873878479,-0.457678884267807
6.89329150390625,1.939749919450283,6.453493418061733,-19.981642314004898,-0.4071480631828308,-0.4154320657253265,0.0370720140635967
6.903270751953125,1.323079910352826,6.519988628232479,-20.186030914127823,-0.4269090592861175,-0.6758099794387817,0.4434228539466858
6.913250732421875,1.4143126714169978,5.622610749441385,-19.530558588427304,-0.3613782525062561,-0.8793785572052002,0.6956689357757568
6.92323046875,1.62769808633551,4.087682278348505,-17.71331861183643,-0.2354302704334259,-0.9439045786857604,0.768413782119751
6.933209716796875,1.8606747753001749,3.0239889249801637,-15.732080497699975,-0.0823760032653808,-0.9056458473205566,0.6421032547950745
6.943189453125,2.1069509446904062,2.65088275757432,-13.626084369516372,0.0330378524959087,-0.7574485540390015,0.3882272839546203
6.95316845703125,2.216642468639463,2.37208276732862,-11.427201867842674,0.0554382316768169,-0.5485160946846008,0.0861294642090797
6.963148681640625,2.2686504499047992,2.1501469662077723,-9.41874607643485,-0.0380654819309711,-0.3251102864742279,-0.1890323907136917
6.973127685546875,2.0608577404268087,1.753534397138655,-7.439958862581848,-0.2114676386117935,-0.1347709894180297,-0.3769516944885254
6.983107666015625,1.7004508955962956,0.8826026267245412,-5.030178525021672,-0.4531237781047821,-0.0447230823338031,-0.4747971594333648
6.993087646484375,1.3244777944520114,-0.2527741531074047,-2.420967502006888,-0.7471668720245361,-0.0158421657979488,-0.4878437221050262
7.003066650390625,0.8929092089444398,-1.5120771723374724,0.0711123485773801,-1.0518707036972046,0.0302417613565921,-0.3998946249485016
7.013046630859375,0.210345608831197,-2.7857418943971397,2.2586983802109954,-1.267390489578247,0.0332820266485214,-0.2438267171382904
7.023025634765625,-0.3038460225664079,-3.933612537360191,4.147751547124981,-1.351351261138916,0.0800268650054931,-0.0681523978710174
7.033005615234375,-0.8909276797384024,-4.774364858087897,5.611017926803231,-1.2811511754989624,0.2459372729063034,0.1369666755199432
7.042985595703125,-1.352585114039481,-5.434744245052337,6.907955095639824,-1.0677331686019895,0.2618089914321899,0.2817755043506622
7.052964599609375,-1.3393030231401324,-6.120019588342308,8.161381039530038,-0.749629020690918,0.2070277780294418,0.3188357651233673
7.062944580078125,-1.3917358056887985,-6.537277616685628,9.499118420788646,-0.4026147723197937,0.1569444388151168,0.2389343231916427
7.07292333984375,-1.3846931937009097,-6.47000382335782,10.640365261697768,-0.1097035482525825,0.1540770083665847,0.0485675819218158
7.082903564453125,-1.2133220431692897,-6.052952131241559,11.327699875605106,0.076225571334362,0.2544902563095093,-0.2239268571138382
7.092882568359375,-0.8683785787999629,-5.692454100996256,11.634417215824126,0.1372654885053634,0.4330629408359527,-0.5534970164299011
7.102862548828125,-0.2825769515011459,-5.432009851652383,11.485568716615438,0.0800366997718811,0.6835302710533142,-0.8650196194648743
7.1128427734375,0.1786811812840402,-5.1670554314076895,11.241596294122932,-0.0403368547558784,1.031482815742493,-1.0821701288223269
7.12282177734375,0.448946129027009,-4.962379831036925,11.146867507636546,-0.1346569657325744,1.4521245956420898,-1.218834400177002
7.132801513671875,0.709184480535239,-4.766251694259047,10.780874971628188,-0.1820702850818634,1.875459671020508,-1.2776881456375122
7.14278076171875,1.0901625503599643,-4.641045644183457,9.994671987211705,-0.1514615565538406,2.317201852798462,-1.2878583669662476
7.1527607421875,1.385924342931062,-4.555801017618179,9.09701412243545,-0.0798571482300758,2.7516682147979736,-1.2693980932235718
7.162740478515625,1.3871264121972025,-4.568916519778966,8.160541666096448,0.0405746400356292,3.1767241954803467,-1.1517637968063354
7.1727197265625,1.364547500642389,-4.871326518192887,7.038673479396104,0.239995077252388,3.465874671936035,-0.9205085635185242
7.182699462890625,1.5604801148481666,-5.417108050596713,5.780792309662699,0.5589437484741211,3.660694360733032,-0.5216544270515442
7.192678466796875,1.6889301152810454,-5.980672492450475,4.902464583778381,0.9749127626419068,3.755524873733521,-0.015754222869873
7.20265869140625,1.3770207593768835,-5.816569140964746,4.0114807899385685,1.3611170053482056,3.88444185256958,0.5973190069198608
7.212637451171875,0.2544526077136397,-5.244231025546789,2.858735234415531,1.6782747507095337,4.232366561889648,1.2474021911621094
7.222617431640625,-0.1675353717610239,-4.829876901951432,2.306971120470762,1.9805266857147217,4.441261291503906,1.631568193435669
7.232597900390625,1.1630091753840446,-4.09000399929434,2.567546302717924,2.2089931964874268,4.228880405426025,1.596165418624878
7.24257666015625,1.6321239399537444,-2.9844951189816,2.6789421463668344,2.310129880905152,3.508129835128784,1.374039649963379
7.252556640625,2.0911200460910795,-2.4844720059290526,2.822700044438242,2.36824107170105,2.5380284786224365,1.27901291847229
7.26253564453125,1.9992004718065264,-2.5599580395460126,2.9776193879932165,2.362302303314209,1.8508431911468504,1.3549710512161257
7.272515625,0.8014356248617172,-3.3129905757665634,3.2397996673494576,2.282411813735962,1.4798777103424072,1.521301507949829
7.28249560546875,0.8197603861033916,-3.2429724521666765,3.5682740813463925,2.125875949859619,0.938659369945526,1.725443720817566
7.292474609375,1.137002042946219,-2.6437422381699083,2.343849775534868,1.8408770561218264,-0.0793081223964691,1.9609049558639529
7.30245458984375,0.2371101355075836,-1.767790593767166,0.368752648371458,1.4779127836227417,-1.0575227737426758,2.277400493621826
7.312433837890625,-1.1227589980602264,-0.909934578025341,0.6504425148397683,1.1847511529922483,-2.511329174041748,2.7314281463623047
7.32241357421875,-2.8350667740583417,-0.3272077915946021,-0.284254748520255,0.9836117029190063,-4.150784492492676,3.1450154781341557
7.332392578125,-2.5164050212845206,0.0663082362312823,-0.7348305245757103,0.6603524684906006,-5.177641868591309,3.3791840076446533
7.34237255859375,-0.9912044557407498,0.5754352777156978,-0.6189186648070811,0.5851041674613953,-5.69343900680542,3.6391427516937256
7.3523525390625,-1.4124302186712625,0.132867159288004,0.8991349515914916,0.7313521504402161,-5.640844345092773,3.871455192565918
7.36233154296875,-1.0005413161456584,-0.0445775390036404,1.3213076399832964,1.0821110010147097,-5.472451210021973,4.075212478637695
7.3723115234375,0.0494857693113386,-0.4235265872187912,1.1666548384100195,1.562668800354004,-4.316659927368164,3.890216112136841
7.382290771484375,4.20789271209389,0.2184269162170589,1.6791344051927326,2.011415719985962,-4.107180118560791,3.173696994781494
7.392270751953125,5.549589936894178,2.396228928200155,-0.4329787445664405,1.9266338348388672,-5.512679576873779,1.9091284275054927
7.40225048828125,5.520243430900574,6.753136874371767,-9.347474737903475,1.1668232679367063,-6.531640529632568,0.83882737159729
7.412229736328125,2.168621949575096,8.01504949157834,-13.113103282952308,-0.0132362749427557,-5.2631516456604,0.5035992860794067
7.422209716796875,-0.5063909675840288,4.98264228234291,-12.329978390806913,-1.4196643829345703,-3.021857023239136,0.7369945049285889
7.432188720703125,-2.69834651953876,3.3917885104104872,-12.928427099037169,-2.5355048179626465,-0.7421444058418274,0.9907801747322084
7.442168701171875,-3.741277070863545,3.727993518659472,-11.996382396012544,-2.9789655208587646,1.587634563446045,0.9488439559936525
7.4521474609375,-1.9805980626672504,4.173721270161867,-9.002221623063088,-2.699157476425171,3.552088499069214,0.6560161113739014
7.462127685546875,-0.643282925408706,4.966784203475713,-6.115639181300997,-1.9750200510025024,4.54659366607666,0.2494446635246276
7.472107666015625,0.1237014176663011,5.835916230991482,-5.496587245503068,-1.5815526247024536,3.637225151062012,-0.2660618126392364
7.48208642578125,1.510128668618202,6.170636261379719,-10.02017350821495,-1.788341999053955,1.5373362302780151,-0.6341391205787659
7.492066650390625,1.7470049953699112,4.21917515360862,-11.449391487818955,-2.050700664520264,0.6334676742553711,-0.6576843857765198
7.50204541015625,1.2880403072841464,1.3974986069992184,-5.667506122222543,-2.372077465057373,0.2155938446521759,-0.6067790389060974
7.512025634765625,1.499832023270428,0.8116488297097384,-3.97960564225018,-2.712562561035156,-0.3728733956813812,-0.6558824181556702
7.522005615234375,1.338186294069886,1.983976891450584,-4.323861562746763,-2.745768785476685,-0.8679442405700684,-0.7292175889015198
7.531984619140625,0.3182747262176126,3.171008162935078,-3.7364287540495393,-2.473660945892334,-1.033841609954834,-0.7477646470069885
7.541964599609375,-1.183616421539709,4.382976599538326,-2.4132570737600325,-2.1433024406433105,-0.8965192437171936,-0.6760804653167725
7.55194384765625,-2.3900506779566406,5.464068539214134,-0.8840104476958512,-1.943523645401001,-0.5947255492210388,-0.4773860275745392
7.561923583984375,-3.3556028060466048,5.53477815220952,0.6092886666744947,-1.8996347188949585,-0.382825642824173,-0.1558780521154403
7.571902587890625,-3.803746678780019,4.559986778870225,1.6005208872050043,-1.899971842765808,-0.5076413154602051,0.1830376833677292
7.581882568359375,-3.292052709417045,3.204812817381322,1.6576549793124198,-1.953804850578308,-1.3862626552581787,0.5541068911552429
7.591862548828125,-2.474625734697282,1.2447709282696249,-0.1342997493743896,-2.0109028816223145,-2.600881814956665,0.9906543493270874
7.601841552734375,-1.2684106009237468,-1.0734319264419376,-0.8990642244428396,-1.9826250076293943,-3.544461965560913,1.4617611169815063
7.611821533203125,0.0276049960885196,-2.994951046544313,-0.1832896979928016,-1.8242348432540891,-4.089675426483154,1.847426533699036
7.621800537109375,1.0398896492589265,-4.24630193772614,0.4643044416785239,-1.55060076713562,-4.208115100860596,2.047220468521118
7.631780517578125,1.6425554637275634,-4.952980719050765,1.254829965469241,-1.2657241821289062,-3.9152371883392334,2.005804538726806
7.6417607421875,2.153402460872382,-5.26875288786292,2.0028782835364343,-1.0208866596221924,-3.437295436859131,1.74750554561615
7.65173974609375,2.6600568286329507,-5.492315559533238,1.824421412527561,-0.7262431383132935,-2.96051287651062,1.3622921705245972
7.6617197265625,2.856758381384611,-5.7532806178808205,1.1408452743709088,-0.2743719518184662,-2.4643499851226807,0.9856131672859192
7.67169873046875,2.5331825530841945,-5.720671310698986,1.244057811564207,0.2560863196849823,-1.8744466304779053,0.6900965571403503
7.6816787109375,2.14078511749208,-5.1030619749248025,2.381894551768899,0.7514257431030273,-1.2196578979492188,0.5098721981048584
7.69165771484375,1.824405484306067,-4.191849632048607,3.872050107416511,1.1768052577972412,-0.6644845604896545,0.4818519949913025
7.7016376953125,1.2217128548957408,-3.8546757787674655,4.94349568234682,1.5541958808898926,-0.2407679110765457,0.5839385390281677
7.71161767578125,0.5416989392653108,-4.024598630186915,5.509965197992324,1.899343490600586,0.0656327605247497,0.7261396050453186
7.7215966796875,0.116835112093389,-4.169281826409697,5.796632852873206,2.2128920555114746,0.2956694960594177,0.8319342136383057
7.73157666015625,-0.0291419233322143,-4.042371018242836,5.873747656735778,2.3596391677856445,0.2188378274440765,0.8132026195526123
7.741555419921875,0.4528443055093288,-3.282699482399225,4.617148343506456,2.147606372833252,-0.2825101912021637,0.4605192542076111
7.75153564453125,2.361778815457225,-2.107239260112494,2.7140450239300726,1.8866816759109497,-0.3345411717891693,-0.0034838311839848
7.761515625,2.9632401495069263,-1.9384164788894356,4.762027939084172,1.7662968635559082,0.1983732730150222,-0.3729327023029327
7.771494384765625,2.595447286078333,-2.13324098572284,6.981680257064104,1.6448894739151,0.6502195596694946,-0.6793083548545837
7.781474365234375,2.524751993869245,-1.8035177407085892,6.322918242168426,1.4758206605911257,0.8813791275024414,-0.9075836539268494
7.791453369140625,2.3727340708442037,-1.566473510044068,5.320886395204067,1.290302276611328,1.1215577125549316,-1.0773791074752808
7.80143310546875,2.2178025984600187,-1.3694780889123677,5.209504580080509,1.1043933629989624,1.4640651941299438,-1.1745271682739258
7.811412353515625,2.0353563655540348,-1.2126982121825218,5.484072631844878,0.9149325489997864,1.8780685663223269,-1.1436179876327517
7.82139208984375,1.6297488813854752,-1.198061930195242,5.720725086712837,0.7428029775619507,2.336484909057617,-0.951046884059906
7.8313720703125,1.0713381690330803,-1.3347927061088385,6.0596659496665,0.6089634299278259,2.7250819206237797,-0.6348553895950317
7.841351318359375,0.5011803933288902,-1.4814166611358524,6.254133459755778,0.5052778720855713,2.969610452651977,-0.2431163787841797
7.851331298828125,0.1322919166833162,-1.5671803431391715,5.9748448092103,0.5067314505577087,2.911383628845215,0.1722597777843475
7.86131005859375,-0.1687117585966363,-1.6264904641114175,5.101709391272068,0.6475216746330261,2.377920150756836,0.5431844592094421
7.87129052734375,-0.3785122642330825,-1.3389404734380543,3.571107843467593,0.8020849227905273,1.507539987564087,0.8180290460586548
7.881270263671875,-0.3015587336131371,-0.4965761874690652,1.3565689229786395,0.9297263026237488,0.7037701606750488,0.9007513523101808
7.891249267578125,0.0810496408271603,0.4891187841352075,-0.2111930194407701,1.2002142667770386,-0.1220390498638153,0.7882988452911377
7.9012294921875,-0.2499986970447003,1.6853388127908109,-1.3347311851799488,1.1634626388549805,-0.8023829460144043,0.3885771930217743
7.911208251953125,-0.6986271384246647,3.781499483397603,-4.654974508553743,1.083465814590454,-1.4962754249572754,-0.0582511685788631
7.921188232421875,-1.72683694434911,5.587729405674338,-6.863657688751816,0.9630233645439148,-1.676816463470459,-0.41087606549263
7.931168212890625,-2.2856341718010604,5.837288688388466,-8.032571704265475,0.8844089508056641,-1.1758300065994265,-0.6823376417160034
7.941147216796875,-2.253728336713463,5.525466133984923,-8.084831468334794,0.7339749932289124,-0.4745119214057922,-0.9320539236068726
7.951127197265625,-1.87475985314548,5.59050588465035,-9.373273780548573,0.333626240491867,-0.1370199024677276,-1.179262399673462
7.961106201171875,-1.489005801090598,6.246326000875234,-12.215689163804054,-0.2276606112718582,-0.2480538189411163,-1.2450251579284668
7.971086181640625,-1.7787218837566672,6.623007688680291,-14.001189601784944,-0.7470872402191162,-0.4530149400234222,-1.0149378776550293
7.981065185546875,-2.3522272893883285,6.107146078243852,-13.988090466237068,-1.146825909614563,-0.6311783790588379,-0.5384898781776428
7.99104541015625,-2.7337752680554983,5.061452199685573,-14.111394189822674,-1.3013726472854614,-0.8720548748970032,-0.1299968808889389
8.001025390625,-2.016632668122649,4.139279486855864,-14.31255856720209,-1.2374887466430664,-1.199763298034668,0.145190805196762
8.011003173828126,-1.3409244868621228,3.3150206202894448,-14.372972411632537,-1.0896217823028564,-1.374948501586914,0.3125094771385193
8.020982177734375,-1.2315107569411397,2.70104145771116,-13.566830216515063,-0.9737271070480348,-1.2044881582260132,0.3799907863140106
8.030962158203126,-1.4979315964765847,2.319816719648987,-11.834335392534731,-0.9326406717300416,-0.8014352321624756,0.3581880033016205
8.0409423828125,-2.0076704862490296,2.040813754177093,-9.724124861526487,-0.9456672668457032,-0.3569465577602386,0.2918391823768616
8.05092138671875,-2.311457764365524,1.7827715975388885,-7.441323136672377,-0.960608959197998,-0.0074175675399601,0.2368699610233307
8.060901123046875,-2.3224428303688764,1.544055195878446,-5.141104413071274,-0.945119559764862,0.1722377836704254,0.245152935385704
8.07088037109375,-2.029089121852815,1.1181585915926844,-3.121989280483126,-0.9141019582748412,0.1103621646761894,0.3011408448219299
8.080860107421875,-1.4387461247973143,0.5622455778075381,-1.943947955662012,-0.9003579020500183,-0.1174097433686256,0.3542727828025818
8.09083935546875,-0.5267946539916097,-0.1594279800858348,-1.152818036237359,-0.910987138748169,-0.3426905274391174,0.3862093985080719
8.1008193359375,0.3523585629314184,-1.1250513467811047,-0.339718277066946,-0.942795991897583,-0.5097324848175049,0.4035252928733825
8.110799072265625,0.912112068194896,-2.1259050898768006,0.3563473403066396,-0.9628365635871888,-0.5958212614059448,0.393181562423706
8.1207783203125,1.3083981817886232,-2.876800760199129,1.0003554381847382,-0.9415708184242249,-0.6211038827896118,0.3638537228107452
8.13075830078125,1.5152046567082404,-3.423820602226257,1.549528951114416,-0.8249770998954773,-0.6741971969604492,0.3586722910404205
8.140737060546876,1.5576732407338916,-3.909114640441537,1.8227321442663669,-0.5876258015632629,-0.7068068981170654,0.3810235559940338
8.15071728515625,1.518263021365553,-4.121468812616169,2.349455924978852,-0.2633472979068756,-0.6571847796440125,0.4067627489566803
8.160697509765624,1.5858897197842596,-4.032501073874533,3.223427793741226,0.0871452167630195,-0.4996426999568939,0.4134259521961212
8.17067626953125,1.7000217103987931,-3.849927999718487,4.170886923518776,0.4175881147384643,-0.2605329155921936,0.3767015039920807
8.180656494140624,1.7856245027519762,-3.713014560714364,5.007472772216796,0.6833387017250061,0.0104543082416057,0.3230306208133697
8.19063525390625,1.7387452626772224,-3.662798869693279,5.647533593773842,0.8715201020240784,0.2281868904829025,0.2609376907348633
8.200615234375,1.6389787742845714,-3.613894261270761,6.045572542384266,0.983590602874756,0.3210296034812927,0.2076596319675445
8.210595458984375,1.5326559961162507,-3.498872628340125,6.184477155205607,1.0300259590148926,0.285397857427597,0.1433309763669967
8.22057421875,1.540372561842948,-3.320202991363406,6.290709332481026,1.040165662765503,0.1985886693000793,0.0566439777612686
8.23055419921875,1.642234268949181,-3.075120269541442,6.557255405831336,1.0256669521331787,0.1575235277414322,-0.0466712266206741
8.240533203125,1.7360194909751414,-2.891403870569169,6.914952991703152,1.0055302381515503,0.2089880406856537,-0.176331028342247
8.25051318359375,1.8463832150973376,-2.849143814727664,7.195073416897654,0.9819106459617616,0.3514418601989746,-0.3027914762496948
8.2604921875,1.828439708258212,-2.8017379204303023,7.444947756910324,0.9431568384170532,0.5389639735221863,-0.4355029165744781
8.27047216796875,1.822249767576903,-2.709051745687425,7.547668126672506,0.8768598437309265,0.697996199131012,-0.5725710391998291
8.2804521484375,1.757000465814024,-2.618913501861692,7.504530995735526,0.7876754999160767,0.8083164095878601,-0.6538877487182617
8.29043115234375,1.4420334759049116,-2.5539137909457086,7.573175492894649,0.7034943103790283,0.9123266935348512,-0.654674232006073
8.300411376953125,1.2468188007101415,-2.442620530888438,7.752919481104612,0.6513243317604065,1.0096091032028198,-0.6098247170448303
8.310390380859374,1.2240986540537326,-2.2782615972064435,7.870109105724095,0.6345000863075256,1.0542261600494385,-0.5279482007026672
8.320370361328125,1.309098146751523,-2.126089360402524,7.7182900662720195,0.6324658989906311,0.9818207621574402,-0.4301087260246277
8.330350341796875,1.3417936709120868,-1.9881572458751495,7.191934534350037,0.629917562007904,0.8243405818939209,-0.343968778848648
8.340329345703125,1.3318964001454412,-1.954720694088936,6.534460805699229,0.6567294597625732,0.6381840109825134,-0.298257052898407
8.35030908203125,1.4000988526254892,-1.9676590861171483,5.98439414332211,0.7228701114654541,0.4294411838054657,-0.2729466557502746
8.360288330078125,1.3571414621695876,-1.8034940675720568,5.4524388916969295,0.8196109533309937,0.1729349792003631,-0.2256842702627182
8.370268310546875,1.131372585691884,-1.459258897602558,4.660102519091963,0.9487335085868835,-0.0845242440700531,-0.1375133991241455
8.380247314453126,0.8728877267874777,-1.0921395495213568,3.764593941304087,1.1114177703857422,-0.2380010783672332,-0.0319223888218402
8.390227294921875,0.5187264983482659,-0.7179713058419526,2.8665561372995376,1.2965553998947144,-0.2455010712146759,0.0482238456606864
8.400207275390626,0.1127120408140122,-0.1125700019948184,1.8337685020655392,1.452503323554993,-0.0828526988625526,0.0862163826823234
8.410186279296875,-0.4160958526961505,0.8985747604254632,0.7965063517659902,1.5040050745010376,0.2183465510606765,0.097483679652214
8.420166259765624,-0.966906465308368,2.1696138832218943,-0.4054787432223558,1.4091854095458984,0.4651059508323669,0.1268939226865768
8.43014501953125,-1.4383794834420085,3.1981466374903915,-1.9406886616051195,1.2299754619598389,0.642190158367157,0.2084788084030151
8.440125244140624,-1.6688424360200762,3.6954730588048696,-3.253947435167432,1.0172553062438965,0.7932006120681763,0.3477157056331634
8.45010546875,-1.7000062205687163,3.6775615545392033,-4.246075727754831,0.7569241523742676,0.800014317035675,0.4584645926952362
8.460084228515624,-1.2057006083801387,3.2896213906168934,-5.694295929470658,0.4526750147342682,0.6383745670318604,0.5374875664710999
8.470064208984375,-0.862389859779179,2.4658424165219066,-7.11798140938878,0.1629649251699447,0.3720046579837799,0.5962609052658081
8.480043212890624,-0.8301020396366715,1.6768753742195666,-8.107105259463191,-0.0318012237548828,0.0240207146853208,0.6015658974647522
8.490023193359375,-0.663800301323831,1.5757098326839505,-8.83826498657167,-0.1054400205612182,-0.3095266222953796,0.5714428424835205
8.500003173828125,-0.5850280491104349,1.838850481504947,-9.14309899726212,-0.0820452570915222,-0.5405565500259399,0.5880723595619202
8.509982177734376,-0.7901181120336055,2.0303518352650105,-9.312485257586836,0.0135939195752143,-0.7341837882995605,0.6874300837516785
8.519962158203125,-0.9998387938994914,1.9898302936539047,-9.760697811642288,0.1810658276081085,-0.9277149438858032,0.8426566123962402
8.52994140625,-1.107672853413597,1.6564872507072983,-10.198653760099411,0.3682809770107269,-1.0801970958709717,0.9853980541229248
8.539921142578125,-1.123302676482871,1.1718142669998108,-10.469970116591451,0.5290540456771851,-1.1019200086593628,1.0371354818344116
8.549900146484376,-1.0827486939068882,0.8387157003335655,-10.397723211026191,0.6243196129798889,-0.9478558897972108,0.9474056363105774
8.55988037109375,-0.9701885557189583,0.7041570077620446,-9.96608652871847,0.6221989393234253,-0.6357477307319641,0.7761816382408142
8.5698603515625,-1.0580104854263364,0.4576629578374326,-9.285760916790366,0.5670690536499023,-0.2028591185808181,0.5750173330307007
8.57983935546875,-1.1898944788958876,0.1850097997836768,-8.281790795239806,0.4802716374397278,0.3354560136795044,0.3654715716838836
8.5898193359375,-1.3566032636396586,0.0399248908922076,-6.9005053641557685,0.3982658088207245,0.8639759421348572,0.1559126824140548
8.59979833984375,-1.337565531823039,0.029491175161302,-5.45309004908204,0.3289834856986999,1.2875709533691406,-0.0406242981553077
8.6097783203125,-1.201034150939062,0.0021652152098715,-4.101076889711618,0.2620380222797394,1.6115641593933103,-0.1916340589523315
8.619758056640626,-1.1167189141783862,-0.0097838735200464,-2.7181366771578785,0.1638753861188888,1.873834252357483,-0.3213491141796112
8.6297373046875,-0.8145455740645527,0.0418587815642356,-1.559954483538866,0.03061612136662,2.05098032951355,-0.3906973004341125
8.63971728515625,-0.5829273139715194,0.0006599252134561,-0.6109101303964853,-0.1045394837856292,2.145834445953369,-0.3682506084442138
8.649697021484375,-0.382075911531411,-0.1060188267856836,0.3135603379815816,-0.2227428257465362,2.1146140098571777,-0.258369117975235
8.65967626953125,-0.1410896652428433,-0.1450173966132104,1.0772428630322215,-0.0562038756906986,2.01708722114563,-0.1684871166944503
8.66965625,0.5733309623802081,0.1584318817205727,3.19665727571547,0.0258907247334718,1.2339253425598145,-0.1137825921177864
8.67963623046875,1.0757492634736,-0.4056751425772905,1.5686141753345726,0.0542950332164764,0.4720467627048492,-0.0046258401125669
8.689615234375,1.012304526914656,-1.2255597395822404,1.5813129133880135,0.0564127787947654,0.0118805170059204,0.1656857132911682
8.69959521484375,0.3887263458639383,-1.297650577802956,2.3669863209724427,0.0121348304674029,-0.3037796318531036,0.301021933555603
8.709574462890625,0.0379059522852301,-0.8315439090080559,2.003250039458275,-0.0422130972146987,-0.4460930824279785,0.3561869263648987
8.719554443359375,0.0544459672682918,-0.4835753977291285,2.1547446692615746,-0.0542035326361656,-0.4419277906417846,0.36004239320755
8.729533203125,-0.0402134072436951,-0.4115891889266669,2.4468179825782777,0.0080465255305171,-0.450076013803482,0.3184896111488342
8.739513427734375,0.2445417102804407,-0.5479271661303937,2.526398299771547,0.1008772924542427,-0.594978928565979,0.2718820869922638
