seconds_elapsed,ax,ay,az,gx,gy,gz
0.078697998046875,-1.085713900388032,-0.5920166293561459,0.6150333478063345,0.4454789757728576,-1.0109401941299438,0.5161821246147156
0.08867822265625,-0.7864357702590524,-0.5918249792415649,0.7798404636472464,0.5981207489967346,-1.1600302457809448,0.5475578904151917
0.098657958984375,-0.2091357946500182,-0.2143283217918127,0.5359457825660705,0.6840729713439941,-1.2666386365890503,0.5635885000228882
0.10863818359375,-0.3723962655708193,-0.0607285364028066,0.4449304636448621,0.7792894244194031,-1.2935341596603394,0.7350717186927795
0.1186181640625,-1.0178935790933668,-0.3159357618760317,0.8198685226529836,0.8457126021385193,-1.3485246896743774,0.8349495530128479
0.12859912109375,-0.5332615119181573,-0.0845025029610842,0.3731979373425245,0.8908146619796753,-1.4929648637771606,0.8829625248908997
0.1385791015625,-0.2354530159503221,0.1929240069743245,-0.0009860884279012,0.9155138731002808,-1.6315057277679443,0.9070295095443726
0.14855908203125,-0.3378526293255388,0.244252773803845,-0.0157639708429574,0.9154113531112672,-1.5549254417419434,0.8711719512939453
0.1585390625,-0.0481999672845005,0.3726768360778689,0.609914689618349,0.7680730223655701,-1.3318835496902466,0.7917212843894958
0.168519287109375,0.1698288895256817,0.3738186995893716,0.2700935366988182,0.434670627117157,-1.1828659772872925,0.8139055967330933
0.1785,-0.1162552663788199,0.1111069437049329,-1.189348316255212,-0.014362558722496,-1.0094537734985352,0.9474141001701356
0.18847998046875,-0.57417935937047,-0.001088598954305,-1.915499859812856,-0.4102826416492462,-0.7645977735519409,1.0323567390441897
0.198460205078125,-0.3672533497244119,0.2620543148890137,-1.4878595536649226,-0.6904778480529785,-0.3453363180160522,0.9919377565383912
0.208440185546875,-0.0652925563827157,0.6768566206432879,-0.3896224179208278,-1.020481824874878,0.3089775145053863,0.8213886022567749
0.218419921875,0.5075342193350195,1.295932960230112,-0.3455553126573562,-1.2511147260665894,0.91403067111969,0.6273645758628845
0.22840087890625,0.7032263027831912,1.1710368528865278,0.4107499616235494,-1.3803462982177734,1.4815257787704468,0.4574016332626343
0.238381103515625,0.6543399606697261,0.8725424204811453,1.2816513368993996,-1.4969109296798706,2.086966037750244,0.2149000465869903
0.248361328125,1.5026301295563578,0.8820562448881566,1.5809136849373575,-1.512566089630127,2.8216359615325928,-0.0424658432602882
0.258341064453125,1.704709722084552,0.9215373375356196,2.997065262219309,-1.4112032651901243,3.6817028522491455,-0.2656733393669128
0.268321044921875,1.5973951563999056,1.0499466406319289,4.421292593929171,-1.1033281087875366,3.312379837036133,-0.4644526541233063
0.278302001953125,1.7975494799539449,0.9824495599422604,0.692435736438632,-0.5318813920021057,2.9411866664886475,-0.7526655197143555
0.28828173828125,1.0929550306227058,1.5771233527436852,0.989020389699936,0.1171375438570976,2.404883861541748,-1.001836895942688
0.29826220703125,0.2238422923292964,1.60791026680395,1.3650403987258672,0.7762744426727295,1.5061635971069336,-1.1384996175765991
0.3082421875,-0.3163600151700899,1.089175731279701,-0.2763233709990978,1.3181613683700562,0.5642379522323608,-1.1051430702209473
0.31822216796875,-0.7933557787805795,0.1450137068187817,-0.2918582092612982,1.729051947593689,-0.2089043110609054,-0.9781397581100464
0.328203125,-1.0991956055127083,-0.7387357153207064,0.0465600911229848,1.976875066757202,-0.6322832107543945,-0.8947554230690002
0.338182861328125,-1.3641618623256682,-1.3015171901032327,0.700341394996643,1.988407611846924,-0.6797609925270081,-0.7844315767288208
0.3481630859375,-1.928509271250665,-1.5957808530710638,0.3988964422225952,1.585866093635559,-0.5501896142959595,-0.4847302138805389
0.358143310546875,-3.0074720899432896,-1.2771625010475516,-1.4708411988466976,1.088629126548767,-0.3846257030963897,-0.1232521757483482
0.368123046875,-3.164237938147783,-0.8698549349628388,-1.715814907336235,0.5917256474494934,0.0634396970272064,0.146501287817955
0.37810302734375,-2.593229610028863,-0.1112527819164097,-1.002588311803341,0.2038580775260925,0.613581120967865,0.2974580228328705
0.388083984375,-2.1487594573721287,0.4326121032111346,-0.4285702804744243,-0.0680588111281395,1.1501513719558716,0.3430168926715851
0.39806396484375,-1.8129316118724643,0.6694304161652922,-0.359086409881711,-0.271268367767334,1.609563946723938,0.3181954324245453
0.4080439453125,-1.4198705978050827,0.9432499876499176,-0.437873530870676,-0.4837913811206817,1.9968568086624143,0.2650090157985687
0.418024169921875,-0.8160555402360856,1.1459843177597968,-0.7082990760028361,-0.7080122232437134,2.3571081161499023,0.2145879119634628
0.428004150390625,0.0111119666189188,0.658899085278809,-0.3645832537323236,-0.928923487663269,2.540255546569824,0.2276619225740432
0.437985107421875,0.2381188376260921,-0.4663646621439605,-0.3299637757718563,-1.053081512451172,2.432058095932007,0.2614161372184753
0.44796484375,0.1761612343523651,-1.1498958651803433,-0.3328893078297376,-1.0170376300811768,2.220350503921509,0.2666001319885254
0.457945068359375,0.3670136226844042,-1.2490369151510297,0.3252928613513708,-0.8865597248077393,1.8243770599365237,0.2690864503383636
0.46792529296875,0.4667440168503671,-1.4478634972326456,0.7104442713379859,-0.712594211101532,1.4216489791870115,0.2396802306175232
0.4779052734375,0.2564294607445597,-1.2249032484348863,1.234661622187495,-0.5230578184127808,1.0727543830871582,0.206572875380516
0.487885986328125,0.0132832599431276,-0.742808152391389,1.793106236809492,-0.385933518409729,0.7997177243232727,0.1906684786081314
0.497865966796875,-0.2612054429747164,-0.262918420905061,1.9922452458411453,-0.2598179280757904,0.6658978462219238,0.1522337347269058
0.50784619140625,-0.201506322684884,0.0238576627863571,2.5308032567322254,-0.0580389648675918,0.5089815258979797,0.1106012091040611
0.517825927734375,-0.2255647322077304,0.2462461030455306,3.370024714630842,0.8020033836364746,-0.7071149945259094,0.2039458006620407
0.52780615234375,-0.8407499826401471,0.3907760449353605,5.301333553472161,1.2878862619400024,-1.0610870122909546,0.0870012044906616
0.537787109375,0.864726047641784,1.0379270439490675,5.432901247534155,1.3761860132217407,-1.2945796251296997,-0.0147997271269559
0.54776708984375,1.116089164907485,1.5310253261744975,3.690835462132096,1.088443160057068,-1.2280853986740112,-0.0506993979215621
0.557747314453125,0.3465607633728533,1.2088079998109489,2.9562568664908406,0.6238617897033691,-0.730333685874939,0.0474825613200664
0.56772705078125,-0.631779169293493,0.2494544341001659,3.241337544441223,0.2144813239574432,-0.3458391726016998,0.213991105556488
0.57770703125,-1.065465039215982,0.0262473709344863,3.137693630093336,-0.0687972530722618,-0.1668219864368438,0.3570278882980346
0.58768798828125,-1.2856794233717024,0.1987312319483608,3.29798414529264,-0.2004493474960327,-0.1481033712625503,0.4935106337070465
0.597668212890625,-1.4682332083053886,0.0819903740096837,3.801093241661787,-0.2005995512008667,-0.2404189109802246,0.6298934817314148
0.607648193359375,-1.7175152815133332,-0.2200095092333853,4.497880159047246,-0.1108902618288993,-0.4880139529705047,0.7391147017478943
0.617628173828125,-1.5510329259365796,-0.2793418420374393,5.079439691796899,-0.0274022910743951,-0.7552506923675537,0.8199781179428101
0.627608154296875,-1.357691643398255,-0.0674148092336952,5.444795098945498,-0.0642489716410636,-1.026514172554016,0.8763240575790405
0.637589111328125,-1.442200210773945,0.3505380695059895,5.674446150618791,-0.2630819082260132,-1.3083243370056152,0.8045210242271423
0.64756884765625,-1.9138658288702368,1.247916532818973,5.96357990335226,-0.4874886572360992,-1.451650619506836,0.6546900868415833
0.657549072265625,-2.2402669437244533,1.581575071455538,6.492239620563388,-0.6505814790725708,-1.5363430976867676,0.5070196390151978
0.667529296875,-2.4622265641123056,1.8204951789945365,6.568344370600581,-0.7354426980018616,-1.5785096883773804,0.2870526909828186
0.677509033203125,-2.2190311173416672,2.409201076367497,6.480531647112965,-0.7569818496704102,-1.5120656490325928,-0.0126142036169767
0.687489013671875,-1.810417144833505,2.6402169866532086,6.111854402065276,-0.7710745334625244,-1.2317030429840088,-0.3188629448413849
0.697469970703125,-1.2615702335096894,3.0015903384283185,5.306383238077164,-0.8888913989067078,-0.8298066854476929,-0.590785562992096
0.707449951171875,-0.4505920696031302,3.5337905047252773,3.432634607800841,-1.2233953475952148,-0.3048106431961059,-0.8016829490661621
0.71743017578125,0.1405545719854533,3.604537819382548,0.8396241934806108,-1.7027323246002195,0.2922876477241516,-1.0021085739135742
0.72741015625,0.3252174580276012,2.715683438786864,-1.3608230732917783,-2.2510945796966557,0.877844512462616,-1.224740505218506
0.73739013671875,0.2835265073109418,1.783384907131642,-3.888511997395754,-2.7722978591918945,1.2944660186767578,-1.4845374822616575
0.74737109375,-0.0251851302641443,1.559225292481482,-6.662645287063717,-3.203505039215088,1.570363998413086,-1.7608768939971924
0.757350830078125,-0.7656668307356536,2.117982918575406,-9.419149396538732,-3.487159490585327,1.6996726989746094,-2.037945508956909
0.7673310546875,-1.2510548308447005,2.9154391184121367,-11.941740120720862,-3.6187047958374015,1.5395498275756836,-2.3253417015075684
0.777311279296875,-1.029531848308444,4.047854125829041,-14.676404738831518,-3.6002066135406494,1.1307764053344729,-2.491358518600464
0.787291015625,-0.4255059610003605,4.62583024713397,-16.96023697577715,-3.414192676544189,0.4529386460781097,-2.456126928329468
0.79727197265625,0.6433124437641352,4.9394192266881465,-18.702488639140128,-3.0268478393554688,-0.2155014723539352,-2.2541215419769287
0.807251953125,1.92874308000654,5.892437159636616,-19.12727706298828,-2.4783895015716557,-0.6236079335212708,-1.9522610902786253
0.817232177734375,3.252987942485511,7.480605930268764,-18.876886590147016,-1.8278847932815552,-0.6328970789909363,-1.6398686170578003
0.8272119140625,4.282828126090765,9.132360161104796,-17.94546031128168,-1.0776852369308472,-0.1672140061855316,-1.352903962135315
0.837192138671875,4.686705863857269,9.654097970098256,-16.141126578015086,-0.3629287481307983,0.411724716424942,-1.2269819974899292
0.847173095703125,5.107613646879792,8.81245074635744,-14.43046598470211,0.1768890768289566,0.9311558604240416,-1.2895671129226685
0.857153076171875,5.17811458556056,7.259151629054546,-12.713388510084153,0.4155820608139038,1.2995940446853638,-1.4488818645477295
0.8671328125,4.733532496961951,6.3058361744642255,-11.56156474558115,0.3706564009189605,1.4287817478179932,-1.5746445655822754
0.877113037109375,3.997646910375357,5.43914160322845,-10.83188152076602,0.1379392743110656,1.2478550672531128,-1.5960454940795898
0.88709326171875,3.3210356427952643,3.878744052097201,-10.131993714755772,-0.1382337063550949,0.8142430186271667,-1.4676522016525269
0.8970732421875,2.719562618307769,1.8562337241128088,-9.0701243619442,-0.3810298144817352,0.2994561195373535,-1.188107132911682
0.90705419921875,2.1917766151912508,-0.0922851927265524,-7.730906971260905,-0.4802870750427246,-0.2848049402236938,-0.8494473099708557
0.917033935546875,1.7595052882418036,-1.3160755845487118,-6.111673784801364,-0.3608070313930511,-0.8020760416984558,-0.5624333620071411
0.92701416015625,1.624006099949777,-2.0948583558365703,-3.709396370217204,-0.0427444800734519,-1.1162092685699463,-0.3847942948341369
0.936994140625,1.5727181035220623,-2.5498195073693988,-1.039524250012636,0.354816198348999,-1.1806846857070925,-0.3430130183696747
0.94697412109375,1.4964520254433151,-2.326934296569228,1.073552191820741,0.606043815612793,-0.9466466903686525,-0.3965998291969299
0.956955078125,1.5444202297985552,-1.783466301804781,2.081079713591933,0.5770726203918457,-0.5350753664970398,-0.5202208161354065
0.96693505859375,1.8569106004610656,-1.925838590736687,2.204476376157999,0.2783844769001007,0.0017399964854121,-0.6869439482688904
0.976915283203125,1.884873835402727,-3.028178485624492,2.2562515715807674,-0.1510635465383529,0.5465463399887085,-0.8725262880325317
0.98689501953125,1.763396742722392,-4.312944155152142,2.648367559882998,-0.5796718597412109,0.903513252735138,-1.058216214179993
0.996875,1.7387857408180831,-5.0890556614041325,2.9491888278007505,-0.9612050652503968,1.084689974784851,-1.2036315202713013
1.00685595703125,1.4568144270598888,-5.412684973457456,2.9786411322563886,-1.2568742036819458,1.117727756500244,-1.268526315689087
1.016836181640625,0.9649969053599984,-5.5822518510460855,3.1270874804049726,-1.388649582862854,1.0069875717163086,-1.250436544418335
1.02681591796875,0.55406296547167,-5.864513379922509,3.62557183958292,-1.342482566833496,0.8821706771850586,-1.1669496297836304
1.0367958984375,0.2466678721215575,-6.261269302985072,4.457033769395947,-1.1533912420272827,0.7786964774131775,-1.0402390956878662
1.04677587890625,0.1282775847417302,-6.513301697814464,5.148287602573633,-0.9064486026763916,0.7089942097663879,-0.9259286522865297
1.0567568359375,0.1444469580478034,-6.55098290143311,5.539502258121967,-0.6790732145309448,0.6929119229316711,-0.8197622299194336
1.066736572265625,0.1066561109090689,-6.735632197341323,5.698363617300987,-0.4492007195949554,0.6610677242279053,-0.7118176817893982
1.076717041015625,0.0486128589343279,-6.781724670952558,5.964650162932276,-0.1897425055503845,0.5650383830070496,-0.5707457661628723
1.086697021484375,-0.0625972894167527,-6.664004300457239,6.317964419153332,0.1006444543600082,0.3889257609844208,-0.4141203463077545
1.0966767578125,-0.0216586183721199,-6.563210514843464,6.633724897527694,0.3831022381782532,0.2165910005569458,-0.2854249775409698
1.10665771484375,0.1175034946079365,-6.432131481081247,6.887037395295501,0.5998646020889282,0.1150735393166542,-0.2010801136493683
1.1166376953125,0.3586925882585347,-6.1485898492664095,7.015821011596918,0.7402814030647278,0.0772750303149223,-0.1653809696435928
1.126617919921875,0.5319419537521899,-5.891680203789472,7.055425876754522,0.8251293897628784,0.0864579305052757,-0.1453255116939544
1.136597900390625,0.6799186385624111,-5.760936101070046,7.226106268543004,0.8886758685112,0.1351335942745208,-0.1204848736524581
1.146577880859375,0.7067080804843455,-5.627638222214579,7.483949979999661,0.9344289898872375,0.2079278975725174,-0.0925555080175399
1.156558837890625,0.6873077989656478,-5.439039311897754,7.641117979264258,0.9348920583724976,0.3268002271652221,-0.0353372283279895
1.166538818359375,0.5358778318963945,-5.236308415853977,7.608117042416334,0.9050395488739014,0.4429778754711151,0.0460917167365551
1.176518798828125,0.476218897486478,-4.999485865116119,7.553488795650005,0.867570161819458,0.4959162175655365,0.1312090158462524
1.186498779296875,0.4829810120325535,-4.872083181779086,7.527355991005897,0.8329610228538513,0.5245890617370605,0.2078049778938293
1.19647900390625,0.4215513781556859,-4.805068916170299,7.5908303920507425,0.8159580826759338,0.5252918601036072,0.2964909076690674
1.2064599609375,0.2660063769830391,-4.685383383081853,7.608406380751728,0.8330605626106262,0.4952031672000885,0.3887411952018738
1.216439697265625,0.1170503988118842,-4.439270733690262,7.564701094537973,0.8826640844345093,0.4522437453269958,0.4749083220958709
1.226419921875,0.0057158934287726,-4.136475535351038,7.505289705148339,0.9518581628799438,0.3947210907936096,0.5276098847389221
1.23639990234375,-0.0782313137371093,-3.748213592128456,7.355462716296315,1.0285606384277344,0.3326158821582794,0.5612805485725403
1.246380126953125,-0.2179267846751958,-3.408698436418176,7.351700148892402,1.0971142053604126,0.3025034666061401,0.5795541405677795
1.256360595703125,-0.2361285040590912,-3.2237457736492154,7.346787826931476,1.1101722717285156,0.3616285622119903,0.614251434803009
1.2663408203125,-0.2687202025189996,-3.047426791451872,7.057845212855935,1.0485258102416992,0.4633902013301849,0.6565731763839722
1.27632080078125,-0.1136045326743274,-2.7161791133493183,6.4100266167789695,0.9375428557395936,0.4656829237937927,0.6507472395896912
1.286301025390625,0.1505469006244093,-2.4711007754415277,5.503258393830061,0.7976776957511902,0.4267275929450989,0.6020387411117554
1.29628076171875,0.1688764841716736,-2.409625877650827,4.717355269142985,0.6711609959602356,0.4575203955173492,0.5417287945747375
1.306260986328125,0.1063005663365125,-2.161371247794479,4.033506159263849,0.5696520209312439,0.5869722366333008,0.4753930270671844
1.316241943359375,0.0587478109143674,-1.3558137206971643,3.156284933316708,0.4897124171257019,0.7015054821968079,0.4179478287696838
1.326221923828125,0.1255119742196053,0.2399910977713763,1.52656308606863,0.3864674568176269,0.6499564051628113,0.3958828747272491
1.336201904296875,0.1938432407110929,2.0195771971419454,-1.038670263531804,0.3259375095367431,0.5344306230545044,0.4835075438022613
1.346181884765625,0.0883320711866021,3.73644570518434,-2.9002397957146164,0.3730056285858154,0.3788789510726928,0.6640278697013855
1.356161865234375,0.0885689486823976,5.546232443159818,-4.041341090673208,0.457990825176239,0.1668945103883743,0.8670739531517029
1.366142822265625,0.2305688971705734,7.219135845008492,-5.308531356021762,0.3184304237365722,-0.0710475072264671,1.0266296863555908
1.376122802734375,0.3596785305559635,8.745058295086025,-7.694235236945748,-0.2222325503826141,-0.3178607523441314,1.104153037071228
1.38610302734375,0.5220984589993953,10.413084446287154,-11.170596758270262,-1.1651626825332642,-0.6883271932601929,1.0594098567962646
1.3960830078125,1.1124755044549703,11.67146655128002,-15.133428375852109,-2.377772331237793,-1.0969655513763428,0.8905913233757019
1.406062744140625,2.258339045379311,11.42174126434922,-19.013353746688363,-3.607186317443848,-1.2615145444869995,0.5966567397117615
1.416043701171875,3.5323452743530277,10.212339755624532,-21.85881799612045,-4.493168830871582,-1.0556011199951172,0.1946131438016891
1.426023681640625,4.394511554509401,9.089991091930866,-22.901572314095496,-4.687776565551758,-0.5212019085884094,-0.2143887281417846
1.436004150390625,4.354247640921176,8.475641634735464,-21.89294939830303,-4.112390041351318,0.0660440176725387,-0.5083004832267761
1.44598388671875,3.692624683636427,9.028043462061882,-20.085411316037177,-2.83229923248291,0.6723329424858093,-0.6083500385284424
1.4559638671875,2.678457869981229,10.222370151251551,-17.260288428366184,-1.138231873512268,1.2462897300720217,-0.5129308104515076
1.46594482421875,1.836380584260076,10.769814648431538,-13.84897425649166,0.4175738990306854,1.422053337097168,-0.3341530561447143
1.4759248046875,1.400307819201052,9.788832603758571,-12.181236274582147,1.3973066806793213,1.410181164741516,-0.2036755084991455
1.485904541015625,1.2539848929472266,7.628418656688928,-10.57711999323368,1.7547922134399414,1.319191575050354,-0.1654648780822754
1.495885009765625,1.2013118719018996,6.370252824795246,-9.042879212144015,1.6611427068710327,1.178666353225708,-0.2060533165931701
1.505864990234375,1.126975300581008,6.053148530596494,-7.513350262007116,1.2936490774154663,1.058003544807434,-0.23660509288311
1.515845947265625,0.8186221758536995,5.250246340313553,-5.658645354896784,0.8215113878250122,0.9328060150146484,-0.2361273169517517
1.52582568359375,0.5947849250257015,3.764870127896964,-3.604652385672927,0.347686618566513,0.8096033930778503,-0.2268930673599243
1.5358056640625,0.4477382145419716,2.0547017020151017,-1.5135557204574346,-0.0770881101489067,0.714587926864624,-0.2091260552406311
1.545785888671875,0.2962229803420603,0.4511071064531803,0.4160533287286758,-0.4206778705120086,0.6446414589881897,-0.1708294004201889
1.55576611328125,0.0875447202011942,-0.933599531251192,2.1064631611734628,-0.6717250347137451,0.6102270483970642,-0.108530081808567
1.565746826171875,-0.208933696206659,-1.97665458573848,3.5792940725326536,-0.8434179425239563,0.6120747327804565,-0.0267201699316501
1.575726806640625,-0.537855561710149,-2.773940981966257,4.783641804999113,-0.9506772756576538,0.6075313687324524,0.0529610775411129
1.585706787109375,-0.8989503888048231,-3.441773023024201,5.689699833852052,-0.9862375259399414,0.5739473104476929,0.1248863935470581
1.59568701171875,-1.231372663644701,-4.0093317952111365,6.395645040205121,-0.9583856463432312,0.5143241882324219,0.1950018405914306
1.605666748046875,-1.6236368282459674,-4.434948194316029,6.962400387054681,-0.8759812116622925,0.4126508235931396,0.2739589810371399
1.615647705078125,-2.0218074404120445,-4.832646366664767,7.334081490093469,-0.7496182322502136,0.2726851999759674,0.3478928506374359
1.6256279296875,-2.357673718225956,-5.320663107842207,7.721660419487953,-0.5785982608795166,0.0797018930315971,0.4088086783885956
1.63560791015625,-2.6197806400850414,-5.864643728303909,7.968319889107346,-0.3932294845581054,-0.1287524998188018,0.4381359219551086
1.645587890625,-2.765425082555413,-6.341585533237457,8.186530093833804,-0.1954811364412307,-0.336770236492157,0.4509240388870239
1.65556787109375,-2.692747968879342,-6.661033760213852,8.369807516866922,-0.0024432290811091,-0.5102594494819641,0.4579316079616546
1.665548828125,-2.544752287107706,-6.794778213793039,8.550334179887175,0.1774905771017074,-0.621597409248352,0.4773464500904083
1.67552880859375,-2.3343987872309984,-6.7443105938375,8.67835733321011,0.348617285490036,-0.6826873421669006,0.5057010650634766
1.6855087890625,-2.1509039220549164,-6.556855592858791,8.768563673835992,0.5111117959022522,-0.6973569393157959,0.5447208285331726
1.69548876953125,-2.0162804936841128,-6.323999607664346,8.865123182880877,0.6632422208786011,-0.6747992038726807,0.583689272403717
1.705468994140625,-1.9057740000903605,-6.048453650778532,8.961200461366772,0.8043369054794312,-0.6289122700691223,0.6187634468078613
1.715449951171875,-1.822895225873589,-5.772234324675798,9.048156275764107,0.9213074445724488,-0.5705850720405579,0.6446744203567505
1.7254296875,-1.828698066933453,-5.487810649329424,9.024328825452924,1.0071377754211426,-0.5094419717788696,0.667218029499054
1.73540966796875,-1.9635817536756397,-5.261919826972484,8.816353599014878,1.0590906143188477,-0.4492897391319275,0.6748554110527039
1.745389892578125,-2.0944363310322163,-5.10030536969304,8.572578744921088,1.0980507135391235,-0.3750667870044708,0.6602131128311157
1.755369873046875,-2.2020485644891856,-4.915299515432119,8.49523480847776,1.1109867095947266,-0.2949922084808349,0.6347103714942932
1.765350830078125,-2.272880927081406,-4.568979063621163,8.354255727469921,1.123121738433838,-0.2403934150934219,0.5934706330299377
1.775330810546875,-2.354936256086081,-4.216472616651654,8.245688969767093,1.1361935138702393,-0.2217020243406295,0.5424178838729858
1.785310791015625,-2.482148823678493,-4.026810461017489,8.103956440043449,1.1538914442062378,-0.2450525164604187,0.4908707737922668
1.795290771484375,-2.5588319581255314,-3.918317937594652,7.831824090993404,1.1851177215576172,-0.3035978376865387,0.4472367465496063
1.80527099609375,-2.5965683990627526,-3.83711907928884,7.530224239918589,1.2472416162490845,-0.3936658501625061,0.4226923882961273
1.815251953125,-2.660073195245862,-3.745847739779949,7.10386462123096,1.3511486053466797,-0.4247460067272186,0.4166089296340942
1.82523193359375,-2.724007030496001,-3.3775700154438613,6.827053174453973,1.5395580530166626,-0.4116785526275635,0.3812167346477508
1.835211669921875,-2.5736124708890915,-2.8660359128177166,6.678755294865369,1.796682596206665,-0.3853572010993957,0.3182580173015594
1.845191650390625,-2.3700597370684147,-2.455284197628498,6.469412287205457,2.037575483322144,-0.33858123421669,0.2437306195497512
1.855172119140625,-2.263844072536379,-2.031411865711957,5.831565634566545,2.1735289096832275,-0.3669721186161041,0.1775023341178894
1.86515283203125,-2.04532845512256,-1.6576126014754176,4.410410549908876,2.0937933921813965,-0.4487665593624115,0.1747905910015106
1.8751328125,-1.924190531268716,-1.3461270239412784,1.977473208644986,1.7657543420791626,-0.5646231174468994,0.3072170615196228
1.88511279296875,-2.121166517047584,0.1754200605962425,-1.4428350015461444,1.3105311393737793,-0.8117036819458008,0.5861629247665405
1.8950927734375,-2.630303495404124,3.73959803173542,-4.91682804017365,0.9189831018447876,-1.261987566947937,0.8940309882164001
1.905072998046875,-2.851629201802611,7.375024325856566,-6.955044179072976,0.6518641114234924,-1.992167592048645,1.1174136400222778
1.9150537109375,-2.245927892095596,9.080127285042405,-7.956512546935677,0.1942233294248581,-2.9465606212615967,1.2588142156600952
1.925033935546875,-0.7311993284665048,8.998398265382647,-10.53603511865139,-0.8402990698814392,-3.670111179351807,1.382543683052063
1.935013916015625,1.143572945769131,7.621040236875414,-15.079374129581453,-2.476070642471313,-3.666215181350708,1.4030297994613647
1.944993896484375,3.084723087406158,5.182670933690667,-19.76508864431381,-4.197921752929688,-2.876628398895264,1.1578444242477417
1.9549736328125,4.433343389467895,3.26994316893965,-22.76316454488039,-5.335447311401367,-1.4590147733688354,0.6339274048805237
1.964953857421875,4.633981112624705,3.671702307116985,-24.172273802435395,-5.290440559387207,0.1287207752466201,0.0082924114540219
1.974934814453125,3.744344934001565,5.86307487155199,-23.978058221280573,-3.955712556838989,1.2082842588424685,-0.4614559113979339
1.9849150390625,2.089999079237133,7.929320588627458,-23.26527586238384,-1.7687033414840698,1.7131768465042114,-0.5917630791664124
1.994894775390625,0.3864401346229016,7.876357644724846,-21.235972513258456,0.5989669561386108,1.783373475074768,-0.5891342759132385
2.004874755859375,-0.3223957882029935,7.224882279706001,-18.80751787036657,2.3354623317718506,1.498616337776184,-0.6138298511505127
2.01485498046875,-0.2579777861651033,6.723922470325231,-17.327153056371213,3.2263283729553223,1.2328672409057615,-0.5709774494171143
2.0248359375,-0.3424269149711355,6.106574415835738,-14.849335539895296,3.459707021713257,0.9943100810050964,-0.4942659139633178
2.03481982421875,-0.3271647196378558,5.966749181038141,-12.13753391097784,3.204997301101685,0.7141561508178711,-0.4352833032608032
2.0447998046875,-0.156828757372871,5.3238370617032045,-9.794837981653211,2.588080406188965,0.4074465632438659,-0.4278770387172699
2.0547802734375,0.1292990184776485,3.706334060037136,-7.894757809290289,1.7388014793395996,0.1617214679718017,-0.460001677274704
2.064760009765625,0.4290895551081746,1.712226527455449,-6.335487800884247,0.7688078284263611,-0.0085147423669695,-0.5039970874786377
2.074740966796875,0.70857416661717,0.025300080147013,-5.312635868731141,-0.1648069322109222,-0.0707008838653564,-0.5677276253700256
2.084720947265625,0.9027540919367224,-0.9826988585282116,-4.264464786404371,-0.8442636132240295,-0.0401078797876834,-0.6638545393943787
2.09470068359375,1.0943893742747604,-1.730621723584831,-2.546937229931354,-1.150649070739746,0.0622560456395149,-0.7437059879302979
2.1046806640625,1.054876571314782,-2.444375411731749,-0.529956186762452,-1.0795563459396362,0.2084649801254272,-0.792903482913971
2.114661865234375,0.7776102934423834,-2.861437479111552,1.537758433821797,-0.7317955493927002,0.3447721898555755,-0.841467559337616
2.12464208984375,0.4774789805501699,-3.0884499989748,3.480127595859766,-0.2518700361251831,0.4455335438251495,-0.8903237581253052
2.1346220703125,0.1936406308110803,-3.1999411196917293,5.086043620106578,0.2385028749704361,0.5111226439476013,-0.9247379302978516
2.144601806640625,-0.0883659003909677,-3.05709975194335,6.308922450041771,0.6712756156921387,0.5617164969444275,-0.9442107081413268
2.154581787109375,-0.4213853374063968,-2.908964953961968,7.378147426313161,0.9907880425453186,0.67136150598526,-0.9268738031387328
2.16456298828125,-0.7370758192844689,-2.8393904824763534,8.24080821198821,1.199761152267456,0.7415893077850342,-0.9075235724449158
2.17454296875,-0.7280673140510916,-2.8163556438475847,8.924641539776324,1.3261611461639404,0.7392712831497192,-0.8996496200561523
2.18452294921875,-0.6979010891724378,-2.915397617357969,9.536777412575482,1.3632923364639282,0.700300931930542,-0.8954952359199524
2.1945029296875,-0.7061538076024502,-2.9658260743469,10.078389550340177,1.3168483972549438,0.6612057089805603,-0.8818404078483582
2.20448291015625,-0.713344742019847,-2.940687541437149,10.45225910333395,1.2037461996078491,0.635463297367096,-0.8332539796829224
2.214464111328125,-0.7592553562581539,-2.978539425447583,10.735324349808693,1.0471047163009644,0.5965480804443359,-0.7578902244567871
2.22444384765625,-0.8241758644580841,-3.02196238758862,10.87039216094613,0.8513203859329224,0.5132575035095215,-0.6466803550720215
2.234423828125,-0.980563746195659,-2.8118016338050364,10.831845280408858,0.6199361681938171,0.4050964117050171,-0.4995929002761841
2.244404052734375,-1.145777470076084,-2.614320036591589,10.652864677786829,0.3818784058094024,0.27235808968544,-0.3188796043395996
2.2543837890625,-1.2572867109715935,-2.5415634279385206,10.467542012661696,0.1497852355241775,0.1375848352909088,-0.1162902638316154
2.264364990234375,-1.350232705694437,-2.4679858582913874,10.261938776051997,-0.0726301074028015,0.0427189357578754,0.1036837771534919
2.274344970703125,-1.3735713495753703,-2.3156226289600133,9.904145913112163,-0.2379210740327835,-0.0115818548947572,0.2961224615573883
2.284324951171875,-1.2050129183769225,-2.276694347889721,9.709999305540324,-0.3304544985294342,-0.0309030581265687,0.4526452124118805
2.294304931640625,-1.0917813837334511,-2.488222882895172,9.68396586961746,-0.3551675677299499,-0.0430824905633926,0.5811211466789246
2.304284912109375,-1.0495128523245454,-2.7099422647863625,9.519865440741182,-0.3221799433231354,-0.0482774823904037,0.6851528286933899
2.31426611328125,-1.0948967392750084,-2.8362162363544106,9.340199193942546,-0.2368360310792923,-0.0391881130635738,0.7521139979362488
2.32424609375,-1.1733185340829193,-2.7925451446712017,9.16279329329133,-0.1102462485432624,-0.0415292046964168,0.7848250269889832
2.334225830078125,-1.2585418255992231,-2.6065894423395397,8.922230971503257,0.047604102641344,-0.0469356887042522,0.7920722961425781
2.344205810546875,-1.3989955675587058,-2.4565479339540004,8.751499726310373,0.2379848510026931,-0.0440604425966739,0.7692252993583679
2.35418603515625,-1.4502999305993318,-2.2719516834072766,8.714619902202486,0.4360318779945373,-0.0379258543252944,0.7293412685394287
2.3641669921875,-1.4850814672537147,-2.0160135133109987,8.639571967741846,0.5892254114151001,0.031144943088293,0.6977131962776184
2.37414697265625,-1.5384019924223422,-1.651442388407886,8.370675531873106,0.6822642683982849,0.1253441423177719,0.6724554896354675
2.384126953125,-1.380310594702512,-1.1775472576938568,8.006307966718078,0.7134743928909302,0.1987311094999313,0.6334019303321838
2.39410693359375,-1.1736242390312257,-0.9179704388342798,7.605632824385165,0.6585957407951355,0.1847521811723709,0.5719087719917297
2.404086669921875,-1.0017401705414055,-0.7747988162182271,6.759599932906031,0.5123125314712524,0.1341259479522705,0.499824583530426
2.41406787109375,-0.9765741651028396,-0.552223365486972,5.594213506996631,0.2948516011238098,0.0404673665761947,0.4392877519130707
2.424048095703125,-1.0331281192347406,-0.2277093064883723,4.177782528251409,0.057945042848587,-0.1319844424724578,0.3932130634784698
2.434028076171875,-1.114447389049828,0.2197650329530239,2.504691494876146,-0.1390676200389862,-0.3086462914943695,0.3648930191993713
2.444008056640625,-1.1639805046342313,0.712973205293715,0.9155553405165672,-0.1927523761987686,-0.4260657727718353,0.3324065804481506
2.45398779296875,-1.242241117531061,1.362038294300437,-0.3845236334770918,0.0235418509691953,-0.4793364405632019,0.2754868268966675
2.463968994140625,-1.338604957873374,2.2443911840476094,-1.0380395644128322,0.5456703305244446,-0.5774378180503845,0.2161242961883545
2.473948974609375,-1.3893907038673758,3.333701939883828,-1.446655436617136,1.2229686975479126,-0.8004006147384644,0.2551681101322174
2.48392919921875,-1.5418530096590517,4.508650267125666,-2.529560563194752,1.7649632692337036,-1.1875125169754028,0.4060328602790832
2.493908935546875,-1.5026919427461922,5.693366539666056,-4.547777285638452,1.9616438150405884,-1.7232261896133425,0.5725603103637695
2.503888916015625,-0.9202553349010646,6.830942583107948,-7.27350339501202,1.4793051481246948,-2.282798290252685,0.5885688662528992
2.5138701171875,0.5294938664803281,7.3253428878426545,-11.39809267773628,0.0633202493190765,-2.5752878189086914,0.4618931710720062
2.52385009765625,2.1380841879703105,4.87134902228564,-16.84295850383043,-2.0657341480255127,-2.245927095413208,0.17205111682415
2.533829833984375,3.359172481226921,0.5380074643362314,-21.721364166629314,-4.091457843780518,-1.2459594011306765,-0.4027458727359772
2.54381005859375,4.04908571345061,-1.3572523751981556,-23.785600881969927,-5.240733623504639,0.0199573691934347,-1.1900053024291992
2.5537900390625,3.814250829398632,-0.0315693696748465,-24.740747059118743,-5.168781280517578,1.2659785747528076,-1.9379827976226809
2.563771240234375,3.1193878658130765,2.588859724381566,-24.790508576631545,-3.79283595085144,2.171058654785156,-2.4856412410736084
2.5737509765625,2.570972770035267,3.9376439848333593,-22.96084049562216,-1.6323732137680054,2.7543795108795166,-2.7185657024383545
2.58373095703125,2.2189178662255404,3.3207898513406517,-20.224714572787285,0.4789011776447296,2.852548837661743,-2.702225685119629
2.5937109375,2.46445651512146,2.608485046827793,-18.462559939080474,1.8796216249465945,2.7148447036743164,-2.5115807056427
2.60369091796875,2.920558653382957,2.110631825160235,-16.761840894067287,2.4480197429656982,2.572031021118164,-2.195310354232788
2.613671875,3.242566793975234,1.71848178845793,-14.377211364376544,2.472973585128784,2.350815534591675,-1.774145483970642
2.623652099609375,3.324623145893216,1.4022636294439434,-11.453437548339366,2.1948447227478027,2.063537359237671,-1.2924919128417969
2.633632080078125,3.183921128261089,0.6856427883628755,-8.437405719843506,1.7563982009887695,1.7089192867279053,-0.8313490152359009
2.64361181640625,2.991240501588583,-0.2196221904162317,-5.726083983397484,1.2122697830200195,1.3354170322418213,-0.4212404489517212
2.6535927734375,2.6593767374143003,-0.9422706212237476,-3.4584324814021588,0.6104596257209778,1.0084465742111206,-0.0693172961473465
2.66357275390625,2.233447034576535,-1.4519633337669071,-1.4712258142501116,0.0228677168488502,0.7432938814163208,0.2297450304031372
2.67355322265625,1.8217456174470483,-1.7021595992103218,0.2786737335175275,-0.5133456587791443,0.5707745552062988,0.4803937673568725
2.683532958984375,1.3360340844720602,-1.7923700314894315,1.8232663972735403,-0.9549941420555116,0.4192574620246887,0.6834234595298767
2.693512939453125,0.8755755045667291,-1.887773648497462,3.08828048762679,-1.2733182907104492,0.2275647073984146,0.8718886971473694
2.703493896484375,0.3232270148627459,-2.175197090181708,4.040101319745183,-1.4578965902328491,0.0434095673263073,1.0800530910491943
2.713473876953125,-0.3939433498598635,-2.571239019756019,4.766571427732706,-1.4727588891983032,-0.1151212155818939,1.3391810655593872
2.723453857421875,-1.170343171533942,-2.8095915565401315,5.553413294574618,-1.2848365306854248,-0.2953594923019409,1.6041845083236694
2.73343408203125,-1.805621581120044,-2.753232540458441,6.385591263702511,-0.911495566368103,-0.4955975115299225,1.8288729190826416
2.7434140625,-2.167086264440417,-2.5551035852521657,7.24030839689672,-0.4028554856777191,-0.6669161915779114,1.9934622049331665
2.75339501953125,-2.4141325414203108,-2.4027438630521294,8.15250039846003,0.1716325730085373,-0.7913563847541809,2.08655047416687
2.763374755859375,-2.595031106492877,-2.24384450995028,9.00033069474995,0.7538178563117981,-0.880409300327301,2.128483772277832
2.77335498046875,-2.711073022381961,-2.076680894111097,9.774655025324224,1.2742596864700315,-0.9137227535247804,2.111908197402954
2.7833349609375,-2.783013638477027,-1.83029819560647,10.424646289265157,1.7010613679885864,-0.8676707148551941,2.057700157165528
2.793315185546875,-2.8151903994604943,-1.5020152125284074,10.998325297898054,2.008199453353882,-0.7356575131416321,1.969276785850525
2.8032958984375,-2.8200375472307204,-1.0549849270600824,11.496339116954802,2.2124295234680176,-0.5346124172210693,1.8641983270645144
2.81327587890625,-2.874119558291137,-0.5614993990827352,11.967303601044415,2.330738067626953,-0.2886996269226074,1.740601658821106
2.823255859375,-2.927745642277598,0.0316737981637008,12.420143230378628,2.3914194107055664,-0.1097304672002792,1.6038782596588137
2.833236083984375,-2.8192206778898834,0.6391263171859085,12.762504715430737,2.38119912147522,0.0486993864178657,1.4426158666610718
2.8432158203125,-2.7038065385103223,1.1431938833236694,13.02551852300167,2.283687114715576,0.2421703040599823,1.2696430683135986
2.85319677734375,-2.559265381106734,1.6124201454438267,13.269980774837732,2.10897159576416,0.460036039352417,1.092008352279663
2.863177001953125,-2.4966882211625574,1.9291503456331789,13.497910409545897,1.861995816230774,0.6921606659889221,0.9153842329978944
2.873156982421875,-2.554586283379793,2.017830645735562,13.563409594416616,1.5312604904174805,0.918794333934784,0.7359330058097839
2.883136962890625,-2.6006010155797004,2.0124156349495053,13.513175783216951,1.134345769882202,1.166623830795288,0.58523029088974
2.893117919921875,-2.6277576103135942,2.00832281267792,13.3909288752079,0.6731065511703491,1.357538104057312,0.4635904431343078
2.903097900390625,-2.571743169885873,1.7834464280605316,13.041152145463228,0.1573976427316665,1.4957283735275269,0.3730582594871521
2.913077880859375,-2.737403395424783,1.3495761414818466,12.51648412823677,-0.3800314664840698,1.55603289604187,0.3307377099990845
2.923057861328125,-3.0688366592273115,0.9143063633687794,11.74953763295412,-0.9435075521469116,1.4696975946426392,0.3453425168991089
2.9330380859375,-3.346915349461138,0.6207822667218744,10.335794285857675,-1.5017369985580444,1.2080960273742676,0.4146371781826019
2.94301904296875,-3.4161610273838043,0.0548465656921267,8.50718652755618,-2.0221986770629883,0.8296179175376892,0.5367656946182251
2.9529990234375,-3.234028682732582,-0.8801073027774691,6.50721156424582,-2.461158037185669,0.3920744061470032,0.6812475323677063
2.962978759765625,-2.864992541244626,-1.88619251678586,4.394797385713458,-2.774566650390625,-0.1617430746555328,0.8151692748069763
2.972958984375,-2.381578033165633,-2.9090538012892004,2.140959305015206,-2.937025547027588,-0.69291752576828,0.9513478875160216
2.982939208984375,-1.924628630425036,-3.5703576096221803,-0.0964677391082048,-2.860978364944458,-1.1357526779174805,1.103519320487976
2.992920166015625,-1.303969697821885,-2.806594128289819,-2.292414771851897,-2.4105725288391118,-1.4732801914215088,1.268633484840393
3.00289990234375,-1.093858628398925,0.1093636985004879,-4.01183267211616,-1.581351399421692,-1.7812570333480835,1.461734414100647
3.0128798828125,-1.1508940824374556,3.791776839523018,-5.211401938134432,-0.7638261318206787,-2.2161097526550293,1.7604334354400637
3.02285986328125,-1.07464437097162,5.839692826920747,-7.627785619482397,-0.6088342070579529,-2.7544703483581543,2.061323404312134
3.03283642578125,-0.5223595941536128,5.203695601540804,-12.2437976524353,-1.3858519792556765,-3.1923344135284424,2.027637243270874
3.0428173828125,0.5053274300057441,3.754853760795295,-17.67770018596649,-2.7498910427093506,-3.380258083343506,1.4333381652832031
3.052797119140625,1.9674249851003287,3.414374728488922,-22.0558205776453,-4.0917134284973145,-2.997671365737915,0.4110294580459595
3.06277734375,3.1993700418055058,3.8721690576210617,-24.220896671307084,-4.757131576538086,-1.900420308113098,-0.7938751578330994
3.07275732421875,3.9777971315234897,4.832761517477035,-24.023166944551463,-4.369822025299072,-0.5855761170387268,-1.8657034635543823
3.08273828125,4.101112837807834,6.8142854628175495,-23.127352077293395,-3.0039255619049072,0.7176422476768494,-2.5313198566436768
3.092718017578125,3.5612244550958274,8.011236655291915,-20.85662014493942,-1.0465306043624878,1.99318265914917,-2.7117583751678467
3.1026982421875,2.7500872281700373,7.892384650418162,-17.925439267516136,0.720132052898407,2.5938832759857178,-2.664278745651245
3.112678466796875,2.814009080721438,7.397935245844721,-16.75180348417759,1.818645715713501,2.8151979446411133,-2.543823719024658
3.122658203125,2.753056599369645,6.212760415881872,-14.733599036693573,2.2470085620880127,2.7238428592681885,-2.401984453201294
3.13263916015625,2.590737793213129,5.613586900508404,-12.459225532966853,2.2556400299072266,2.3770220279693604,-2.1866326332092285
3.142619140625,2.154066477739066,5.370221211737394,-9.967141006207466,1.961510181427002,1.9284852743148804,-1.8873865604400637
3.15259912109375,1.692825807545334,4.725926113611459,-7.702939352405071,1.4474772214889526,1.4257547855377195,-1.5814833641052246
3.162579345703125,1.5185272252596913,3.834118728429079,-5.85253769544661,0.7848444581031799,0.9431074261665344,-1.29359233379364
3.172559326171875,1.4806353014998137,2.697458630788326,-4.254316901877522,0.0450878515839576,0.5637646317481995,-1.016619324684143
3.182540283203125,1.4579863934487105,1.5345181367263196,-2.7558400926083326,-0.7083542943000793,0.3160052597522735,-0.7474318742752075
3.192520263671875,1.4303586740717291,0.5536152947694063,-1.3705337354451417,-1.4197407960891724,0.1368171125650406,-0.4717459380626678
3.2025,1.2489127042494714,-0.3174398097634315,-0.4172328939020633,-2.011842966079712,-0.106852114200592,-0.2079408168792724
3.21247998046875,0.8692677827246487,-1.1815979943893848,0.2603483877539634,-2.412482023239136,-0.3545846939086914,0.0414144173264503
3.22246044921875,0.3552580837652087,-1.997488699452579,0.969295698532462,-2.5885589122772217,-0.5368085503578186,0.2645937204360962
3.23244140625,-0.0630544220671057,-2.644531927242875,1.7813216909915208,-2.521328449249268,-0.648936927318573,0.4316570162773132
3.242421142578125,-0.3351096142277121,-3.070957596904039,2.7568758653968573,-2.242255210876465,-0.6932746171951294,0.5306035876274109
3.252401123046875,-0.5913742397993803,-3.4285552295327184,3.746263334843516,-1.799923062324524,-0.6384763717651367,0.5532737374305725
3.262381103515625,-0.7238783379286527,-3.797298817814887,4.824558921799063,-1.264011025428772,-0.5223760008811951,0.4912352561950683
3.272361328125,-0.7586850090242921,-4.149623770737648,5.6847039252609015,-0.7155303359031677,-0.3739913702011108,0.3526353240013122
3.282342041015625,-0.722483814830333,-4.418498287035525,6.337328460314869,-0.2300108075141906,-0.1830991357564926,0.1648464798927307
3.292322265625,-0.7369426944240928,-4.734572653664649,6.911905879092216,0.1569337248802185,0.0223637409508228,-0.0251149293035268
3.30230224609375,-0.7599604357875883,-4.987254744574427,7.354302440345287,0.4504920840263366,0.2154454588890075,-0.2005558609962463
3.3122822265625,-0.8168149803012609,-5.057167654234171,7.703177252814173,0.668273389339447,0.3946658372879028,-0.3532082736492157
3.32226318359375,-0.8638565713308751,-5.022694891268015,8.119710474014282,0.8284372091293335,0.5277917385101318,-0.4773585796356201
3.3322431640625,-0.957670288798958,-4.987154791331291,8.530737499013542,0.9559634923934937,0.6136725544929504,-0.573326051235199
3.34222314453125,-1.0634177512973546,-4.961152919590472,8.959245820167661,1.0552265644073486,0.6550844311714172,-0.6347159743309021
3.352203369140625,-1.1718582522720098,-5.011482592380046,9.339901087778806,1.1264368295669556,0.6893457770347595,-0.6464791297912598
3.36218310546875,-1.3433641350992025,-5.021849088093638,9.645495561447738,1.1654372215270996,0.7098492383956909,-0.609373927116394
3.372164306640625,-1.5261220643028617,-4.891767248675227,9.86250340464711,1.1729332208633425,0.6820759773254395,-0.5189836025238037
3.382144287109375,-1.6876554191701114,-4.676088315992057,9.90879636926651,1.1557250022888184,0.5905671715736389,-0.3948182761669159
3.392124267578125,-1.8266854119367897,-4.496491627298295,9.849539878177644,1.114354372024536,0.4579396247863769,-0.2530358433723449
3.402104248046875,-1.9317104053795335,-4.358121559745073,9.860962604945897,1.0536596775054932,0.304665744304657,-0.1086436510086059
3.412084228515625,-2.031722100704908,-4.206777444328368,9.865679696595668,0.9791977405548096,0.1541638374328613,0.0212720092386007
3.4220654296875,-2.107995339176804,-4.024304615676403,9.83227193251252,0.8836373090744019,0.0058943787589669,0.1460598856210708
3.43204541015625,-2.239472432345897,-3.787410753268003,9.614358664906025,0.7718236446380615,-0.1541296541690826,0.2714824974536896
3.442025146484375,-2.34740834479928,-3.541877072808146,9.223464327353238,0.6675018072128296,-0.2835391759872436,0.4020334780216217
3.452005126953125,-2.4113804662331937,-3.368537690943479,8.984304273578523,0.5876179337501526,-0.386954516172409,0.5231398940086365
3.461986083984375,-2.4440466181688008,-3.2360084583729503,8.650264042147993,0.5195708870887756,-0.5139708518981934,0.617831289768219
3.47196630859375,-2.442189007603377,-3.0492969692379237,8.00033356848359,0.4477142989635467,-0.6947760581970215,0.667296826839447
3.4819462890625,-2.310196219997108,-2.867293803924322,6.953185399463773,0.3178814947605133,-0.8496593236923218,0.7072359919548035
3.49192626953125,-2.2746926526784894,-2.7436849599123,5.403959230688214,0.1572840809822082,-0.9583802223205566,0.7424168586730957
3.50190625,-2.01261685661003,-2.630916658866405,3.830561912730336,0.0253546778112649,-0.9887009859085084,0.7543621063232422
3.51188720703125,-1.7133311276964842,-2.511141693928838,2.3840374090164898,-0.0307932812720537,-0.9743183255195618,0.7730889320373535
3.5218671875,-1.611255339448154,-1.9102794948160648,0.6098118137657642,0.0022881152108311,-1.0225402116775513,0.840905487537384
3.53184716796875,-2.0239663720116017,-0.5540260675273835,-1.8200345757454632,0.135837122797966,-1.1711400747299194,0.9396997094154358
3.541827392578125,-2.5944144358992576,1.7654964914806186,-4.269161419788003,0.4378374814987182,-1.4938788414001465,0.947109878063202
3.55180712890625,-2.852240027177334,4.790498246765137,-6.216896492773294,0.8032386898994446,-2.0009052753448486,0.7643674612045288
3.5617880859375,-2.5008286819681524,7.1881567693769925,-7.739789365896582,0.9182443618774414,-2.5073812007904053,0.3793980777263641
3.571768310546875,-1.3655004174530505,8.199136477428674,-9.664135379987954,0.5173081159591675,-2.807377576828003,-0.0829479768872261
3.581748291015625,0.2137956396872177,8.375300853586197,-12.493977697396277,-0.5879899263381958,-2.5700995922088623,-0.53248131275177
3.591728271484375,1.9809454148001968,7.892903121334314,-16.161194383531807,-2.157690525054932,-1.5730565786361694,-0.9743306040763856
3.601708984375,3.468329606038332,5.926114388310909,-18.950910442256927,-3.497708320617676,-0.1308060139417648,-1.4374237060546875
3.611689208984375,4.132492018672823,4.000418128654361,-19.89346367981434,-3.923561573028565,1.2068630456924438,-1.9063221216201784
3.62166943359375,3.914046543885768,3.814958100885153,-19.4129562913537,-3.2242798805236816,2.0589308738708496,-2.1501431465148926
3.631649169921875,2.858743417721987,4.885201898810268,-18.043500998795032,-1.6632871627807615,2.3268308639526367,-2.059325218200684
3.641629150390625,1.5970225236952305,5.901188036847114,-16.063545325684547,0.1108627542853355,2.084355354309082,-1.722498059272766
3.651610107421875,0.8057151288118213,5.708845263826847,-14.173498471558093,1.4400038719177246,1.5504374504089355,-1.3240408897399902
3.66159033203125,0.7375976512014866,4.593381683471798,-12.726789258927106,2.07529091835022,0.9184560775756836,-1.007685303688049
3.6715703125,1.0596616136342287,3.6754242502495647,-11.203140599000454,2.108659029006958,0.3754814565181732,-0.733872652053833
3.68155029296875,1.2464558126166465,3.0630735656559467,-9.469005606597662,1.724102020263672,-0.0223618894815444,-0.4495272934436798
3.6915302734375,1.4016685861602425,2.280086474546045,-7.782127455410361,1.1107819080352783,-0.2611161470413208,-0.1546016633510589
3.70151123046875,1.535549671731144,1.1769475382350385,-6.115106681859493,0.4225302636623382,-0.3946810364723205,0.1180934086441993
3.711490966796875,1.614816831322014,0.068637775157392,-4.487224324998259,-0.2379592657089233,-0.4508862495422363,0.3464826345443725
3.72147119140625,1.6979048643752932,-0.7319538000956177,-3.0003479371517896,-0.7990248799324036,-0.4081239998340606,0.5186482071876526
3.731451416015625,1.7906475916109978,-1.2856154182247816,-1.5817957284688948,-1.2348136901855469,-0.2731358110904693,0.6581762433052063
3.741432373046875,1.847220250443369,-1.7470768915623425,-0.3035439708799123,-1.5609978437423706,-0.0758780092000961,0.7639334797859192
3.751412109375,1.8520633065603676,-2.191467695372552,0.719623603093624,-1.756596922874451,0.189690813422203,0.8671349287033081
3.76139208984375,1.5503633561119436,-2.5804905399650333,1.7417840458512306,-1.8500550985336304,0.3953967988491058,0.9811720848083496
3.7713720703125,1.1924348110284655,-3.1391099266320466,2.279198147404194,-1.8482493162155151,0.534998893737793,1.0921170711517334
3.7813525390625,0.6600208558503537,-3.653277300371229,2.57305542152822,-1.700537085533142,0.6594318151473999,1.166863203048706
3.79133349609375,-0.0964950655065476,-3.915602541156113,3.156500037372112,-1.3374420404434204,0.7426180839538574,1.1189686059951782
3.801313232421875,-0.5502811088453978,-4.222317543287575,4.181676028558612,-0.7810877561569214,0.7254117131233215,0.9189374446868896
3.811293212890625,-0.7357542152918874,-4.454730460889637,5.082188698244095,-0.0956186205148696,0.6319382190704346,0.6060999035835266
3.821273193359375,-0.807075676575303,-4.565072703832388,5.817480410590767,0.6217173337936401,0.4965595006942749,0.2725212872028351
3.831253173828125,-0.7795400193959474,-4.658360643860697,6.435485467684269,1.282552719116211,0.3791561424732208,0.0084300013259053
3.841234130859375,-0.761695589017123,-4.670124439151585,6.912307445630431,1.830616235733032,0.3189027309417724,-0.1672696769237518
3.85121435546875,-0.6763663529083133,-4.517847426798939,7.373624980452656,2.2685256004333496,0.3556613028049469,-0.2636982202529907
3.8611943359375,-0.5092899769611656,-4.325435095673799,7.881449999427795,2.614707946777344,0.4710651636123657,-0.3080987930297851
3.871174072265625,-0.3832048059634864,-4.10942795394957,8.476145492604374,2.891822099685669,0.6234632134437561,-0.3117803633213043
3.8811552734375,-0.4196474076978862,-3.7732995180681344,9.108532126271724,3.102952480316162,0.7843811511993408,-0.2960867583751678
3.89113525390625,-0.5777475732460617,-3.381809260448813,9.63514075617194,3.2462480068206787,0.9504944682121276,-0.2676140964031219
3.901115234375,-0.9085169663123784,-2.9155197824329138,10.031814846169947,3.325821876525879,1.072502613067627,-0.2360156774520874
3.91109521484375,-1.3850006522148848,-2.065609464998543,10.243348641872403,3.352699518203736,1.1771475076675415,-0.1915289014577865
3.9210751953125,-1.99945897661224,-1.3435437294498085,10.339864896297454,3.28676700592041,1.2360236644744873,-0.129267543554306
3.931056396484375,-2.542359254491329,-0.6190411952082068,10.148328763484956,3.107069492340088,1.1653976440429688,-0.0706465765833854
3.941036376953125,-2.8981270413443445,-0.114295802874118,9.63003203485608,2.817816972732544,1.0310941934585571,-0.0367759838700294
3.95101611328125,-3.1683412818133827,0.1296883100561797,9.318515769922731,2.466536521911621,0.876812756061554,-0.0185453109443187
3.96099609375,-3.3732238029330968,0.1866575669907033,9.294005598044397,2.0750577449798584,0.7046003341674805,-0.0145949078723788
3.97097705078125,-3.4416771614342925,0.1594892818190157,9.08547332224548,1.640151858329773,0.5227048397064209,-0.018238378688693
3.98095751953125,-3.416242568187416,0.2281459078073501,8.63203397345245,1.1927317380905151,0.3309526741504669,-0.0236546974629163
3.990937255859375,-3.2892584025233984,0.3616384324520826,8.180570893168449,0.7462528347969055,0.1591763645410537,-0.0163903944194316
4.000917236328125,-3.149084792679548,0.4334042034368962,7.512593890681862,0.3367603421211242,0.0464730262756347,0.0291776154190301
4.010896484375,-2.950602786251902,0.4639891651842743,6.817018687173724,-0.0344800390303134,-0.0684519633650779,0.1100298538804054
4.020876953125,-2.589349845986068,0.4366357327040284,5.873617308354377,-0.3894506096839905,-0.2200154811143875,0.1659046858549118
4.030857421875,-2.091180105715245,0.2446555093858391,4.601699429962038,-0.7005991339683533,-0.3017540276050567,0.2170139402151107
4.04083740234375,-1.7645514657154675,-0.0674366557393223,3.61896966483891,-0.8667044639587402,-0.2187228500843048,0.2630459070205688
4.050817626953125,-1.386021081303805,-0.2217489002466201,3.3043834909409284,-0.842289388179779,-0.0238686725497245,0.2856596112251282
4.06079736328125,-0.9161025991357864,-0.2064860107935965,2.919671056893468,-0.7218940854072571,0.1697230190038681,0.3216172158718109
4.0707783203125,-0.7759091155476868,-0.0534122951053082,1.6468091756492853,-0.5335606336593628,0.3044171929359436,0.3652933239936828
4.08075830078125,-0.5510914753802121,0.3825311444856226,0.2110989114165306,-0.2773171961307525,0.3416990339756012,0.356270283460617
4.090738525390625,-0.3730231652975082,0.9494216620221734,-1.0537287164539098,0.0846330150961875,0.3116977214813232,0.1728186756372451
4.100718505859375,0.1250648880392313,1.8658286509320137,-1.6519050374835729,0.6019896864891052,0.2315147519111633,-0.3042293787002563
4.110698486328125,1.4753310576118528,3.758790223461389,-1.6340654294103385,1.1015397310256958,0.1545081138610839,-0.9887632131576538
4.120679443359375,3.288518690072,5.639772312122583,-2.270279512411356,1.315091252326965,0.3084383308887481,-1.6488099098205566
4.130659423828125,5.065208337348699,6.035580725201964,-3.77814783488214,0.8434072732925415,0.4842375814914703,-2.1180455684661865
4.140639404296875,7.082215684002637,6.877070712554454,-8.468426296529174,-0.9036893844604492,0.8252636790275574,-2.2156691551208496
4.15061962890625,8.967588116577268,6.841133722254633,-17.312822917723654,-3.5652506351470947,1.724896788597107,-1.936266541481018
4.1606005859375,9.082180710440872,4.062466004027426,-23.469694857645035,-5.905069351196289,2.4750516414642334,-1.6755179166793823
4.17058056640625,8.052281197863817,2.7605922555714844,-25.654104597330093,-6.986024856567383,2.4633212089538574,-1.596953511238098
4.180560302734375,7.013052131405472,3.853884336128831,-25.676622718608375,-6.54548978805542,1.985556364059448,-1.3659735918045044
4.190540283203125,5.100525734445452,5.832822356629372,-23.864901797699925,-4.818694114685059,1.1021400690078735,-0.836089015007019
4.2005205078125,3.4693197861194607,7.203985037627816,-20.7299565895319,-2.2802326679229736,0.0265490226447582,-0.1024825498461723
4.21050146484375,2.4916250925540924,6.742679193243384,-16.495060427439213,0.2023554593324661,-1.1206989288330078,0.6848543882369995
4.2204814453125,2.3450983142912385,4.972574477314949,-13.683236581802367,1.913057804107666,-1.9031044244766235,1.3442829847335815
4.23046142578125,2.624835585387051,3.859081320250034,-11.572293060344457,2.763077735900879,-2.193237543106079,1.8133811950683596
4.24044140625,2.689515562829375,3.9285008934348817,-9.308631504768131,2.983156204223633,-2.20346474647522,2.1020278930664062
4.250421142578125,2.6093349416553973,3.9442514202743766,-6.887507935416698,2.790680170059204,-2.058809280395508,2.2611284255981445
4.26040234375,2.261620697398484,3.291371449154615,-4.391298437681794,2.3159401416778564,-1.8518222570419312,2.3125274181365967
4.27038232421875,1.9216206807807088,2.350221356393397,-2.295946453109384,1.6517771482467651,-1.611554741859436,2.271319627761841
4.280362548828125,1.537647082401812,1.4544108730494976,-0.632149317780137,0.8576825261116028,-1.3512617349624634,2.153764009475708
4.29034228515625,1.14765451599434,0.6466126543533056,0.6601876637846231,0.022552253678441,-1.097615361213684,1.9830361604690552
4.300323486328125,0.755028970734775,-0.0299571487052366,1.8103069624572992,-0.7429353594779968,-0.814734697341919,1.7961852550506592
4.310303466796875,0.3562555703699588,-0.5350494547808543,3.088242493703961,-1.4138193130493164,-0.5558615922927856,1.60045063495636
4.320283447265625,0.0267380770608782,-0.8001530377052724,3.940481254085898,-1.973373532295227,-0.235873594880104,1.45038104057312
4.330263671875,-0.4970654322907328,-1.01671766718179,4.605145186501741,-2.396695137023926,0.1050983890891075,1.335438251495361
4.340243408203125,-0.9399803183294833,-1.3815354603223502,5.111493703183531,-2.6844189167022705,0.4181090891361236,1.2323846817016602
4.350224609375,-1.37808561212942,-1.889360917688906,5.377178191268444,-2.819207191467285,0.6860790252685547,1.1058465242385864
4.36020458984375,-1.821342443473637,-2.4517659603744746,5.655267402896285,-2.7842557430267334,0.9462106227874756,0.9461140632629396
4.370184326171875,-2.258172748901695,-3.0199361424580213,6.094293026411533,-2.572405815124512,1.1674962043762207,0.7469250559806824
4.380164306640625,-2.6735318117558955,-3.4311455382868647,6.497416146418452,-2.2013027667999268,1.269493579864502,0.5111478567123413
4.390145263671875,-3.105481797796488,-3.704635147164762,6.662355948728322,-1.6967018842697144,1.2607907056808472,0.2843123376369476
4.40012548828125,-3.522325107859075,-4.040517499330639,6.915042423552275,-1.1048892736434937,1.178645372390747,0.1023499816656112
4.410105712890625,-3.844328864537179,-4.423079477345943,7.208613866472244,-0.4746769666671753,1.060365080833435,-0.03063097409904
4.42008544921875,-4.073762181806564,-4.748251927188038,7.470610605955123,0.1400086730718612,0.9614901542663574,-0.117601178586483
4.4300654296875,-4.222600451882183,-4.9270682791590685,7.757962735968828,0.6973044276237488,0.9014646410942078,-0.1809756308794021
4.44004638671875,-4.2904178505674,-4.860845456188917,8.049566678208112,1.1821577548980713,0.8457831144332886,-0.2413526177406311
4.450026123046875,-4.330582687695324,-4.578260686707496,8.256223223263024,1.5784462690353394,0.7654057145118713,-0.3030865788459778
4.460006591796875,-4.414765530247986,-4.18162283706665,8.402942893749476,1.8982518911361692,0.663078784942627,-0.3614982664585113
4.469986572265625,-4.538459422194958,-3.707107382497192,8.609214238879083,2.137888193130493,0.5208116769790649,-0.4234801530838012
4.479967529296875,-4.648523432718217,-3.3071108700782057,8.602755271998047,2.2906534671783447,0.3312529325485229,-0.4863638877868652
4.489947509765625,-4.763022795340419,-3.0383810229480264,8.542971542164683,2.372996091842652,0.1055260449647903,-0.5404854416847229
4.49992724609375,-4.871454820747673,-2.8050410536289214,8.438376026180386,2.406919479370117,-0.105713240802288,-0.5905717611312866
4.509907470703125,-4.9793783121109,-2.5791929013699293,8.46990513691008,2.404064416885376,-0.2078641057014465,-0.612734854221344
4.5198876953125,-5.069325709539652,-2.1691994572021067,8.641156022062898,2.3709094524383545,-0.2542955279350281,-0.6235076189041138
4.52986865234375,-4.899865799456834,-1.587970617711544,8.646105168902874,2.303476572036743,-0.3401417434215545,-0.6430240273475647
4.539848388671875,-4.519468598259985,-1.1480706225145607,8.447389938241242,2.177922010421753,-0.399310827255249,-0.650786817073822
4.549828369140625,-4.218535978922247,-0.954850628268346,8.109199016872047,1.9770711660385127,-0.3918244242668152,-0.6234753131866455
4.55980859375,-3.7941242794319994,-0.9720780227273702,7.544219447523355,1.681943655014038,-0.3527906835079193,-0.5627080798149109
4.56978955078125,-3.3190608355909585,-1.149171496428549,6.466195078724622,1.318307638168335,-0.2813740372657776,-0.5101412534713745
4.579769287109375,-2.6584622529178854,-1.484199862113595,5.243041523501277,0.9181685447692872,-0.2261671721935272,-0.482002705335617
4.58974951171875,-2.056323457998037,-1.8121712950244544,3.852510709688067,0.5108221173286438,-0.1695422381162643,-0.4887168109416961
4.5997294921875,-1.499393924114108,-2.2163705198302863,2.360595158630609,0.1283971965312957,-0.0851017087697982,-0.4966016113758087
4.60970947265625,-1.1279355239152908,-2.773816186542809,0.8058551948696374,-0.1518475115299224,0.0445798598229885,-0.491868108510971
4.6196904296875,-1.0106854012802242,-3.074438717018068,-0.5951578499913215,-0.1628767102956771,0.1008395254611969,-0.4937683939933777
4.62967041015625,-0.9549886484995485,-2.302874206545949,-1.354932261687517,0.1272062510251999,-0.1237328648567199,-0.5413175225257874
4.639650390625,-0.6273524388924241,-0.5051487489705905,-2.3143600616782902,0.5112627148628235,-0.7343346476554871,-0.6014703512191772
4.649632568359375,-0.0129983055219054,1.496285436704755,-4.293628337046504,0.7279289364814758,-1.5094183683395386,-0.5742853283882141
4.6596123046875,1.2827815099731088,2.816607865042984,-6.8543474240928886,0.3845386505126953,-2.553500175476074,-0.4791098535060882
4.66959228515625,3.5721538453891872,3.832415431642532,-12.122628602790831,-0.9023934602737428,-3.3732852935791016,-0.3138748407363891
4.6795732421875,6.247476924476027,3.9235365490257736,-19.40913936341405,-2.902352094650269,-3.1843624114990234,-0.1373865604400634
4.6895537109375,8.4852178568542,2.247941423875093,-24.74691259601116,-4.671067714691162,-1.9709984064102173,-0.1036658883094787
4.699533447265625,9.464840303611757,0.9755117235030978,-26.512355749869347,-5.1942315101623535,-0.634401798248291,-0.2825175523757934
4.709513427734375,9.050999390235544,2.232862220425904,-25.88576231265068,-4.272138595581055,0.1237932369112968,-0.474269688129425
4.719493408203125,7.432580442768335,5.176978859528899,-24.308668478262422,-2.00750470161438,0.6057775020599365,-0.4180634915828705
4.729474365234375,4.930282565030455,7.202191724470257,-19.79674634985924,0.5570354461669922,0.5701617002487183,-0.1455270498991012
4.739454345703125,3.1289021286115046,7.091183418834209,-17.269837177956102,2.427154064178467,0.2649692893028259,0.0637864992022514
4.7494345703125,2.705776669539511,6.29825551007688,-15.4985745241642,3.328574180603028,0.0851334854960441,0.0977998599410057
4.75941455078125,2.635796539862454,5.887256542128324,-12.817957138061525,3.475017786026001,-0.0169588904827833,0.0444201119244098
4.76939453125,2.5107535713940856,5.787627708640694,-10.05004842199683,3.160759925842285,-0.0407691486179828,-0.0416114442050457
4.779375244140625,2.3120890480063854,5.3591515361905095,-7.290529933136701,2.569264411926269,-0.0142772682011127,-0.1557349413633346
4.789355224609375,2.159983300567418,4.276796736972034,-4.959743637314438,1.8079231977462769,0.0340561792254447,-0.2701765596866607
4.79933544921875,2.021827314156294,2.681241363219917,-3.243569833537936,0.9860629439353944,0.0648244693875312,-0.3638252019882202
4.809315673828125,1.7375098756633698,1.1557810507614166,-1.9054606963574885,0.2627286314964294,0.029316272586584,-0.3894208371639251
4.819296630859375,1.2656884824834764,-0.0100333182364702,-0.4404594557106495,-0.2095252424478531,-0.1686059385538101,-0.3065277934074402
4.8292763671875,0.6103769003026187,-0.8289316076178104,1.2681675859481096,-0.343484103679657,-0.5132402777671814,-0.0984483659267425
4.83925634765625,-0.0298369198590517,-1.2249531519912182,3.1136037294536827,-0.1819982230663299,-0.9314631223678588,0.1562708467245102
4.849236572265625,-0.4418630388982594,-1.163788416128233,4.818848142936825,0.1860900521278381,-1.3066298961639404,0.4097449481487274
4.85921630859375,-0.813907276161015,-0.9471222259733826,6.4992568058490745,0.6538840532302856,-1.5544894933700562,0.6350635886192322
4.869197265625,-1.1685936975181102,-0.6421355820044875,8.067797915947438,1.0638158321380615,-1.582072377204895,0.8589299321174622
4.879177490234375,-1.4785529422678052,-0.0554969193596392,9.08230053742826,1.3176363706588743,-1.4528547525405884,1.0307406187057495
4.889157470703125,-1.229956805497408,0.4255404112592339,9.653770053318144,1.4037872552871704,-1.3156031370162964,1.0881738662719729
4.899137451171875,-0.8879656881276518,0.1864752692263573,10.03570776195526,1.3651539087295532,-1.1124024391174316,1.0592777729034424
4.909118408203125,-0.8074511588241905,-0.4242619157560169,10.757702185833454,1.269599676132202,-0.868053674697876,0.9672807455062866
4.919098388671875,-0.8549597828436643,-0.709190033493191,11.386126345610618,1.1103448867797852,-0.7077779173851013,0.8107895851135254
4.929078369140625,-0.8054455180902034,-0.449507927628234,11.418787090718746,0.9373427033424376,-0.5407300591468811,0.6101906895637512
4.939058349609375,-0.8969245090004057,0.0093241470538079,11.672509338331222,0.802708089351654,-0.3926285207271576,0.3930831551551819
4.94903857421875,-0.9863743321705608,0.4000755690045655,11.923481994974612,0.7435286641120911,-0.2956013083457947,0.1722029745578766
4.95901953125,-0.9861545519400388,0.674197776697576,12.197632113587856,0.7473241686820984,-0.2111975103616714,-0.0156281702220439
4.96899951171875,-1.007241471371427,0.8734852542892098,12.364815895432232,0.7838233113288879,-0.1281976848840713,-0.1533173322677612
4.978979248046875,-1.004646705637872,1.0157596358045935,12.369853305077552,0.8236843347549438,-0.0101333241909742,-0.2238082736730575
4.98895947265625,-0.9797479728333652,1.060990816411376,12.330603829228878,0.8442559242248535,0.1277294754981994,-0.2403824627399444
4.9989404296875,-0.8363240559566766,1.0514467429965737,12.232439223074913,0.8277860879898071,0.2615475356578827,-0.2227321118116378
5.008920654296875,-0.7439889596737921,0.993812154021114,11.943068154454233,0.7872916460037231,0.3621162176132202,-0.1794962286949157
5.018900390625,-0.7383888015791773,0.8900491433382034,11.722724444830416,0.699536144733429,0.3571665287017822,-0.1197464615106582
5.028880126953125,-0.7600722255989909,0.756093969617784,11.2230482455194,0.521105945110321,0.2839341163635254,-0.0296557210385799
5.038860107421875,-0.825150773904845,0.5658714036218822,10.448312411534786,0.2506065368652344,0.1685347110033035,0.0905539020895958
5.04884130859375,-0.8708793095745145,0.3057655924521386,9.5434415466398,-0.0797226428985595,0.0089871166273951,0.2181779146194458
5.0588212890625,-0.8815197999238967,-0.0980545699082314,8.495265203616023,-0.3996158242225647,-0.13198022544384,0.3515114784240722
5.06880126953125,-0.939558439655602,-0.4805421675130724,7.498319281613826,-0.6593312621116638,-0.2953920364379883,0.4596821665763855
5.07878125,-0.8359765576932578,-0.7607140306338668,6.369232834097743,-0.8510192036628723,-0.4888637959957123,0.530362069606781
5.088762451171875,-0.6852746126376092,-1.1257030886881052,4.995751354762912,-0.9409557580947876,-0.6178750395774841,0.5804723501205444
5.0987421875,-0.5242159260774031,-1.4928721211299298,3.971712258651853,-0.9113460183143616,-0.6547654867172241,0.6056312322616577
5.10872216796875,-0.3415527259524911,-1.6023144926235078,2.982987637028098,-0.7427670955657959,-0.5764743685722351,0.5887840986251831
5.118702392578125,-0.1456129878861829,-1.3959735893890262,2.2191320934981107,-0.4443777799606323,-0.4233507215976715,0.5152197480201721
5.12868212890625,0.1218866233292967,-1.0405094616577029,1.4231483043015003,-0.1080668792128562,-0.2503488659858703,0.4207563102245331
5.138663330078125,0.2358069439545273,-0.5210106637626886,-0.1229763913273811,0.2028592973947525,-0.0896709114313125,0.3627776801586151
5.148643310546875,0.0490071189489215,0.4765107200399041,-1.9550246454715727,0.514747142791748,-0.0353482812643051,0.3975076973438263
5.158623291015625,-0.5911476279692724,1.9974789087109264,-3.471340478292108,0.8659371733665466,-0.2235142886638641,0.5409985780715942
5.16860302734375,-1.358001147738844,3.775440914011001,-4.522784298679232,1.1617546081542969,-0.7704774737358093,0.7212796807289124
5.178583984375,-1.7005094939157366,4.8694960878953335,-5.501921592268348,1.1088923215866089,-1.5690537691116333,0.901661217212677
5.188564453125,-1.4672447817899286,4.838505614086985,-7.336570968821644,0.2893486320972442,-2.412713050842285,1.036460518836975
5.19854443359375,-0.6514454082719981,4.110766509076953,-11.920325576770304,-1.3322068452835083,-2.9449462890625,1.039750099182129
5.208524169921875,0.3838402543228119,2.0156135542079805,-17.289748331606386,-3.249420642852783,-2.8807613849639893,0.7728544473648071
5.218504150390625,1.1702088045645505,0.2088298705060035,-20.55120511949062,-4.744161605834961,-2.288851261138916,0.2293726354837417
5.228485107421875,1.5778979903779924,0.390715912245959,-21.941787371230124,-5.150207996368408,-1.3847416639328003,-0.460076093673706
5.238465087890625,1.6235175857804716,1.7231984417162836,-21.0539781157732,-4.214054584503174,-0.4981019794940948,-1.1177295446395874
5.248445556640625,1.301686116929352,3.392337376464903,-18.641548725008963,-2.211236953735352,0.286819189786911,-1.5612808465957642
5.25842529296875,0.6568037204347551,4.517380978330969,-15.686049398887157,0.0372410416603088,0.868403434753418,-1.648762583732605
5.26840625,0.1170935438338667,4.105393291606009,-13.739420825839042,1.6963993310928345,1.1733179092407229,-1.4947168827056885
5.27838623046875,0.1268188190344721,3.432064114436507,-12.828789497721194,2.5417284965515137,1.2257587909698486,-1.2397220134735107
5.288365966796875,0.2142333369847387,3.5563027807846663,-11.498534581172466,2.7630136013031006,1.0347577333450315,-0.8720837831497192
5.29834619140625,0.1396153914391994,3.51761561499387,-9.568054009848831,2.556239128112793,0.747699499130249,-0.3989255130290985
5.308326416015625,-0.1095917168363928,2.870068821595609,-7.206789573654532,2.0509727001190186,0.4178899228572845,0.0800892934203147
5.318307373046875,-0.1988738918220624,1.9844462625280024,-5.135893400424719,1.3371353149414062,0.0817297250032424,0.4670235216617584
5.328287353515625,-0.1210301891630515,1.1805511887501925,-3.524251399746537,0.4871717393398285,-0.2369691580533981,0.7428662776947021
5.33826708984375,-0.0706372784115374,0.5427328854229301,-2.3963100306123493,-0.4219416379928589,-0.4852586686611175,0.9170740842819214
5.348247314453125,-0.1267035220917314,-0.0991070015706121,-1.4861919127136467,-1.237542748451233,-0.6408402323722839,0.9849205017089844
5.358228271484375,-0.1769001430861651,-0.7734648642007261,-0.2686491831094026,-1.8504531383514404,-0.7183237075805664,0.9382787942886353
5.3682080078125,-0.2279422749940305,-1.341675451359898,1.0759650981813669,-2.22405743598938,-0.7280915975570679,0.783035933971405
5.378188232421875,-0.1155944643825292,-1.8308831558875736,2.2897505210787057,-2.412172317504883,-0.6306553483009338,0.5382423400878906
5.388168212890625,0.1124729713611304,-2.360644112338871,3.1869512897372245,-2.4941723346710205,-0.4029244482517242,0.2338291853666305
5.3981484375,0.3809596573852002,-2.938850681398809,3.5830934648156165,-2.4608404636383057,-0.0915291383862495,-0.1371468901634216
5.40812939453125,0.6334682183589786,-3.4877491767793893,3.924882702937722,-2.274886131286621,0.2790830433368683,-0.5642667412757874
5.418109130859375,0.8240713811703025,-3.93350206272304,4.39807596899271,-1.899060606956482,0.6843468546867371,-1.0071171522140503
5.428089111328125,0.9440260865889488,-4.094560055163503,5.152981313347816,-1.3731070756912231,1.10732901096344,-1.4214842319488523
5.4380693359375,1.0103445519533008,-4.015113301222026,5.950734450304508,-0.7611528038978577,1.472485899925232,-1.761568903923035
5.448050537109375,1.0552080682914704,-4.000927247220278,6.688896749651431,-0.1583233624696731,1.757228970527649,-1.988025188446045
5.4580302734375,1.021023109290749,-4.134545151810348,7.318764093974233,0.3396343886852264,1.9337328672409055,-2.0859766006469727
5.46801025390625,0.9447467290136964,-4.170793400016427,7.7410232916057105,0.6906842589378357,2.0090785026550293,-2.069197416305542
5.477990234375,0.877250817367807,-4.066672223545611,8.072979117977619,0.8946277499198914,1.9742779731750488,-1.9487011432647705
5.487969970703125,0.7381369457099586,-3.952310808089375,8.389984627977013,0.9517725110054016,1.7985680103302002,-1.7443068027496338
5.497951171875,0.5342086565751583,-3.929708807919919,8.420835108792781,0.8728357553482056,1.5069496631622314,-1.4649641513824463
5.507931396484375,0.2579186033237725,-3.995528895308077,8.282350182688235,0.7261320352554321,1.1982378959655762,-1.127554178237915
5.517911376953125,-0.0454414623565971,-3.99907723543942,8.405466274747251,0.5735681653022766,0.913734495639801,-0.7814051508903503
5.52789111328125,-0.2319786909032613,-3.761843765813112,8.668478913274408,0.453910231590271,0.6731983423233032,-0.4713905453681946
5.5378720703125,-0.2721722426690161,-3.3588954178512096,8.971304506751894,0.3765909075736999,0.5155737400054932,-0.2332346588373184
5.547852294921875,-0.1986178347017616,-2.923441807603836,9.2764868924886,0.3357143104076385,0.4720014333724975,-0.0644352585077285
5.557832275390625,-0.1051264810558408,-2.5148461014047263,9.49147988873422,0.3157471418380737,0.4849803149700165,0.0466913692653179
5.567812255859375,-0.124583753458783,-2.2682499062798915,9.465627654597162,0.2887355089187622,0.5209529995918274,0.1126719787716865
5.577792236328125,-0.1682219657856971,-2.1792060335621235,9.25158450642228,0.2690528333187103,0.57789146900177,0.1457445919513702
5.587773193359375,-0.2454661681815981,-2.194683004157245,9.055288027340174,0.2905610799789428,0.6539132595062256,0.1358709186315536
5.59775341796875,-0.3828155874501913,-2.1160453746415677,8.956200461122393,0.369101881980896,0.7457125782966614,0.0899498909711837
5.607733154296875,-0.5350464225735515,-1.9534892525978385,8.911754585674405,0.4860351681709289,0.8295965790748596,0.0482053682208061
5.617713134765625,-0.6922263314716518,-1.802146890746802,8.61382903919816,0.5851802229881287,0.840918242931366,0.0241426471620798
5.627694091796875,-0.8532065094355493,-1.7207986870981753,7.789996873611211,0.6196900010108948,0.8015604019165039,0.0318442434072494
5.63767431640625,-1.0380132609277963,-1.7726576152816411,6.592552344661951,0.5762732028961182,0.7305514216423035,0.0690792575478553
5.647654296875,-1.1220761303626,-1.9851186088316144,5.0259536008030175,0.496487021446228,0.6737818717956543,0.1003959029912948
5.65763427734375,-1.1671857304163276,-2.229851640433073,3.5491742440789937,0.4550817906856537,0.5990672707557678,0.0846101343631744
5.6676142578125,-1.1617233733572063,-2.310454432541877,2.128311420366168,0.5107093453407288,0.4025057554244995,0.0765285044908523
5.67759521484375,-1.334408236835897,-2.4323040117964148,0.4579588720440864,0.68077552318573,0.1015537083148956,0.1918886452913284
5.687574951171875,-1.642730966424942,-2.4644533002510665,-1.399348911041021,0.8935826420783997,-0.3307990431785583,0.4727623760700226
5.69755517578125,-1.839829555670172,-1.9087977318257088,-3.707688981777429,1.0310962200164795,-0.841414213180542,0.8680749535560608
5.707535400390625,-1.4308448501534758,-0.3234836930375546,-6.275432268372177,0.95444518327713,-1.374053120613098,1.2792619466781616
5.717516357421875,-0.6195512636221945,1.4145017642483115,-9.177622029110788,0.5124372243881226,-1.8278393745422363,1.6176934242248535
5.72749609375,0.2867025069985539,2.0093718833394347,-12.193947287595272,-0.4964145421981811,-2.2265303134918213,1.816579341888428
5.73747607421875,1.1323946952812374,0.6888773863699287,-16.615371398949623,-2.025795221328736,-2.34656834602356,1.7911245822906494
5.747456298828125,1.8879130569681524,-1.367740889856219,-21.392783369648456,-3.5167415142059326,-2.014254570007324,1.4642375707626345
5.7574365234375,2.458079673565924,-1.672584983549267,-24.45373512084484,-4.372575759887695,-1.29495370388031,0.9165712594985962
5.767417236328125,2.458538815510273,0.0083590648813173,-25.832220107555383,-4.120418071746826,-0.5587244033813477,0.336588591337204
5.777397216796875,1.8778103267572817,2.7750027659788725,-25.625093606901167,-2.6546552181243896,0.0329264961183071,-0.0531633011996746
5.787377197265625,0.8389881605993956,5.291738626652956,-23.677459656202792,-0.524738609790802,0.4462621510028839,-0.0951996967196464
5.797357177734375,-0.2802175654260441,5.661237124955654,-20.861029778075217,1.36479651927948,0.6114233136177063,0.0426200740039348
5.807338134765625,-0.6560035830330103,4.871735098993778,-18.69014236778617,2.4201340675354004,0.6500630974769592,0.1325947046279907
5.817318115234375,-0.4776262800663709,4.46836881788075,-16.501211935806275,2.715810060501098,0.6280336976051331,0.1599379181861877
5.82729833984375,-0.2255720752639695,4.146621958573163,-13.584616048574446,2.555533170700073,0.5940965414047241,0.1258158981800079
5.8372783203125,-0.0145773183416575,3.586374386182427,-10.112158548951149,2.139711380004883,0.5913712978363037,0.0242587458342313
5.847258056640625,0.0885865208717063,2.7555367257475853,-6.763925979411602,1.6019774675369265,0.6232706308364868,-0.1031239777803421
5.8572392578125,0.1569628320813179,2.0136122973881663,-3.822463946470618,1.023945450782776,0.691216230392456,-0.2230761498212814
5.86721923828125,0.1724107227124273,1.6027856172665953,-1.3662258091181516,0.3913871943950653,0.6453235745429993,-0.3284885883331299
5.87719921875,0.1547331733331084,1.3789094957329333,-0.2334364154309034,-0.2876750230789184,0.459167331457138,-0.4076628088951111
5.88717919921875,-0.0786174635104835,0.949709539052844,0.2308960832983255,-0.8243891000747681,0.2481216788291931,-0.4755153357982635
5.897160400390625,-0.2389227378875017,0.3310870076481252,1.5503747542887925,-1.0853261947631836,0.0578128993511199,-0.5233061909675598
5.907140380859375,-0.2951302166692912,-0.0934237317698076,3.3028765935093163,-1.062229871749878,-0.056496899574995,-0.5782586336135864
5.917120361328125,-0.3538267357878387,-0.1128788304819725,4.915254507246614,-0.8409515023231506,-0.0392639711499214,-0.6753985285758972
5.92710009765625,-0.3209006908070296,0.0984669683677144,6.25879268373847,-0.5164355039596558,0.1132754981517791,-0.8013343214988708
5.9370810546875,-0.1879995561841875,0.1605116836693138,7.365137722614407,-0.1633155941963195,0.314859926700592,-0.926275908946991
5.947061279296875,-0.0842911252327263,0.0750248093133792,8.246510223022103,0.1659065037965774,0.5092629790306091,-1.041920185089111
5.95704150390625,-0.065633697970584,-0.0270230862810276,9.027771659383175,0.4418210089206695,0.6724081039428711,-1.1398128271102903
5.967021240234375,-0.1012197559408843,-0.1794911459600552,9.763163909494876,0.6553407311439514,0.7864521145820618,-1.2205222845077517
5.977001220703125,-0.1460594530120492,-0.4257903674323111,10.414569131886958,0.7933504581451416,0.8255970478057861,-1.2835285663604736
5.986982177734375,-0.1891663349412381,-0.6039988166380673,10.857545538854598,0.8461827635765076,0.8111632466316223,-1.3107078075408936
5.996962158203125,-0.2486906831860542,-0.7291440033718943,11.146885043293237,0.8155401349067688,0.7538793087005615,-1.2933907508850098
6.006942138671875,-0.3357118179045617,-0.901623480471596,11.327456714498997,0.7280385494232178,0.6640080213546753,-1.23524010181427
6.01692236328125,-0.4260584437839687,-1.128593403302133,11.485132663285732,0.6027566194534302,0.5527324080467224,-1.137649655342102
6.0269033203125,-0.4898199912071228,-1.2981721174590288,11.608759042954444,0.4632905423641205,0.4061320424079895,-1.0093103647232056
6.03688330078125,-0.512888878235966,-1.3497355698272584,11.603513543516398,0.3207258582115173,0.2363238334655761,-0.8609757423400879
6.046863037109375,-0.5482892774410546,-1.3634043219566343,11.55900687779188,0.1816393285989761,0.0893791243433952,-0.6919715404510498
6.056843017578125,-0.623152649115026,-1.378049517902732,11.494947954857349,0.0465996339917182,0.0221483074128627,-0.4900078773498535
6.0668232421875,-0.7038654774695634,-1.371531222049892,11.408480800759792,-0.0660550147294998,0.0060111517086625,-0.2661646604537964
6.07680419921875,-0.6852315041482449,-1.3495736572638153,11.225735877168178,-0.140241339802742,-0.0026262169703841,-0.0554823614656925
6.0867841796875,-0.660497460386157,-1.376716369602829,11.0487473251462,-0.1690170615911483,0.0180803947150707,0.1393387913703918
6.09676416015625,-0.7154086157470941,-1.454423586400598,10.90359066619277,-0.1672267913818359,0.1090320646762847,0.3383446931838989
6.106744140625,-0.843650380256772,-1.4438969316892325,10.781624328690766,-0.1122383773326873,0.187428593635559,0.5189189910888672
6.11672509765625,-0.8750956120952963,-1.3559604356914758,10.625784947681426,-0.0117551274597644,0.2044715285301208,0.6776496767997742
6.126705078125,-1.0200076486378908,-1.2195384334661066,10.432366654384136,0.1013130992650985,0.1751964688301086,0.8196273446083069
6.136685302734375,-1.2234421629063783,-1.0799439386844634,10.151177723175287,0.2178353071212768,0.1072752475738525,0.9421812295913696
6.146665283203125,-1.3317512925863266,-1.0117359332464635,9.94997476735115,0.3123913705348968,0.0601729862391948,1.0318336486816406
6.156646240234375,-1.3078253503367303,-1.0111139288906008,9.806436649510264,0.3569670915603637,0.0678338333964347,1.0721831321716309
6.1666259765625,-1.171423367986083,-1.089170908974111,9.505573880538345,0.3097124993801117,0.1556574404239654,1.059967279434204
6.17660595703125,-0.9985266153223812,-1.258932286221534,8.84283360966146,0.1471951007843017,0.2851908206939697,0.9999141097068788
6.186586181640625,-0.728566495744884,-1.7371233605638146,7.503152693119644,-0.1010807529091835,0.3121577203273773,0.8677973747253418
6.196566162109375,-0.4825691432960331,-2.7037749743282795,5.551579649406671,-0.3189055323600769,0.1801788955926895,0.6567237377166748
6.206547119140625,-0.2475662092007696,-3.815501706242561,3.4705589725255965,-0.3811444044113159,-0.0343555137515068,0.3819209337234497
6.216527099609375,0.1065844978444278,-4.350042298185825,1.4764350733309983,-0.2096140384674072,-0.1641214340925216,0.1064153015613555
6.226507080078125,0.798406194037944,-3.3967809118703007,-0.3710053957343101,0.1446838676929474,-0.2817606925964355,-0.0449206940829753
6.236487060546875,2.022776577705145,-0.9337607131622732,-2.7992613011837,0.2377566546201706,-0.4992602169513702,0.1822369992733001
6.246468017578125,3.017708821797371,0.9621045449193566,-7.360070502352714,-0.5185368657112122,-0.4243548214435577,0.9408525228500366
6.256447998046875,2.896867104411125,-0.1477336333019658,-13.671991549688578,-1.9419198036193848,-0.5394310355186462,1.845880627632141
6.26642822265625,2.157984966357052,-1.8633764354743063,-20.251862107431887,-3.4522271156311035,-1.2545509338378906,2.5153048038482666
6.276407958984375,1.790833469571918,-1.831045360711962,-25.60598675537109,-4.535102844238281,-2.1926193237304688,2.948262453079224
6.28638916015625,1.4380384149193763,-0.1262048883872106,-29.25923921356201,-4.792909622192383,-2.738560676574707,3.154888391494751
6.296369140625,0.71517846025303,2.749234995254874,-30.573962214457985,-3.9906857013702393,-2.952705383300781,3.050556182861328
6.30634912109375,0.1617376087350771,6.042199266558885,-29.953616147196293,-2.2241671085357666,-2.81251072883606,2.6301043033599854
6.316328857421875,-0.2472294149944558,8.531961487850547,-27.282215502250192,-0.1807132959365844,-2.229048490524292,2.0384647846221924
6.32630908203125,-0.6286710472103207,8.86200534312129,-23.784410795402525,1.2855722904205322,-1.2923798561096191,1.3702335357666016
6.336290283203125,-0.559889516200684,7.556927537927031,-20.58469120950699,1.901875615119934,-0.2523066401481628,0.6600033044815063
6.346270263671875,-0.2751559711875393,6.452493885630369,-17.242010428875684,1.91026508808136,0.6428837776184082,-0.0448712520301342
6.35625,0.0266240861592348,5.827050202968716,-13.75376499301195,1.5816590785980225,1.2665081024169922,-0.6739105582237244
6.36622998046875,0.1848204512240365,4.924913146951794,-10.541547160071136,1.1390584707260132,1.605591893196106,-1.1543292999267578
6.376211181640625,0.2369674391012638,3.7020676347643136,-7.573831326454877,0.7227177023887634,1.739435791969299,-1.4179182052612305
6.386191162109375,0.1918454544899985,2.717682503649592,-4.7011002999126905,0.4064596593379974,1.726369023323059,-1.4667764902114868
6.396171142578125,0.0581182077739387,1.8958143316119909,-1.978153007602692,0.1697457432746887,1.5648669004440308,-1.3610512018203735
6.406151123046875,-0.087031729177758,1.1249441600795835,0.2899479917258024,-0.0532620474696159,1.292384147644043,-1.16975200176239
6.416132080078125,-0.1801174976974725,0.3932893794631585,2.0343980419158934,-0.3010248839855194,0.9844863414764404,-0.9337083697319032
6.4261123046875,-0.2225939727686345,-0.2493509737256914,3.4248739106714723,-0.5709138512611389,0.6770339608192444,-0.6974719166755676
6.436092041015625,-0.2870693675495684,-0.7113191544763744,4.616588371536135,-0.843898355960846,0.4045396745204925,-0.4719544351100921
6.446072021484375,-0.4444402689751237,-1.0750660304497928,5.575332280915975,-1.1183966398239136,0.2243145257234573,-0.245914876461029
6.45605224609375,-0.8108647666599601,-1.380378545372188,6.226967804932594,-1.353568196296692,0.1338113397359848,-0.0223065949976444
6.466033203125,-1.0605417574696243,-1.6060323441028594,6.780389622956514,-1.471107840538025,0.0327230617403984,0.1589566767215728
6.476012939453125,-1.1599603822726756,-1.9561112716645,7.3727043584764,-1.4343372583389282,-0.0469775088131427,0.2776674926280975
6.4859931640625,-1.27657286459133,-2.453335693909228,8.19560304260552,-1.2505935430526731,-0.1049902141094207,0.3222208321094513
6.49597314453125,-1.3413985341146588,-2.881076830083132,9.013450873085857,-0.9390879273414612,-0.153104230761528,0.3111527562141418
6.5059541015625,-1.3408978911161422,-3.2243063301414248,9.74763959262669,-0.55506432056427,-0.1719828397035598,0.2591025829315185
6.515933837890625,-1.3256123514398932,-3.49591670114398,10.36626424292326,-0.1683957427740097,-0.1498036831617355,0.200163796544075
6.5259140625,-1.3166435936950147,-3.65856342408061,10.79297691283226,0.1647313386201858,-0.0805670917034149,0.142684519290924
6.535894287109375,-1.329004916487634,-3.657221946343779,10.999437058532235,0.4125904142856598,0.0038098441436886,0.075785644352436
6.545875244140625,-1.3367808111861348,-3.512842409242689,11.067473068404198,0.5828955173492432,0.0677075982093811,-0.0091564087197184
6.555855224609375,-1.3406322259172796,-3.343743149165809,11.074396145665643,0.6820007562637329,0.1231042072176933,-0.1028756722807884
6.5658349609375,-1.313974082224816,-3.196776225920021,11.056610313606262,0.7131799459457397,0.1630606800317764,-0.1955377012491226
6.57581494140625,-1.348984751459956,-3.040910541425645,10.937014796888828,0.6871967911720276,0.1819343864917755,-0.2737668752670288
6.58579541015625,-1.4053284238420427,-2.866256862092018,10.720507888948918,0.6324339509010315,0.177168384194374,-0.3322959542274475
6.5957763671875,-1.464568402187526,-2.743352951478958,10.534641618466376,0.5697022676467896,0.1425675749778747,-0.3842867314815521
6.605756103515625,-1.4685925431370734,-2.6129230292752386,10.407559545385835,0.5114136338233948,0.0853663384914398,-0.4185563027858734
6.615736083984375,-1.42088298971802,-2.557837101869285,10.222727878648042,0.4582661092281341,0.0657871887087822,-0.4201727211475372
6.625716064453125,-1.3617901647582649,-2.5471160936295987,10.105380433118343,0.4337349236011505,0.0677017346024513,-0.4037609994411468
6.635697265625,-1.2291574718132614,-2.427639527116716,9.96702176374197,0.4347861409187317,0.0848559737205505,-0.3854309916496277
6.645677001953125,-1.080612704791501,-2.2591487543269992,9.763843123930693,0.466699868440628,0.1110303178429603,-0.3653560578823089
6.6556572265625,-0.880582080682367,-2.128837197805941,9.58163654499948,0.5152943134307861,0.1247758641839027,-0.3394224345684051
6.66563720703125,-0.7111636716537177,-2.083961406508088,9.290306159004569,0.5684547424316406,0.1388901025056839,-0.3063150644302368
6.675618408203125,-0.5767796049967407,-2.035871913860738,8.853307072880863,0.5955546498298645,0.1307013183832168,-0.2590968608856201
6.68559814453125,-0.4063933007840067,-1.888403032442182,8.137644774633646,0.5650630593299866,0.0593062415719032,-0.2108494490385055
6.695578125,-0.2317098838992416,-1.7555594732254742,7.117624266514182,0.4593968689441681,-0.0513436049222946,-0.1322395652532577
6.70555810546875,-0.0554744152668863,-1.6587177862383424,5.867517822435498,0.2584011554718017,-0.1874164789915084,-0.0290527287870645
6.7155390625,0.2707972279887646,-1.5867206176504491,4.179081920412183,0.0154407974332571,-0.3176388740539551,0.0711284354329109
6.72551904296875,0.7300513274751603,-1.7145219449162483,2.53318167630136,-0.1358576416969299,-0.4523226320743561,0.1454114466905594
6.735499267578125,1.1495672908131032,-1.5470881338335574,1.3352093240857124,-0.1834327578544616,-0.5986325740814209,0.2011549919843673
6.745479248046875,1.436665957522392,-0.4116075648335739,-0.1866290715485811,-0.1652066111564636,-0.6582514047622681,0.3227117955684662
6.755458984375,1.3675254935398695,1.8528139787971971,-2.0068933643966917,-0.0310361348092556,-0.6758296489715576,0.5579160451889038
6.76543994140625,1.0239251143425705,4.6275294522672885,-3.414350763091445,0.166762962937355,-0.7839721441268921,0.9384822845458984
6.775419921875,0.5594919317178428,6.775168088915944,-4.880120650023222,0.2564506530761719,-1.2164422273635864,1.323758840560913
6.785400390625,0.7441169699676334,7.385405434617399,-7.07200934728682,-0.1144573464989662,-1.94474458694458,1.5548136234283447
6.795380126953125,1.4622427357189356,7.21830056322813,-11.108792920786142,-1.2515887022018433,-2.656393527984619,1.6133531332015991
6.805361083984375,2.586488903596997,6.93183632196486,-16.80627624812126,-2.9374806880950928,-2.8098299503326416,1.5916811227798462
6.815341064453125,3.4778567283183333,5.764112977540493,-21.488044071054457,-4.43406867980957,-2.2431750297546387,1.4750221967697144
6.825321044921875,3.81845967926532,5.005422269427776,-23.174001600265505,-5.032547473907471,-1.423834204673767,1.217996597290039
6.835301025390625,3.6610710229873655,5.962240763702988,-22.92954051747322,-4.413326740264893,-0.8729514479637146,0.9334502220153807
6.845281982421875,2.710676132018864,7.514453839334845,-21.41278337062597,-2.849246025085449,-0.5516170859336853,0.8054605722427368
6.85526220703125,1.307771866583824,8.465940324932337,-19.22825672656297,-1.0451700687408447,-0.4100997447967529,0.8488259315490723
6.8652421875,0.3280644084239378,7.896955611595511,-17.63157907078266,0.286376416683197,-0.3104674220085144,0.8785502910614014
6.875221923828125,0.0195631073975935,6.311501360619068,-16.432282776486872,0.9521594047546388,-0.1663852334022522,0.8095663189888
6.8852021484375,-0.1275038056239485,5.031510065886378,-14.648013341605662,1.1783076524734497,-0.0580720826983451,0.6710669994354248
6.89518310546875,-0.2032668295513838,4.3179120066925885,-12.197779413104056,1.1881206035614014,0.0224588513374328,0.5437408685684204
6.9051630859375,-0.3825574845032766,3.546811606600881,-9.331340180182456,1.083548069000244,0.1070091500878334,0.446262001991272
6.91514306640625,-0.4854023574279621,2.595107094338536,-6.703358405724168,0.8937394618988037,0.192362979054451,0.3519429266452789
6.925123046875,-0.4624880033737048,1.704898961046338,-4.557870809629559,0.63797926902771,0.2844862341880798,0.243745356798172
6.935104248046875,-0.3684272888746112,0.8548037885643541,-2.716597046500444,0.3429884612560272,0.4018444716930389,0.133391186594963
6.945084228515625,-0.2601953343504108,0.0311737214207649,-1.043448729979992,0.0431655310094356,0.583958625793457,0.019814034923911
6.95506396484375,-0.175777897590585,-0.6971773780077696,0.5485340459823608,-0.256060928106308,0.8002951145172119,-0.0882468149065971
6.9650439453125,-0.1149432521984912,-1.4063343860141932,1.924229109713435,-0.5149481296539307,0.9837427139282228,-0.1907566785812378
6.975025146484375,-0.1564363057228736,-2.211702381888777,3.1809605248898265,-0.7207221388816833,1.0902291536331177,-0.2661094665527344
6.98500537109375,-0.4455409236934036,-3.0244027664780613,4.0539954050630325,-0.8573417663574219,1.0709155797958374,-0.3244446814060211
6.994985107421875,-0.9944752941049636,-3.789547180774808,4.544212871155143,-0.8433964252471924,1.0010524988174438,-0.3994137644767761
7.004965087890625,-1.4488535311833024,-4.315881669908761,5.467045509198307,-0.6296742558479309,0.8926801681518555,-0.5037798285484314
7.014946044921875,-1.70940854742527,-4.451390210551023,6.604030601009726,-0.2655748724937439,0.751211404800415,-0.6344728469848633
7.024926025390625,-1.851897886865586,-4.488402136605978,7.524528658625483,0.1579132974147796,0.6062126755714417,-0.7531126737594604
7.034906982421875,-1.903191728512197,-4.577305285678803,8.169606431561707,0.5747328400611877,0.4687235653400421,-0.8492347002029419
7.04488671875,-1.88310653346926,-4.697554005607962,8.644724528199434,0.9484869837760924,0.3362651467323303,-0.9147340655326844
7.054866943359375,-1.7905543603695928,-4.671731582087278,9.054701167362929,1.263868808746338,0.2486418187618255,-0.9474233388900756
7.064847900390625,-1.816456132736802,-4.454962223818898,9.455053069090845,1.5090000629425049,0.2311440408229828,-0.9361685514450072
7.074828125,-1.8396061221778397,-4.081503005191683,9.776792621874808,1.7056421041488647,0.244786188006401,-0.8903857469558716
7.084807861328125,-1.7161116983257234,-3.6384471032470462,10.107573559248449,1.8392096757888796,0.2397978156805038,-0.8335784077644348
7.094787841796875,-1.6352674986764788,-3.2453111242473125,10.3398508677721,1.921715497970581,0.2337114065885543,-0.7726713418960571
7.104768798828125,-1.6405474849060178,-2.932374471122026,10.598331123566629,1.942787528038025,0.2283816337585449,-0.7043120265007019
7.114748779296875,-1.71338095818758,-2.5379995979771017,10.810416707932948,1.909207105636597,0.2009541392326355,-0.6413523554801941
7.12472900390625,-1.7122491776786744,-2.107860899142176,10.862794545423984,1.7799206972122192,0.1361517012119293,-0.6047163009643555
7.134708984375,-1.6805583005160092,-1.8454973721735175,10.620528926849364,1.5712480545043943,0.0985624864697456,-0.5890612006187439
7.14468994140625,-1.6835488606341182,-1.7518363610491157,10.534143605816364,1.2963802814483645,0.0666567534208297,-0.5968546271324158
7.154669921875,-1.6258008744120598,-1.76342377685979,10.30561191356182,0.9836412668228148,0.0539088621735572,-0.6301305890083313
7.164649658203125,-1.5812950854703782,-1.7754510453924537,10.054337643623352,0.674242377281189,0.0847637131810188,-0.6917465329170227
7.1746298828125,-1.5311799322143196,-1.7021650060378013,9.833059868019818,0.4100711643695831,0.1352181881666183,-0.7706859707832336
7.18461083984375,-1.400076933054626,-1.5506044713914393,9.628778235402702,0.2205345183610916,0.1857732385396957,-0.8516628742218018
7.194591064453125,-1.2738891784653066,-1.4222848193399606,9.299582521393894,0.0951647907495498,0.1924828886985778,-0.9131779670715332
7.20457080078125,-1.1369333616241812,-1.3827907210804522,8.663411108490823,0.0117700342088937,0.1640395224094391,-0.9392133355140686
7.21455078125,-0.9758571028746664,-1.342325001309812,7.846287500631809,-0.0729537531733512,0.0282443054020404,-0.9487625360488892
7.224531982421875,-0.7127307748399675,-1.3430872178539632,6.48973552878797,-0.2312552481889724,-0.1444872617721557,-0.9531500935554504
7.234511962890625,-0.5900971325356513,-1.6703119240507482,4.391878867918253,-0.4457707107067108,-0.2378319501876831,-0.9486822485923768
7.24449169921875,-0.5820599565524608,-2.413000030259042,2.2008108393877746,-0.5965112447738647,-0.1621502339839935,-0.9314417243003844
7.254471923828125,-0.6628751493029296,-3.188246297983825,0.3222977711886167,-0.4719606637954712,0.0332381576299667,-0.969528079032898
7.264451904296875,-0.2770591379277408,-3.146893420115113,-0.8117161958575249,0.0242637321352958,0.1275145858526229,-1.1190019845962524
7.27443310546875,0.2390897650174796,-2.055079887677729,-1.9205209028452637,0.720485270023346,0.1895060986280441,-1.2387076616287231
7.284412841796875,0.6800495714657008,-0.6481671172536909,-3.681334058815241,1.3759890794754028,0.3256306648254394,-1.1865144968032837
7.294392822265625,1.130378533153236,0.7225858139000833,-5.97618745599091,1.7650882005691528,0.5461600422859192,-0.8833560347557068
7.304372802734375,1.108087790890038,1.98430553888306,-8.440895900046826,1.7447986602783203,0.6205687522888184,-0.3741428256034851
7.314353759765625,0.6278815042678266,3.075109748147428,-11.208265686929224,1.2394407987594604,0.2141097486019134,0.1802050322294235
7.324333984375,0.0226090144321322,3.626351007261872,-14.655904387116433,0.2861418724060058,-0.6337858438491821,0.6765207648277283
7.33431396484375,-0.6049937824921682,3.729145026782154,-18.44551177364588,-0.9179481267929076,-1.6598031520843506,1.0247406959533691
7.3442939453125,-0.890143616688624,3.911015505626797,-21.67055752397776,-2.0024538040161133,-2.426637887954712,1.100690841674805
7.35427490234375,-0.3693640582680702,3.8978579178899526,-22.89993331471681,-2.632938861846924,-2.564279556274414,0.8573434352874756
7.364254638671875,0.3338073725227266,4.282392072761058,-22.45352225712537,-2.5920772552490234,-2.0631303787231445,0.3135901391506195
7.37423486328125,0.8582920690715312,5.463522595769167,-20.86367649319172,-1.8441667556762693,-1.1144391298294067,-0.4119108915328979
7.384215087890625,1.1722281084977089,6.705173930713534,-18.417274690198894,-0.6270409226417542,0.0079766977578401,-1.1216435432434082
7.39419482421875,1.325364514158666,6.690131844404339,-15.609830082559585,0.5261440873146057,1.0167264938354492,-1.6218483448028564
7.40417578125,1.3316338036864994,5.384975713276863,-13.68353118083477,1.1746350526809692,1.7090479135513306,-1.9116066694259644
7.41415576171875,1.1707701647743582,4.427231336328387,-12.654987759041786,1.310128688812256,1.9505645036697388,-2.015820264816284
7.424135986328125,0.8654734319429844,3.446766009005904,-11.419930415534973,1.0819547176361084,1.7849286794662476,-1.9438977241516116
7.43411572265625,0.5957574598522857,2.152571709136665,-9.805824655091762,0.6615663170814514,1.3927353620529177,-1.7218786478042605
7.4440966796875,0.4139219427231699,0.9723422266215084,-7.873227530005574,0.1883726418018341,0.9362171292304992,-1.4053747653961182
7.454076904296875,0.3615504253750666,0.1075188926177099,-5.777528339430689,-0.2175611853599548,0.5013710856437683,-1.0480928421020508
7.464056884765625,0.4572423212725668,-0.56806580839362,-3.653338967430592,-0.4876214265823364,0.1286427974700927,-0.6762204170227051
7.47403662109375,0.5607279397862032,-1.229172230990976,-1.518046017614007,-0.6296237707138062,-0.1680656969547271,-0.3248079419136047
7.484017822265625,0.5515971964126453,-1.7319858515448867,0.263161691609025,-0.683645486831665,-0.380795806646347,-0.035763893276453
7.493997802734375,0.5283124381434172,-1.972307204183936,1.7099053910315036,-0.7005305290222168,-0.5072627663612366,0.1780627071857452
7.503977783203125,0.5084856017757207,-2.13394942625314,2.9482395642518995,-0.7029651999473572,-0.5548771619796753,0.3090872764587402
7.5139580078125,0.5293802865706384,-2.257962028760463,4.028763933172821,-0.6871095299720764,-0.5140506029129028,0.3783923685550689
7.52393896484375,0.5103037571135908,-2.2670725330635904,5.07822622435391,-0.6029719710350037,-0.387720376253128,0.3955226242542267
7.5339189453125,0.6229441209308803,-2.333752452151477,6.2652037198245525,-0.4351925849914551,-0.2498528957366943,0.364793062210083
7.54389892578125,0.7615919094469398,-2.5946543821349737,7.377469965443015,-0.2085440009832382,-0.1125309988856315,0.2911523878574371
7.553878662109375,0.8592190477233379,-2.897808476914465,8.340769638431071,0.0571546182036399,0.0304569862782955,0.1898234337568283
7.563859619140625,0.8869502274747937,-3.109894353541732,9.13089885638058,0.3369654715061188,0.1646374315023422,0.0713021010160446
7.57383984375,0.8514869191013276,-3.158468999357521,9.74877765674591,0.6121342778205872,0.2729948759078979,-0.0606411211192607
7.583820068359375,0.8312260752305388,-3.0579093147605656,10.189032529795169,0.843920111656189,0.3629463315010071,-0.186603307723999
7.593800048828125,0.8662898628924042,-2.903195138388872,10.429563287401198,1.0193049907684326,0.4510741233825683,-0.2765585482120514
7.60377978515625,0.8451073741320521,-2.699812208177149,10.572724388623238,1.129630208015442,0.5438762307167053,-0.3204961717128753
7.6137607421875,0.7655385281808674,-2.431859336768836,10.644624088186024,1.1791870594024658,0.6126916408538818,-0.3172909021377563
7.623740966796875,0.6919356779620051,-2.1916578111171723,10.653895774400231,1.170459866523743,0.6673258543014526,-0.2789437770843506
7.633720947265625,0.5786757940068841,-1.9748799772813916,10.65828553379178,1.1145329475402832,0.6812390685081482,-0.2204264998435974
7.643700927734375,0.5571319976534694,-1.7066355755805969,10.5746194085896,1.000744342803955,0.6790669560432434,-0.1629474908113479
7.653681884765625,0.4815964988715946,-1.3739466126285491,10.451336727792023,0.8299996256828308,0.6960731148719788,-0.0750266164541244
7.663661865234375,0.2691423734538257,-1.213508213391155,10.400236655151843,0.6565617918968201,0.6997565031051636,0.0447104386985302
7.67364208984375,0.1175313507292419,-1.192179521093145,10.36846204522848,0.4777624011039734,0.6703055500984192,0.1730208098888397
7.683621826171875,-0.0201888015478849,-1.1318990207187831,10.260956779277324,0.3040316104888916,0.6226493120193481,0.3021122217178345
7.693602783203125,-0.1912593616977334,-1.0301398241389543,10.049764344358444,0.1263095289468765,0.5752812027931213,0.4408251941204071
7.703582763671875,-0.2579823162097484,-0.8745973071843385,9.669482586234809,-0.0719337910413742,0.5157073736190796,0.5774019360542297
7.71356298828125,-0.1154194731418043,-0.6587221212767064,9.164778914150595,-0.3122892677783966,0.4909904897212982,0.7161089181900024
7.723542724609375,0.0711287882555276,-0.5330686562271788,8.441505556377768,-0.6197013854980469,0.5353741645812988,0.8519508838653564
7.73352392578125,0.3602984160199761,-0.5625850023623555,7.514621012595295,-0.9728398323059082,0.6336209177970886,0.99293315410614
7.74350390625,0.6725770436279476,-0.7278253219887614,6.424765336227416,-1.372834086418152,0.8262476325035095,1.1656498908996582
7.75348388671875,0.925697672085464,-0.7854491703744977,5.1259962757885456,-1.7885559797286987,1.1411497592926023,1.4167530536651611
7.763463623046875,1.0543057856895028,-0.8415162908375263,3.6015491589605806,-2.0988051891326904,1.3570263385772705,1.6308687925338743
7.77344482421875,1.4111843102633952,-1.4105775765419006,1.9592250197708605,-2.144380569458008,1.4760148525238037,1.7323564291000366
7.783425048828125,1.3055595973618328,-2.1766534264698625,0.6762088242590427,-1.84814977645874,1.4362444877624512,1.644759178161621
7.793405029296875,1.153998478193581,-1.915294838760048,-0.603711743324995,-1.2093960046768188,1.1838045120239258,1.4337751865386963
7.803384765625,1.055041260357201,-0.6393097109287977,-2.182041841509938,-0.2975251674652099,0.7723109126091003,1.240799903869629
7.81336474609375,1.114909015212208,1.027251043894887,-3.576605856361985,0.7252435684204102,0.2642631828784942,1.209951639175415
7.823345947265625,0.9941450392372906,2.3920871522203084,-4.529623204788566,1.7230660915374756,-0.2671964466571808,1.3557308912277222
7.833325927734375,1.0571329719394444,3.380789562012255,-4.489422127303481,2.509018421173096,-0.7723311185836792,1.5688151121139526
7.843305908203125,1.4406589726813137,4.518786753475665,-4.419311064723134,2.75765061378479,-1.1448980569839478,1.8015797138214111
7.853285888671875,1.7884917287513613,5.18221734470427,-5.3345209528028965,2.3404109477996826,-1.323545217514038,2.0129973888397217
7.863266845703125,2.234380662164837,5.1762902927428485,-7.000409507453441,1.27517831325531,-1.317043423652649,2.1226675510406494
7.8732470703125,2.8426760800182818,4.735034718218445,-9.203037040874362,-0.1959121376276016,-1.1545939445495603,2.0571939945220947
7.883226806640625,3.3146053174868224,4.232595483934879,-11.265020424330231,-1.687432885169983,-1.020647048950195,1.8436990976333616
7.893206787109375,3.354367711293697,3.944485229030251,-12.742478995490073,-2.9478743076324463,-1.0875320434570312,1.6114813089370728
7.903187744140625,3.019577538278699,3.752982413965464,-14.678483298671244,-3.880294561386109,-1.1292568445205688,1.4082413911819458
7.91316796875,2.680449628320336,3.449194112935662,-15.517398467099666,-4.149367332458496,-1.0116335153579712,1.253208041191101
7.92314794921875,2.206184641380608,3.5110268842533228,-13.955287097787856,-3.8960907459259033,-1.1056902408599854,1.084727168083191
7.9331279296875,1.5061398912429809,4.720445051851868,-12.611662996578216,-2.360073566436768,0.8063183426856995,0.4422879219055176
7.94310888671875,-1.0350151750903576,5.9958361593127245,-12.061929511678215,-0.7682638764381409,0.605147659778595,-0.0933803021907806
7.9530888671875,-0.4798810732558369,4.614796227422357,-11.87510696338415,0.1521386057138443,0.8911557793617249,-0.1918472498655319
7.963068603515625,-1.5620254445940256,4.125264990028739,-9.35093569201231,0.5301575064659119,0.7554453611373901,-0.1018132343888282
7.973049072265625,-2.5113299099773165,4.146902821341157,-9.387015890175103,0.5165095925331116,0.1849797815084457,-0.300957053899765
7.983030029296875,0.8051087604165077,3.0741026169314978,-6.68190586785078,0.1845359206199646,-0.0207057297229766,-0.153858408331871
7.993010009765625,0.4032258497290313,1.6449394362546503,-4.170530949687958,-0.1995311677455902,-0.1558809131383896,0.2033825665712356
8.00298974609375,-0.2242646824598312,1.548433410962671,-3.34675372915864,-0.5060428380966187,0.0994006618857383,0.4654381573200226
8.012968994140625,0.5837210946977138,1.6102737810648975,-1.7022142520070076,-0.7002357840538025,0.4541586339473724,0.4747651815414428
8.022948974609376,1.630029451892525,0.902633022840321,-0.989659856647253,-0.8003644943237305,0.8874038457870483,0.4696841239929199
8.0329287109375,1.275027388714999,-0.1077922661989927,-0.1709293981134891,-0.8388253450393677,1.276973843574524,0.5166839361190796
8.042912109375,1.065593341770768,-0.7802335546180605,0.8061322582453488,-0.9586960673332214,1.6976287364959717,0.6010227799415588
8.052892822265624,0.7312044430330396,-1.349281396318972,1.1361369505494832,-1.1239922046661377,1.952897787094116,0.7145224213600159
8.062872802734375,-0.524441514994204,-1.7782509052440525,1.3449445361584424,-1.2441563606262207,2.011786699295044,0.6609990000724792
8.07285302734375,-1.6331320940829812,-2.2368654647178947,1.8706185155570505,-1.349832534790039,1.8796993494033811,0.3813096880912781
8.0828330078125,-2.5309485104218123,-2.857436426776647,2.0395622928112744,-1.4352591037750244,1.729633092880249,0.1674107164144516
8.09281396484375,-4.152952622899413,-2.5993895939633247,2.3616472980320453,-1.3108922243118286,1.7115025520324707,-0.078919231891632
8.1027939453125,-3.548999472033977,-3.7466315836340183,3.9619899060606953,-1.003943920135498,1.968953251838684,-0.2885984182357788
8.11277392578125,-2.350245029529929,-4.749056229308248,5.153878554448485,-0.570826530456543,2.3204705715179443,-0.2581054866313934
8.12275390625,-2.665435599061847,-4.949432086658478,5.3957180565655225,-0.1576176881790161,2.671586751937866,0.0488280914723873
8.132734619140624,-2.9914655425161123,-4.3366064780294895,4.356922705349326,0.1870233118534088,3.171666622161865,0.3337461054325104
8.142715087890625,-1.253300856205821,-3.587424772018194,4.079709692034125,0.5532655119895935,3.363428831100464,0.4411609768867492
8.152695068359375,-1.000661435393989,-3.667414546795189,4.302029670166969,0.9582709074020386,2.547858238220215,0.2193068265914917
8.162675048828126,-3.956747036971152,-4.077700690299272,5.078140884158015,1.6683086156845093,-0.3532511293888092,-0.8665180206298828
8.17265576171875,-7.81396460917592,-6.012011633566021,7.661303858202696,2.6558713912963867,-1.9843088388442995,-1.739046335220337
8.1826357421875,-6.45297553166747,-5.713747064393759,9.883808058482408,3.097733497619629,-2.167149782180786,-1.7797768115997314
8.192615966796875,-4.617631450848281,-2.286999907196313,5.557558139294386,3.1250483989715576,-1.6553633213043213,-1.5640453100204468
8.20259619140625,-3.44895621252656,-1.0752001051582396,4.255657795092463,3.265388965606689,-0.8878589272499084,-1.1348071098327637
8.212575927734376,-3.886823313656449,-1.882683485751599,6.198714939394593,3.3646671772003174,-1.151295185089111,-0.7918715476989746
8.222556884765625,-4.538658451898396,-2.486640289878845,4.915443307816982,3.3147804737091064,-1.671070218086243,-0.5246169567108154
8.232536865234374,-4.609306690095365,-3.4446304582819343,4.634294124096631,3.192718982696533,-1.794930934906006,-0.2888131737709045
8.24251708984375,-3.470227840875089,-4.234100043278932,6.045906888905167,3.0040104389190674,-1.9111191034317017,-0.1515693068504333
8.252496826171875,-2.470375383776426,-3.804408942081034,5.996894143933058,2.738974332809448,-2.052450656890869,-0.0945647284388542
8.262477783203124,-1.9753378040514888,-2.6701597049742936,5.289815549635887,2.3986289501190186,-1.9483469724655151,-0.0988854393362999
8.2724580078125,-1.5014569941237568,-1.4357082184061407,4.629276003673672,1.979080438613892,-1.5896018743515017,-0.1781651079654693
8.28243798828125,-0.8846883469574153,-0.5572681181885302,3.878973769199848,1.4585328102111816,-0.9253330230712892,-0.4107429385185241
8.29241796875,-0.5091005918689072,-0.0580490149952471,3.750730835646391,0.9982243776321412,-0.0183794368058443,-0.6716999411582947
8.30239892578125,-1.077360059671104,0.5640281138427555,4.634709719160199,0.5211496949195862,0.5592213273048401,-0.9126137495040894
8.31237890625,-1.257189388076961,1.1045161429483443,3.447510105371475,0.1609564125537872,0.4412907063961029,-0.8762919306755066
8.32235888671875,-1.468096137922257,-0.0320373525127768,2.504070732629299,-0.1404628306627273,0.1377739608287811,-0.5504698753356934
8.3323388671875,-1.0742594633072613,-1.465818402248621,1.7730881156533955,-0.4581635296344757,-0.1374805867671966,-0.1006326526403427
8.342320068359374,-0.6742880853295325,-2.045471809116006,0.2800403456956148,-0.788362979888916,-0.3900403976440429,0.2953450381755829
8.352300048828125,-0.25760858752653,-2.033980547156185,-1.1865449492722748,-1.0917811393737793,-0.3985866010189056,0.630020022392273
8.362280029296874,-0.0570201103389263,-1.8278078400954605,-2.080050370544195,-1.2397702932357788,-0.325147271156311,0.8549724221229553
8.372259765625,0.9401631275504828,-1.5278686157092451,-1.8157383398562668,-1.198832392692566,-0.6045423746109009,0.971710205078125
8.382240966796875,2.2327830177098518,-1.0938113551910966,-2.391577741393447,-0.9494869112968444,-0.8552249073982239,0.6619443893432617
8.392220947265624,5.065358559474348,0.831835439300537,-2.7552555707186457,-0.6147458553314209,-0.6879757046699524,0.063882440328598
8.402201171875,5.327611904066801,3.697544019860029,-2.7542472704589365,-0.3433169722557068,-0.6093330383300781,-0.3767391443252563
8.412180908203124,3.5432252725467084,5.213837056326866,-5.306919244650006,-0.7749558091163635,-0.7852994799613953,-0.4729285538196563
8.422161865234376,2.1897997621603307,4.792782558310032,-11.808144135701657,-1.0520963668823242,-1.0701539516448977,-0.1371774524450302
8.432141845703125,1.0602398519136012,3.1838714439004656,-13.280101186835765,-1.2740103006362915,-0.9520223140716552,0.2758906781673431
8.4421220703125,0.9975319051966072,2.5502868326202037,-15.28624110251665,-1.2649306058883667,-0.9891846179962158,0.4904796779155731
8.452101806640625,1.688136042293906,2.569364165794849,-15.369764604377746,-0.965764582157135,-1.4611717462539673,0.4539156854152679
8.46208203125,1.97694421633482,3.0723452518701557,-13.976570708835125,-0.4758720993995666,-2.0961055755615234,0.2691535651683807
8.47206298828125,2.449347793316841,3.302874839943647,-11.468320644694566,-0.0082456469535827,-2.5264570713043213,0.080810934305191
8.48204296875,2.608558988846838,3.399754666984081,-8.710316067528725,0.2179869562387466,-2.6110758781433105,0.1135057657957077
8.49202294921875,1.7943455693461,3.7194472241103647,-6.651497285583615,0.1781349033117294,-2.288074016571045,0.2444759160280227
8.5020029296875,0.6197524852827191,4.219218700489401,-5.002217335906624,-0.0779663771390914,-1.413085699081421,0.3333333730697632
8.51198388671875,-0.1082710992245003,4.102267268539965,-3.476715741589665,-0.19010029733181,-0.6169434189796448,0.431192934513092
8.5219638671875,-1.1197389195866885,3.0425656151562928,-2.2978619313418864,-0.4161264896392822,0.0279591605067253,0.4417853951454162
8.53194384765625,-1.0120847466841338,2.827027844509482,-3.553590891477465,-0.6606475114822388,0.440564751625061,0.3990311026573181
8.541924072265624,-0.8090468305177986,2.6312702946096658,-4.051111374059319,-0.7895370721817017,0.5834457278251648,0.304370105266571
8.551905029296876,-0.4619012164616957,1.9537103480026128,-3.4045144287317988,-0.7427159547805786,0.542900562286377,0.1935616582632064
8.561885009765625,-0.2866193222271278,1.388752113702893,-2.348712413135171,-0.5690078139305115,0.2340457737445831,0.135673314332962
8.57186474609375,-0.1732228428129106,1.1030870599932967,-1.417249893912673,-0.3331797122955322,-0.1616786420345306,0.1672365814447403
8.5818447265625,-0.2555495361048728,0.6476392939873039,-0.0448895275622606,-0.1021036207675933,-0.5538499355316162,0.2857682704925537
8.591825927734375,-0.5539760178405791,0.1263655223090201,1.1569511905193328,0.0717601105570793,-0.9095330238342284,0.4181475341320038
8.60180615234375,-0.5677326674491167,-0.1935143010176718,2.2380472218483685,0.2023950815200805,-1.118780493736267,0.5536268353462219
8.611785888671875,-0.4398221441878006,-0.6403763903122395,3.5756630225539205,0.2519892752170563,-1.1828396320343018,0.6788140535354614
8.621765869140624,-0.3267471883455291,-0.9285806071106344,4.277659199020266,0.2629202306270599,-1.2084739208221436,0.7844520807266235
8.6317470703125,-0.3797441075829789,-0.9113684102207422,4.843213937908411,0.2669250965118408,-1.184849500656128,0.8417336940765381
8.64172705078125,-0.2452008683089167,-0.995965678793192,5.394815554767847,0.3350301086902618,-1.220928430557251,0.8245928287506104
8.6517080078125,0.9219074860222636,-1.2749670368298889,6.185736799877882,0.372318685054779,-1.1249849796295166,0.7103678584098816
8.661687744140625,1.2979812710620462,-0.8596739518839865,6.4964972780078645,0.3363156616687774,-0.9078295826911926,0.5648942589759827
8.6716689453125,1.257301324018836,-0.8739948843117803,6.612306261923909,0.2745703756809234,-0.6271548271179199,0.4684514105319977
8.681649169921876,0.8617210936721413,-0.9287064985126255,6.740885880085825,0.1536580771207809,-0.3071360886096954,0.4252093732357025
8.691629150390625,0.438997456866689,-0.958534650543332,6.4001090338766575,-0.0115434695035219,-0.0030351364985108,0.3791003227233886
8.70160888671875,0.3120843106122687,-1.1234914039880035,5.89811929692626,-0.2004318982362747,0.1839760243892669,0.3142651319503784
8.71158984375,0.2010335906066,-1.3489058410048484,5.254016506502032,-0.365425705909729,0.2421071231365203,0.2578608393669128
8.72156982421875,0.0430395888466388,-1.4812870434068142,4.6312949422806495,-0.4935847520828247,0.2101869881153106,0.2134246677160263
8.731550048828124,-0.0236276534227654,-1.5475392386019229,4.152289775076508,-0.5561781525611877,0.1857768595218658,0.1869870126247406
8.741530029296875,-0.0057204234734177,-1.529791692726314,3.833046130761504,-0.5827807188034058,0.1879814267158508,0.1549632996320724
8.751510986328125,0.1569019322069361,-1.304336923699081,3.324902547356486,-0.6009600758552551,0.1818082332611084,0.0847818031907081
8.761490966796876,0.3872860839277505,-1.0308167004872113,2.5227473760485646,-0.612557053565979,0.1644486784934997,0.010156569071114
8.771470947265625,0.4137152046373114,-0.8851260077223181,1.5978145508557555,-0.6177220344543457,0.1384545415639877,-0.0335119180381298
8.781450927734374,0.324274697284773,-0.8154339012064039,0.6111591367214918,-0.6138724088668823,0.1141015440225601,-0.0451768301427364
8.791431884765625,0.2487162194861099,-0.6837598972257226,-0.3093067721903323,-0.5991365909576416,0.0932543128728866,-0.0393570810556411
8.801411865234375,0.1923078478373587,-0.4841453796368092,-1.0168173281639814,-0.5552564859390259,0.0788095891475677,-0.0261741690337657
8.81139208984375,0.1002754608280956,-0.2656555542513727,-1.477741479754448,-0.4823034703731537,0.0893781781196594,-0.0082620680332183
8.821371826171875,-0.0157968136666342,-0.0165195384506136,-1.7058552388578652,-0.3753799498081207,0.0644573718309402,0.0111843328922986
8.83135205078125,-0.0070164911659434,0.2635805015429854,-1.927010264864564,-0.2215830087661743,-0.0032290732488036,0.0229529477655887
8.8413330078125,0.0964008844170719,0.4661822913143783,-2.030107651245594,-0.0358448326587677,-0.0827433466911315,0.0225747786462306
8.85131298828125,0.1924752402935177,0.586450081270188,-2.036235778737068,0.1551807969808578,-0.112037256360054,0.0202159229665994
8.861292724609376,0.1803660656310617,0.6393913247976452,-1.9216987144529816,0.3306103944778442,-0.1356035619974136,0.0178134869784116
8.87127294921875,0.1697520979624241,0.5422141953110694,-1.749994824835658,0.4653186798095703,-0.1837135702371597,0.0066391290165483
8.88125390625,0.2449550403216853,0.3084427757721394,-1.6380933697521685,0.5393681526184082,-0.2469761669635772,-0.0190055146813392
8.891234130859376,0.2867229652646929,0.0750880472753196,-1.5646511169224977,0.5633947253227234,-0.3242976069450378,-0.0397202968597412
8.9012138671875,0.2161686158962547,-0.0381157225783914,-1.3532570219516753,0.5722004771232605,-0.3993681371212005,-0.0589027777314186
8.91119384765625,0.1570119684526696,-0.0582637537244707,-1.1262445020884275,0.5686559081077576,-0.4698210954666137,-0.0791837647557258
8.921175048828125,0.1119702460033819,-0.0720836778275668,-0.8392197043329477,0.5666268467903137,-0.5169763565063477,-0.0971667543053627
8.931155029296875,0.095405224443227,-0.0901399243261665,-0.3743640585124492,0.5659032464027405,-0.5031822323799133,-0.1187825053930282
8.941135009765626,0.0679406597387045,-0.132444330766052,0.096885087737441,0.5605428218841553,-0.457802265882492,-0.1418465375900268
8.951114990234375,-0.0169501118876039,-0.1696844395536929,0.4051549180954694,0.549014151096344,-0.4272210597991943,-0.1501084119081497
8.961095947265624,-0.1401888804782182,-0.226411960154213,0.5620645586848259,0.5140660405158997,-0.3914497494697571,-0.1569942831993103
8.971075927734375,-0.1749153990097343,-0.2443523617208003,0.6133358962386846,0.4621160924434662,-0.3271389305591583,-0.154572382569313
8.981055908203125,-0.2543101305030286,-0.2618124689571559,0.6265215410262346,0.3973149955272674,-0.2487546354532241,-0.1463072597980499
8.991035888671876,-0.3249224206037819,-0.2771565704202279,0.6435363887131214,0.3291736543178558,-0.1424459666013717,-0.1388137638568878
9.001016845703125,-0.3118732616774737,-0.3482815592834726,0.6419710390925407,0.2624635994434356,-0.0514934211969375,-0.1507540494203567
9.0109970703125,-0.2069924990110099,-0.432298251488991,0.6234387725800276,0.2145828902721405,-0.0099880015477538,-0.1524867266416549
9.020976806640626,-0.1468671891983598,-0.4901639458065852,0.6357090560883283,0.1932179480791092,0.0289000086486339,-0.153337076306343
9.03095703125,-0.0958431044038385,-0.4612936424899846,0.6884709244608879,0.1827046424150467,0.1032130867242813,-0.1470322906970977
9.04093359375,-0.0694053254637867,-0.4224221331082284,0.7792424977540969,0.1964950263500213,0.1692493706941604,-0.1417246013879776
9.05091357421875,-0.0272154122490435,-0.3704571872670203,0.7509995690882205,0.2237840145826339,0.2331150025129318,-0.1331476867198944
9.060893798828126,-0.121720399916917,-0.3148821977024897,0.7360089207053184,0.256710022687912,0.2953070104122162,-0.1239328905940055
9.07087353515625,-0.2504544049229473,-0.291604819022119,0.7832388739138841,0.2976990044116974,0.3473753333091736,-0.1116137281060218
9.080854736328124,-0.2798597284317016,-0.2836771495616995,0.8119260392159223,0.3447125852108001,0.3950594961643219,-0.0971221402287483
9.090834716796875,-0.3431246514443308,-0.2619425250776112,0.8308762388795614,0.3873356580734253,0.4201273918151855,-0.0754736736416816
9.100814697265625,-0.4193786006938665,-0.1822587109772488,0.7710995233088731,0.4047887027263641,0.4203686714172363,-0.0527143031358718
9.11079443359375,-0.4162183100320398,-0.0759715247121173,0.6176654498755931,0.3895213901996612,0.3881162703037262,-0.0333260558545589
9.120775390625,-0.4170806990150362,-0.0282695244118571,0.3795470141083001,0.3431586623191833,0.342998057603836,0.0058501083403825
9.130755859375,-0.4755069863574579,-0.0676950920463772,0.3115308779805898,0.3005595803260803,0.3199455142021179,0.0349140204489231
9.14073583984375,-0.2957639845281839,-0.0380666912383167,0.3748305069804191,0.2608787715435028,0.2840093374252319,0.0425069592893123
9.150715576171876,-0.0840586681837216,0.0828023845123127,0.30981472171247,0.2306383997201919,0.2336332201957702,0.047047920525074
9.160696533203126,-0.0793103411454707,0.1995301455073989,0.2240893258929252,0.2201223820447921,0.1924796551465988,0.05395083501935
