seconds_elapsed,ax,ay,az,gx,gy,gz
0.069461669921875,-0.2794236385693773,-0.7066779776070267,-0.3770540282487869,0.4534661173820495,-0.1321932226419448,-0.3874038755893707
0.079487548828125,0.138307998635061,-0.7432356570884585,0.2109820070385932,0.2794271111488342,-0.0933332070708274,-0.4004631042480469
0.089513671875,0.286891453699395,-0.5104267624387517,0.5170528660476208,0.1480925232172012,-0.016617652028799,-0.3888533115386963
0.09953955078125,0.2346722043035551,-0.3535073311077431,0.4342699534207582,0.0952786430716514,0.0625157803297042,-0.3719714879989624
0.109565673828125,0.365206171403639,-0.2399659633301198,0.3864841198951005,0.095652550458908,0.1090864762663841,-0.3624472320079803
0.119591552734375,0.509666153329797,-0.0168393449895083,0.5947217966616153,0.1254736930131912,0.1091559007763862,-0.356289803981781
0.129617431640625,0.658102966465056,0.354325917481631,0.8549041801989078,0.1852616667747497,0.0993072614073753,-0.3251553177833557
0.139643310546875,0.8490816115252673,0.6569376490127294,1.177106089797616,0.2491528242826461,0.106214165687561,-0.2656341195106506
0.149669189453125,1.105181109663099,0.927878669386357,1.5034125121057034,0.2961035668849945,0.117302767932415,-0.2061651945114135
0.1596953125,1.188288139677793,1.0835617638554425,1.89063137601614,0.3132725358009338,0.1315400600433349,-0.1686874479055404
0.16972119140625,1.1143684785947203,1.1679637290515006,2.2617776415258644,0.3126083314418793,0.1305088847875595,-0.1363739818334579
0.17974755859375,1.1162075305901469,1.1180717170268295,2.598068866753578,0.3011736869812011,0.1284828186035156,-0.07611034065485
0.1897734375,1.208152677707374,1.0992257814552635,2.922766684821248,0.3086417317390442,0.1474783420562744,0.0132967699319124
0.19979931640625,1.1170558179825545,1.0411900643330068,3.131677730804681,0.343689352273941,0.1916943937540054,0.0971356034278869
0.209825439453125,0.9522297051802276,0.82279164355807,3.324488121336698,0.3775998950004577,0.2435381561517715,0.131455510854721
0.219851318359375,0.6741840404331684,0.6500903404012323,3.731889941576123,0.3965374827384949,0.2942087650299072,0.092897780239582
0.22987744140625,0.1819555998448282,0.4364438268611207,4.186077478387952,0.3940910995006561,0.3373666107654571,0.0035681643057614
0.2399033203125,-0.3051979486320167,0.3082478377219289,4.661112572917342,0.3808861076831817,0.3810145556926727,-0.1069976016879081
0.249929443359375,-0.6102881991058587,0.2942447573379613,5.226904627692699,0.3300564885139465,0.4320079684257507,-0.23317950963974
0.259955322265625,-0.843482622474432,0.3418655547613278,5.817843983206153,0.2110369205474853,0.4582403600215912,-0.3538492023944855
0.269981201171875,-1.0791155250363051,0.4750777646273374,6.353999024608731,0.0175622999668121,0.4500965774059295,-0.4297936856746673
0.28000732421875,-1.2152128253519534,0.5078079217098653,6.7429106639117,-0.210895374417305,0.4574143290519714,-0.4534757733345032
0.290033447265625,-1.4098250046089291,0.5741725643035024,7.065057628452777,-0.425126701593399,0.4450335502624511,-0.4501958191394806
0.3000595703125,-1.6690307981990278,0.7237710781618952,7.177077741479874,-0.5686171650886536,0.3767763674259186,-0.4216784834861755
0.31008544921875,-1.6234405750215053,0.8819139138080179,6.671471567597985,-0.5694179534912109,0.2803531587123871,-0.2990542948246002
0.320111572265625,-0.9636488517519086,1.0111238657627255,5.522534756708144,-0.3720501363277435,0.2717297673225403,-0.1171355620026588
0.330137451171875,-0.5874982386162504,0.795765689466521,3.269659383562207,0.0109092127531766,0.3677599132061004,0.0908884778618812
0.34016455078125,-0.6185074536576867,0.1345175933761522,0.0635468817591667,0.5122891068458557,0.4359725713729858,0.2822096347808838
0.3501904296875,-0.698903471148014,-1.1899236319251358,-3.429045058876276,0.968044638633728,0.5103974938392639,0.2808301150798797
0.360216552734375,-1.5288456440478562,-3.087315149725973,-6.730964205530285,1.1577303409576416,0.5077381134033203,0.0181255377829074
0.370242431640625,-2.545100954414904,-4.6743066932722925,-9.185233673158288,0.9879333972930908,0.1323453187942505,-0.3447352349758148
0.380268310546875,-2.342294362786412,-5.407908845096826,-10.40792662513256,0.5884736180305481,-0.3601974546909332,-0.6496085524559021
0.39029443359375,-1.5578167408578096,-5.487865009865164,-11.860538339805602,0.1752024590969085,-0.7007603645324707,-0.918591558933258
0.4003203125,-1.490150879472494,-5.347378096288442,-14.024022195839882,-0.1308601200580597,-0.9982037544250488,-1.135534644126892
0.410346435546875,-1.377916539172828,-4.404620860591531,-15.694531980550288,-0.2703477144241333,-1.2785217761993408,-1.3046845197677612
0.420372314453125,-1.0917813837334511,-3.1571462263211605,-16.669472406971455,-0.2650147378444671,-1.4909905195236206,-1.4529749155044556
0.4303984375,-1.4176958841145038,-2.319056695061922,-17.25695314646363,-0.2353175282478332,-1.590467095375061,-1.5575112104415894
0.44042431640625,-1.6685830544315277,-1.5521619299665093,-17.003712544888256,-0.2717978656291961,-1.556721329689026,-1.5771454572677612
0.4504501953125,-1.4851315900057551,-0.6358893810912967,-16.204090106928348,-0.3374357223510742,-1.3399323225021362,-1.4688981771469116
0.460476318359375,-0.9453504670605064,0.4808136413982137,-15.857929229593276,-0.3277314305305481,-0.9697889685630798,-1.2233552932739258
0.470502197265625,-0.2481169749513268,1.549541810595989,-15.78914152457118,-0.1913418918848037,-0.5143429040908813,-0.8623203635215759
0.4805283203125,0.6372555548779666,2.5187773033738137,-15.481539218211172,0.0480355657637119,-0.0383588895201683,-0.4541938304901123
0.490554443359375,1.3852692400231956,3.162675511136651,-14.438789576411246,0.3367355167865753,0.3805392980575561,-0.0682860910892486
0.50058056640625,1.821867490261048,3.188859753707051,-12.482981671607494,0.5963495373725891,0.7024015784263611,0.2504515647888183
0.5106064453125,2.043080822326243,2.571028007353842,-9.672788642042876,0.7216778993606567,0.8886675834655762,0.4676533937454223
0.520632568359375,2.0236947154633698,1.933161627101153,-6.058644205403327,0.6372358202934265,0.915736436843872,0.5732017159461975
0.530658447265625,1.832894349579513,1.460739053157717,-1.9931939248681068,0.4084734618663788,0.7751684188842773,0.582355260848999
0.540684326171875,1.5767191558569669,0.7423741448882967,1.7653285875678062,0.1453888118267059,0.4511140286922455,0.4882832765579223
0.55071044921875,1.084095067014545,-0.0851764201672747,4.8225136797070505,-0.0848632976412773,-0.0012928480282425,0.2725485861301422
0.560736328125,0.5318245013849809,-0.6275546834662556,7.291018008914589,-0.2741367518901825,-0.4939543902873993,-0.0341612920165061
0.570762451171875,0.1894422658057883,-0.7181126870740204,9.13095555500388,-0.4291210174560547,-0.8051535487174988,-0.3252743482589721
0.580788330078125,0.3708085579879582,-0.4667371121855452,9.614822190764546,-0.5679994225502014,-0.8292508721351624,-0.5514543056488037
0.590814697265625,0.2394176817975938,-0.4437249237800016,8.989829174479842,-0.6466832756996155,-0.6649615168571472,-0.641094982624054
0.600840576171875,0.1923440881945192,-0.6484701918534934,8.322467089021206,-0.6395676136016846,-0.3556496500968933,-0.644742488861084
0.61086767578125,0.2840139255017042,-0.5334458189764991,8.272610294440389,-0.5820720791816711,-0.0640196651220321,-0.6556830406188965
0.620893310546875,0.1585300083328038,0.0646367410887964,8.865315490582585,-0.503969132900238,0.1143487319350242,-0.6566126346588135
0.630919189453125,0.1382308782782405,0.8132610872119664,9.657350834414364,-0.4263020157814026,0.1882525235414505,-0.6070885062217712
0.6409453125,0.4859219608552753,1.3813560121022164,10.44769048024416,-0.3457973301410675,0.2102500051259994,-0.5175121426582336
0.650971435546875,0.7757420153524727,1.748472729834914,11.111143867826462,-0.2545816600322723,0.1985928118228912,-0.4152459800243377
0.66099755859375,0.9039784460999072,1.9276804192110892,11.344116757398844,-0.1644612997770309,0.1991100460290908,-0.31503427028656
0.6710234375,1.036816452358663,1.9894618987329304,11.469811175513266,-0.0862831398844719,0.159163162112236,-0.2153966277837753
0.681049560546875,1.219562106602639,2.089162043891102,11.687442703568935,-0.0200382061302661,0.0761345028877258,-0.1352570950984954
0.691075439453125,1.3047529571540653,2.083175809088349,11.694571532535551,0.0110432803630828,0.0052851010113954,-0.0930100381374359
0.701101318359375,1.158605460532382,1.8394091383010147,11.48446630833149,-0.0128644946962594,-0.0568626672029495,-0.0726485624909401
0.711127685546875,1.0143037379078566,1.4960371610321104,11.127269657719134,-0.0785124748945236,-0.1010138764977455,-0.0419718846678733
0.721153564453125,1.0645727665513751,1.174734538360685,10.605184058201312,-0.1426627337932586,-0.0707266628742218,0.0037772455252707
0.7311796875,1.1860505168188362,0.8759725410602986,9.983873529821636,-0.1697076708078384,0.0165978521108627,0.0477191358804702
0.74120556640625,1.3403966635957358,0.6268956350356341,9.36641383165121,-0.1541734188795089,0.1079531013965606,0.0712101683020591
0.751231689453125,1.1829327501244842,0.3320502997223287,8.884858395442366,-0.1173624098300933,0.1835019141435623,0.0694839134812355
0.761257568359375,1.0269983112428336,0.0343023702687351,8.607883282536267,-0.0932481735944747,0.2404214441776275,0.054789338260889
0.77128369140625,0.8490845341347157,-0.2228654101211577,8.476220895928144,-0.0921775847673416,0.3147167265415191,0.0074207559227943
0.7813095703125,0.5595054853191599,-0.6479780974876135,8.296578030005097,-0.1249571666121482,0.3961474597454071,-0.0687716528773307
0.79133544921875,0.3185885414071381,-1.0275321989238262,8.144324690788984,-0.1700418144464492,0.4889610409736633,-0.163749024271965
0.801361572265625,0.0772317813057452,-1.2941656582966443,7.859184976127743,-0.2267929762601852,0.6222166419029236,-0.270891010761261
0.811387451171875,-0.1377515703286975,-1.5554937047377229,7.543920172315835,-0.2904393076896667,0.7120815515518188,-0.3771074712276459
0.821413818359375,-0.4767687864542007,-1.7360881722971797,7.356172325870395,-0.3477101325988769,0.6989731788635254,-0.4285488724708557
0.831439697265625,-0.7610863710775971,-1.8222623347975315,7.222598552682995,-0.3735792934894562,0.618972659111023,-0.4190973043441772
0.8414658203125,-0.8326071543253958,-1.8092223820909856,6.84673402647972,-0.3608972430229187,0.4576846063137054,-0.3606045544147491
0.85149169921875,-0.9648173840746282,-1.730106175278127,5.957008123746514,-0.2897532880306244,0.2984225153923034,-0.2104991972446441
0.861517578125,-0.8601862122550606,-1.7985805765673517,4.143268848752975,-0.1549559533596038,0.292545735836029,0.0113137448206543
0.87154443359375,-0.7431151725139469,-2.129447292528301,1.5913193436175583,0.0717112869024276,0.3974447250366211,0.1976679116487503
0.8815703125,-1.0737708030074835,-2.926759261588752,-1.387167474859953,0.3610076308250427,0.4464731514453888,0.3019071221351623
0.891596435546875,-1.1114382703617214,-3.301659326674044,-4.054457177355885,0.5989495515823364,0.1730133891105651,0.2861673235893249
0.901622314453125,-0.9304862215362488,-2.845061221589148,-5.769272552260756,0.6311241388320923,-0.4624287486076355,0.0977966487407684
0.911648681640625,-1.2497625990770755,-2.284246370704472,-7.336684950590133,0.3669332861900329,-1.1741150617599487,-0.0685185566544532
0.921674560546875,-1.6874932143457233,-2.279168044526875,-9.32202757743597,-0.0525881834328174,-1.6234287023544312,-0.0844785049557685
0.93170068359375,-2.4165876794874666,-3.0159473650828,-12.15711305619478,-0.3966923058032989,-1.758803367614746,-0.0279417261481285
0.9417265625,-3.3149756121039387,-3.161293701389432,-15.698890175759791,-0.5375494956970215,-1.656720757484436,0.0781364664435386
0.951752685546875,-2.916522529734671,-1.3640584019511937,-18.86256580384969,-0.3813388049602508,-1.471579909324646,0.3764616549015045
0.961778564453125,-1.0545005776092409,1.1194514809474347,-21.12515417723656,0.03518982604146,-1.3296587467193604,0.8198570609092712
0.971804443359375,0.2069547242838889,2.483587332049012,-22.648193765354154,0.5896074771881104,-1.1491986513137815,1.2066103219985962
0.98183056640625,-0.1305694768048823,2.320212879359722,-23.796592231583595,1.103903889656067,-0.9252567291259766,1.51045024394989
0.9918564453125,-0.3987748616695404,1.7778544532723723,-24.358385572111604,1.3898259401321411,-0.6758202910423279,1.7575631141662598
1.001882568359375,0.0438815926287323,1.687859417309612,-23.852374324560163,1.2815592288970947,-0.3239866495132446,1.9209542274475095
1.011908447265625,0.5013134451240301,1.4405965749695897,-22.26484794348478,0.9007362723350524,0.1897184699773788,1.9759544134140012
1.021934814453125,0.1216917583443224,0.185365444820933,-20.29018336251974,0.5148687958717346,0.7945997714996338,1.8365448713302608
1.031960693359375,-0.8839789565790445,-1.4867410710290074,-17.97063683811426,0.18758524954319,1.276641845703125,1.4241453409194946
1.041986572265625,-1.781230213315785,-2.4069810622304675,-14.149991339242458,-0.1241126507520675,1.4100854396820068,0.8008739948272705
1.0520126953125,-2.158198755238205,-2.746103419230878,-8.61576848282814,-0.5301999449729919,1.1257983446121216,0.1607113480567932
1.06203857421875,-1.567470265996456,-2.4765648860663174,-2.220105322444439,-0.9268747568130492,0.6715802550315857,-0.3382405340671539
1.072064697265625,-0.4397405668515712,-1.6326115773402154,2.4254116219341757,-1.1474010944366455,0.2299131006002426,-0.6291359663009644
1.082090576171875,0.4387889652151614,-0.6768503370329737,5.034003636267781,-1.11488139629364,-0.0657801032066345,-0.6929103136062622
1.09211669921875,1.2439242483124135,0.3165841427821665,6.36989159026742,-0.8825944066047668,-0.2368101775646209,-0.5921956896781921
1.102142578125,1.3990234784789382,0.6988233185838908,7.134133502766489,-0.5330968499183655,-0.2543302476406097,-0.3842047452926636
1.11216845703125,1.3515224532440304,0.6525239972889423,7.703191281339525,-0.1448484063148498,-0.1346949487924575,-0.1506694853305816
1.122194580078125,1.1546779118251054,0.595410655708611,8.11031311559379,0.2255186587572097,0.0202497225254774,0.0736910104751586
1.1322216796875,1.1417181116826831,0.4845554217424243,8.230381510519981,0.5070300102233887,0.1886842846870422,0.1772618740797042
1.14224755859375,1.041476041667536,0.2681897123714908,8.616330208364129,0.6187731027603149,0.3012512028217315,0.136906623840332
1.1522734375,0.7854786887299269,0.1891928393556736,9.562214051648974,0.560183048248291,0.2953802645206451,0.0633088424801826
1.162299560546875,0.8765733564976602,0.3865473213244229,10.762544365167615,0.3982820808887481,0.1676141023635864,0.0153398718684911
1.172325439453125,1.191473126389459,0.8548588066872209,11.85418224877715,0.2071105241775512,-0.0979526042938232,0.0335090234875679
1.1823515625,1.6461040961198508,1.577012731976062,12.535013472139834,0.0503393523395061,-0.3585223257541656,0.1024944633245468
1.19237744140625,1.8723108525581655,2.218647670982033,12.367093192714451,-0.0386019721627235,-0.504452109336853,0.2047582566738128
1.202403564453125,1.8748997000075875,2.290634902697801,11.535049663621187,-0.059889618307352,-0.5593435764312744,0.3034507930278778
1.212429443359375,1.8088778064370157,2.2133640314906837,10.723090306657552,-0.0162510573863983,-0.5289566516876221,0.36439910531044
1.22245556640625,1.6134196778751908,2.1184666104391217,9.79887235173583,0.0437022410333156,-0.3950635492801666,0.3623838722705841
1.232481689453125,1.168207547744736,1.81637093867138,8.906719514116645,0.0747898519039154,-0.1885974258184433,0.3329271972179413
1.242507568359375,0.8397215163752436,1.559622475105524,8.35425514294803,0.0508283078670501,0.0286659616976976,0.2968079149723053
1.25253369140625,0.7334156162764877,1.442528712075949,8.284493624457717,-0.0269059035927057,0.1800514757633209,0.2444935739040374
1.2625595703125,0.6473992746863514,1.3336882519982751,8.447052084589004,-0.1175141856074333,0.2443290799856186,0.1860220283269882
1.272585693359375,0.4956014241527766,1.2600896395631134,8.539352767145633,-0.1820132732391357,0.2810055911540985,0.1459675580263137
1.282611572265625,0.4780857142716646,1.2372897787339985,8.430768473786115,-0.2075011134147644,0.3608443439006805,0.0989773496985435
1.292637451171875,0.2415504560425877,1.1635722891595217,8.080752090066671,-0.1966210305690765,0.4364472329616546,0.0771301016211509
1.30266357421875,0.1830297318823635,1.0979267546206712,8.034460879012942,-0.1949902921915054,0.4835123419761657,0.0736488923430442
1.312689453125,0.3372152812700718,1.1095106633000076,8.254937275105714,-0.2312289774417877,0.4935346245765686,0.0403742864727973
1.322715576171875,-0.0939070217747241,0.9529151301611214,8.335174594902991,-0.3120812475681305,0.4987040758132934,-0.0237056259065866
1.33274169921875,-0.5156258654518052,0.417862131716311,8.156307974049449,-0.4163399934768677,0.5520586371421814,-0.1307593733072281
1.342767822265625,-0.8641513164937495,-0.1805002499373629,7.733540242373943,-0.517850399017334,0.5928545594215393,-0.2484164088964462
1.352793701171875,-1.1528843794718384,-0.547612912549451,7.23590753158927,-0.5766942501068115,0.5805598497390747,-0.3194314539432525
1.36281982421875,-1.2908102103888988,-0.5189977530376986,6.579955897939205,-0.5260943174362183,0.546715259552002,-0.2944498360157013
1.372845703125,-1.2198025642950088,-0.3387506376111879,5.404900895452499,-0.3684029281139374,0.4860711395740509,-0.2642016410827636
1.38287158203125,-1.509060893256217,-0.6766797297064214,3.661517597711086,-0.1788383275270462,0.4350185990333557,-0.2616484761238098
1.392897705078125,-1.9444572203584012,-1.0342596074827015,1.6638292840331792,-0.0060393889434635,0.3856113851070404,-0.2742542922496795
1.40292431640625,-1.7617004601985216,-1.1973093582622707,-0.4839548985660076,0.1525237560272216,0.3360132575035095,-0.2793903946876526
1.41295068359375,-1.4318189558826386,-1.1594662420801818,-2.878707178342342,0.3594591021537781,0.1817869544029235,-0.3010054230690002
1.4229765625,-1.2847965030573307,-1.2274106281459332,-5.521334148746728,0.5378236174583435,-0.1200423240661621,-0.3995609879493713
1.433002685546875,-1.5198041133277118,-1.0786882395349442,-7.758819060537219,0.4997601509094238,-0.6511285901069641,-0.5988370776176453
1.443028564453125,-2.31420677081272,-1.2647640611149369,-9.47906230570972,0.1508928537368774,-1.2072569131851196,-0.7982164025306702
1.4530546875,-3.2775589046403764,-2.154296340972185,-11.10840479825139,-0.3228174448013305,-1.4652702808380127,-0.8550788760185242
1.46308056640625,-3.730304718211293,-3.086665745906532,-13.265422673141956,-0.5565452575683594,-1.3378173112869265,-0.7089745402336121
1.4731064453125,-2.943751605182886,-2.494078330925107,-15.981698232603073,-0.3992392420768738,-1.043532133102417,-0.4067321419715881
1.483132568359375,-1.2075148912604898,-0.2625542820340953,-18.20506051101685,0.1280872821807861,-0.8157588839530945,-0.0664575845003128
1.493158447265625,0.2004765412457287,1.689413514883816,-19.49622494167089,0.7511399388313293,-0.6724994778633118,0.1879640519618988
1.5031845703125,0.0083391546044498,2.0992494304023683,-19.68274353858232,1.160022854804993,-0.630365788936615,0.3600612878799438
1.51321044921875,-0.7507151991888881,0.8624947083931416,-18.96600747362375,1.2419614791870115,-0.714719831943512,0.5093120336532593
1.52323681640625,-0.8925466592423618,-0.3496955177346244,-17.884778755825756,1.015192627906799,-0.7368550300598145,0.5913417339324951
1.5332626953125,-1.059231405523419,-0.8393729221332817,-17.005169173437356,0.6503267884254456,-0.5015165209770203,0.5548343062400818
1.543288818359375,-1.5945026498287915,-1.5424544826835394,-16.301579005777835,0.3916643559932709,-0.0053315316326916,0.4454833567142486
1.553314697265625,-1.7561556855529543,-2.0093835737772285,-15.420807393872735,0.2915722727775574,0.5619924664497375,0.3415059745311737
1.563340576171875,-1.3277645610377191,-1.7067400588683783,-13.424524855339529,0.3305590450763702,1.1562038660049438,0.2800183594226837
1.57336669921875,-0.6265327200073748,-1.3728873128339647,-10.39185227316618,0.4031621217727661,1.6104059219360352,0.237883448600769
1.583392578125,0.090152929938212,-1.0503896351590751,-6.141847973790765,0.4724210500717163,1.7432676553726196,0.1821987181901931
1.593418701171875,0.9726252813465892,-0.5245415047699585,-1.3514099327802658,0.5075814127922058,1.615471363067627,0.060217410326004
1.603444580078125,1.4411628305502235,-0.0049156829617917,2.8862825820326803,0.5273579359054565,1.286647915840149,-0.0881284400820732
1.613470703125,1.501254749549925,0.2147402270609512,6.146193894040584,0.5064233541488647,0.8791914582252502,-0.2024441063404083
1.62349658203125,1.577669880710542,0.3793080177206546,8.553425131639838,0.4086887538433075,0.4468440115451813,-0.1971333771944046
1.633522705078125,1.6332476832866667,0.6407309759035706,10.2089296549201,0.2623773515224457,0.0686628818511962,-0.1315953731536865
1.643548828125,1.5417657697670162,0.590390233730711,10.957988611334562,0.088130734860897,-0.2209697961807251,-0.108010783791542
1.65357421875,1.054119250141457,0.37717641251944,11.074714125573635,-0.0458089485764503,-0.429773598909378,-0.1197505295276641
1.663601318359375,0.5942789482649415,0.2026107402628287,10.54137063446045,-0.1113342344760894,-0.4604138731956482,-0.1834682375192642
1.673627197265625,0.3169008440485223,0.2280278709182515,9.392534361335636,-0.1037476882338523,-0.3072967529296875,-0.2589541971683502
1.6836533203125,-0.1196615311583504,0.473894436594285,8.30513367690444,-0.0119532700628042,-0.1065927967429161,-0.2587503492832184
1.69367919921875,-0.0264470947576686,1.0931681619167328,7.897109340852499,0.1142294332385063,0.0518495738506317,-0.19283127784729
1.703705322265625,0.0631377529690042,1.758186022336781,8.107652371951938,0.2216708213090896,0.1606434434652328,-0.0808315947651863
1.713731201171875,0.1905029173072427,2.4600720164269205,8.503613345244526,0.253753662109375,0.1458311975002288,0.0882474407553672
1.723757080078125,0.2710747662885114,3.022724604132771,9.188301244035364,0.217162474989891,0.0881332531571388,0.2809998989105224
1.733783203125,-0.1087082850653678,3.094874479064345,9.469037755301594,0.1453159749507904,0.0395247116684913,0.4348238408565521
1.743809326171875,-0.654980377465114,2.8574747129604217,9.492979187381266,0.0491575077176094,-0.03297920525074,0.5017479658126831
1.75383544921875,-1.131197813646868,2.555138072043657,9.360873148658872,-0.0118192937225103,-0.1201572492718696,0.4984336793422699
1.763861328125,-1.486615837214142,2.253810754299909,8.842496925053,-0.0124177271500229,-0.1380703151226043,0.4558971524238586
1.773887451171875,-1.4111999462239444,2.006496474033594,8.130819312527775,0.0128876287490129,-0.0546404048800468,0.3803946673870086
1.783913330078125,-1.31992056953907,1.71255064484328,7.425507727903128,0.028060033917427,0.09035474807024,0.3184100091457367
1.793939208984375,-1.0584360173620282,1.5689274790674448,6.886949717012048,0.0283093061298131,0.2605735957622528,0.2997268736362457
1.80396533203125,-0.7591587640158831,1.473271786994487,6.706376876762509,0.0274346582591533,0.4175440669059753,0.2869393825531006
1.8139912109375,-0.5963862227424979,1.0936929164431988,6.712553519570827,0.0163939911872148,0.5423077940940857,0.2304766178131103
1.824017333984375,-0.6128657945089042,0.6103050771754235,6.960863679006695,-0.0112080965191125,0.5872529745101929,0.1279761791229248
1.834043212890625,-0.6876296513311565,0.2826737629391253,7.332201083174348,-0.0561404190957546,0.508041501045227,0.0355849936604499
1.8440693359375,-0.4811074001803994,0.191829343605414,7.820009734559059,-0.1004437059164047,0.3770342469215393,-0.047074731439352
1.854095458984375,-0.4824628333773463,0.139470393477939,7.980026108992099,-0.1596044898033142,0.2748695313930511,-0.137842446565628
1.86412158203125,-0.6290577815055847,-0.0977396587401628,7.748456071954965,-0.238253504037857,0.1930324435234069,-0.242411732673645
1.8741474609375,-0.7365908122465014,-0.3237580164669081,7.34073744085133,-0.3187195658683777,0.1393151581287384,-0.3906621932983398
1.88417333984375,-0.979258581881225,-0.4802572130918502,6.577094078767299,-0.3708248734474182,0.0898274704813957,-0.5068610310554504
1.894199462890625,-0.9744262663539498,-0.6667109280735254,5.457331924435496,-0.3275807201862335,0.0541626811027526,-0.5686466097831726
1.904225341796875,-0.9768222946450114,-0.9199436386033892,3.964726053026318,-0.1416193097829818,0.0222275089472532,-0.5885223150253296
1.91425146484375,-0.984892057723552,-1.0231512804258611,2.05695357259512,0.1510605067014694,-0.1119414791464805,-0.6045588254928589
1.924278076171875,-1.110737647811696,-0.8394621347866952,-0.0792149910122156,0.4231952130794525,-0.4775492250919342,-0.598198652267456
1.93430419921875,-1.3663167022719978,-0.6763655491907149,-2.098042538830638,0.5633134245872498,-0.953698754310608,-0.6488029956817627
1.944330322265625,-1.915940881578624,-0.953213747781515,-4.280400606682896,0.4504286646842956,-1.3294005393981934,-0.8369466662406921
1.9543564453125,-3.0311694841340184,-1.657414156293869,-6.901892434599995,0.0697878152132034,-1.5333110094070437,-1.0448410511016846
1.96438232421875,-3.649716393019258,-2.444351592464745,-9.902655382293462,-0.3719358444213867,-1.508170247077942,-1.119594693183899
1.974408203125,-3.3807159122541544,-2.8100857697978614,-13.153100946819782,-0.6183504462242126,-1.3524197340011597,-0.9887033104896544
1.984434326171875,-2.441877311305701,-2.1819844122342764,-16.391734492999316,-0.5442528128623962,-1.2283774614334106,-0.7188635468482971
1.994460205078125,-1.2984592638373371,-0.4947393274307251,-19.104373157262803,-0.2439464777708053,-1.1960053443908691,-0.4042461812496185
2.004486328125,-0.416250604866445,0.997964013003558,-20.73644244441986,0.1032440662384033,-1.2755653858184814,-0.1750153601169586
2.01451220703125,-0.5497015553917736,1.2768211402639746,-21.091588592243195,0.2653757035732269,-1.4639840126037598,-0.0639932379126548
2.024538330078125,-1.5857902049325403,1.0263299835272133,-20.631078866672517,0.1699995994567871,-1.644195318222046,-0.0159486178308725
2.034564208984375,-2.89355695694983,0.098659184737876,-20.27766056555509,-0.0168773457407951,-1.624837875366211,0.0371148660778999
2.044590087890625,-3.518621284905076,-1.128297123769298,-20.486753397846226,-0.1167258024215698,-1.2455201148986816,0.0989623889327049
2.054616455078125,-3.297211991876364,-1.349783208361268,-21.035860275280477,-0.1010802611708641,-0.534839391708374,0.1963081210851669
2.064642333984375,-2.459509706369042,-0.5953908915622159,-20.696910059976577,0.0664932653307914,0.2422697395086288,0.4420167803764343
2.07466845703125,-0.7437960674501956,0.3076119509711861,-18.640087420284747,0.3098108470439911,0.9228232502937316,0.7287569046020508
2.0846943359375,0.6248739199496806,0.5467755484098569,-15.014484016519784,0.5092824101448059,1.318212628364563,0.8879395723342896
2.094720458984375,1.096083318711072,0.0289406651390716,-10.005131421905755,0.5733585953712463,1.3620094060897827,0.8201240301132202
2.104746337890625,1.2739255649529395,-0.8809687419123947,-4.311824503472447,0.4755697548389435,1.072433352470398,0.5466859936714172
2.1147724609375,1.293900723750144,-1.581143548170477,1.1205308006167412,0.2857881188392639,0.5786420106887817,0.2024010717868805
2.12479833984375,1.3343689277388155,-1.6430544992908835,5.234311689078807,0.0718974620103836,0.052595030516386,-0.0931104123592376
2.13482421875,1.44557071012035,-1.041520538396388,7.873584672880172,-0.1200442835688591,-0.3935576975345611,-0.2569533884525299
2.144850341796875,1.677229740615189,-0.0140628660134971,9.472239181691409,-0.3265070021152496,-0.6857192516326904,-0.2303483039140701
2.154876220703125,2.2092906445719303,1.234497663797438,10.55546696435213,-0.5027433037757874,-0.8578910231590271,-0.1069917604327201
2.164902587890625,2.3350730332307514,1.9971803641557693,10.713349833887817,-0.5783436298370361,-0.774209201335907,0.0505655221641063
2.17492919921875,2.073372061824053,1.9465717282943429,9.673028296017646,-0.5039365291595459,-0.5047069191932678,0.2248654216527938
2.184955322265625,2.005701816524565,1.490401785493642,8.627815478974581,-0.2644943594932556,-0.0772087946534156,0.3349647521972656
2.194981201171875,1.758675267158449,1.2097713649503885,7.864380791205167,0.0602395199239254,0.3707775175571441,0.3639878928661346
2.20500732421875,1.228787907848507,1.1778850382808594,7.8850489007025955,0.3422081768512726,0.643674910068512,0.3627236485481262
2.215033203125,1.1910472291275858,1.3335858145371078,9.028601095944644,0.509431004524231,0.6525189876556396,0.3161079585552215
2.22505908203125,1.0651266010418534,1.6924097740903497,10.623963577473162,0.5458495020866394,0.465378075838089,0.2021667212247848
2.235085205078125,0.6122011931203305,1.919381961943209,11.923816341495511,0.4454720318317413,0.1894953548908233,0.0741602703928947
2.245111328125,0.4801880933783948,2.116266031654924,12.752785285449027,0.2466650307178497,-0.0852312445640564,-0.0370289459824562
2.255137451171875,0.4308130909651517,2.250566365551203,12.789294522678851,-0.0164488870650529,-0.3005003929138183,-0.0951108932495117
2.265163330078125,0.4132169362589716,2.4203984699472785,12.20461831921339,-0.2463852018117904,-0.4139499962329864,-0.1101130023598671
2.275189453125,0.5422342151857912,2.476661332178116,11.07615672559738,-0.3598835468292236,-0.3512243032455444,-0.1340090185403823
2.28521533203125,0.3669152038112283,2.281376660487056,9.385001627743245,-0.3311187326908111,-0.1384110152721405,-0.131074383854866
2.295241455078125,0.1533228681437671,2.1896762819111344,7.762650601524114,-0.1918562054634094,0.1865609437227249,-0.0685481578111648
2.305267333984375,0.445887325978279,2.215711325269192,6.633521483910084,-0.0058845500461757,0.529627799987793,0.0193306040018796
2.315293212890625,0.6801905873715877,2.166065835351497,6.045205462637544,0.1600053459405899,0.863682746887207,0.0944133624434471
2.3253193359375,0.6332828518547118,1.975830994395912,5.87851793987751,0.2595804333686828,1.1358270645141602,0.1537176072597503
2.33534521484375,0.4902951344382018,1.6868188222154974,6.131441146066784,0.2804188728332519,1.3292739391326904,0.1895030289888382
2.345371337890625,0.4989657129541039,1.2402544737584889,6.723125182467698,0.2367714941501617,1.3961906433105469,0.1864711195230484
2.3553974609375,0.3965103508036583,0.782024091296643,7.52384535253644,0.1366968303918838,1.3419833183288574,0.1312227845191955
2.365423583984375,0.2655797856014222,0.1602162809193134,8.313753621211648,0.0106072751805186,1.166461706161499,-0.0035049179568886
2.375449462890625,0.0866644302353262,-0.6302022023003548,8.933522180846333,-0.1232040449976921,0.8762016296386719,-0.2380300760269165
2.385475341796875,-0.2982627425413579,-1.207087313498184,9.166717773258686,-0.2864095568656921,0.5817464590072632,-0.5219659209251404
2.39550146484375,-0.5838981682976707,-1.745418749091774,8.876600854706764,-0.4638847410678863,0.4082798957824707,-0.7548327445983887
2.40552734375,-0.4630146575963124,-2.042692115269601,8.11397105357945,-0.6055049300193787,0.3111841082572937,-0.9091503024101256
2.415553466796875,-0.0845666177058592,-1.958890380989015,6.97851624007523,-0.6474044919013977,0.2053940445184707,-0.9723103642463684
2.425580078125,0.219768211290799,-1.779821953953057,5.454985069048404,-0.5624931454658508,-0.0273282378911972,-0.9677084684371948
2.435606201171875,0.2599961402501911,-1.909066611894965,3.617740999826789,-0.3533084988594055,-0.3411628603935241,-0.9199747443199158
2.44563232421875,0.1804917378373444,-1.983982444408536,1.1518243490248918,-0.0819837749004364,-0.7090286016464233,-0.8706363439559937
2.455658447265625,0.3287275119751691,-1.8177420808941125,-1.5250632028996944,0.1571068316698074,-1.215431809425354,-0.9092617630958556
2.465684326171875,0.0813606247387826,-1.5901790875412525,-4.471790609022975,0.1950170993804931,-1.8946020603179927,-1.0975687503814695
2.47571044921875,-0.7670156880613416,-1.6510687327899038,-7.663957587581873,-0.158102348446846,-2.5662760734558105,-1.4095817804336548
2.485736328125,-2.177164883123338,-2.262548333637416,-10.871019937455651,-0.8816990256309509,-3.0371556282043457,-1.682536005973816
2.49576220703125,-3.5569255888581277,-3.2372657649576664,-14.0743775875926,-1.5604393482208252,-2.8374581336975098,-1.720186471939087
2.505788330078125,-4.321985832002759,-3.6873236546188592,-18.14887275984883,-1.7432658672332764,-1.9821975231170652,-1.4630277156829834
2.515814208984375,-4.113910067799687,-2.693632350498438,-22.618815695178508,-1.3422361612319946,-0.9493688344955444,-0.9535338282585144
2.52584033203125,-2.9381013243362304,-0.2302055620172061,-25.19244219459295,-0.527917206287384,-0.2657203674316406,-0.3529017567634582
2.5358662109375,-1.5382191832013428,1.9495292629256844,-24.7650468031168,0.308294802904129,-0.0850696265697479,0.0884181037545204
2.545892333984375,-2.092799669741094,2.483117960971594,-22.15711120686531,0.840583324432373,-0.25339475274086,0.399511307477951
2.55591845703125,-3.266160143269598,1.166767870330438,-18.805349294155835,0.9748769998550416,-0.5084651112556458,0.7012653350830078
2.5659443359375,-3.493814175906777,-0.3619942601524293,-15.93444197590947,0.8005467057228088,-0.6127069592475891,0.923529088497162
2.575970458984375,-3.765101890826225,-1.3265860187776386,-14.175198261213302,0.5274973511695862,-0.4573279917240143,0.9934873580932616
2.585996337890625,-4.115827884119748,-2.1428611931137738,-13.517789999014138,0.356850802898407,-0.0738070011138916,0.9087849855422974
2.5960224609375,-4.103502655553817,-2.9004809109941125,-13.001749524879456,0.2930297255516052,0.4178197085857391,0.6411136388778687
2.60604833984375,-3.743022160965204,-3.412267234815657,-11.265167723846435,0.2544921338558197,0.8937142491340637,0.2368724346160888
2.616074462890625,-3.088696082690358,-3.462701829284429,-8.126367009294032,0.23300202190876,1.1760077476501465,-0.1591739654541015
2.626100341796875,-1.669918833079934,-2.833259432375431,-4.080224655818939,0.2109690606594085,1.2188081741333008,-0.4411509335041046
2.636126220703125,-0.0027767712369561,-1.4298936869084835,0.2830617393434047,0.1100949123501777,1.060766100883484,-0.5389744639396667
2.64615283203125,1.3888286860704422,0.2790499098861589,4.340439188060164,-0.0520611628890037,0.7473004460334778,-0.4379741549491882
2.6561787109375,2.4073348441042004,1.358387955099344,7.285057639205456,-0.2147046625614166,0.4811193943023681,-0.2494985312223434
2.666204833984375,2.864224187220633,2.0163157111279664,8.936648203912377,-0.2636052072048187,0.2580754458904266,-0.020656544715166
2.676232177734375,2.9620947788640857,2.40093900558725,9.488017765581608,-0.1389093399047851,0.142850860953331,0.2401303052902221
2.686258056640625,3.0359830218955874,2.264508820055425,9.254729234188794,0.1260044872760772,0.1592608243227005,0.4589535295963287
2.696283935546875,2.8047575605124235,1.8495193211659788,8.666658127588033,0.4326115548610687,0.2686885297298431,0.5895426869392395
2.70631005859375,2.4994182306483386,1.5492182777300476,8.195722285071016,0.6575410962104797,0.4580326676368713,0.5520423054695129
2.7163359375,1.6789347909674048,0.7763599280551076,7.972643013003468,0.7003713846206665,0.6474207043647766,0.3888834714889526
2.726362060546875,1.21095297595039,0.2344615206949412,8.22189659076929,0.5526595711708069,0.7682984471321106,0.1890031993389129
2.736387939453125,1.2215703776851297,0.3428329750213771,8.914071630445122,0.3108341693878174,0.7937731742858887,0.0375148765742778
2.7464140625,1.382650728087872,0.6899348595336079,9.426482808166742,0.0758793801069259,0.7897709012031555,-0.001498814439401
2.75643994140625,1.780197217006236,1.2262813318550585,9.56524304408133,-0.0846474468708038,0.7566105723381042,0.0499044544994831
2.7664658203125,1.9612404512465,1.83907815278098,9.351333166897296,-0.1437059491872787,0.7460781335830688,0.1237360760569572
2.7764921875,1.499303761612624,2.1426928508095444,8.877866344597935,-0.1272792965173721,0.7379847764968872,0.2135285437107086
2.78651806640625,1.1490849871888755,2.099087079447508,8.704657895636558,-0.0699452906847,0.6937122344970703,0.2478416264057159
2.796544189453125,0.521065535755083,1.9997073984153568,8.63341110702455,-0.0249469261616468,0.5744947791099548,0.2543213367462158
2.806570068359375,0.1058370404779911,1.9415435248687865,8.90713861631155,-0.0181855335831642,0.4322638213634491,0.282452642917633
2.81659619140625,0.1014144017301499,1.8678434978857636,9.180450530534982,-0.0685576274991035,0.308048665523529,0.303676962852478
2.8266220703125,-0.0931963892873376,1.5589548049770294,9.223131734398008,-0.1473592072725296,0.2230204492807388,0.2903973758220672
2.83664794921875,-0.1878547408860176,1.121928538585454,9.071006405475735,-0.2251442819833755,0.2440333217382431,0.2575454115867615
2.846674072265625,-0.1285637630056589,0.7290414197802543,8.712048590409756,-0.2767970860004425,0.3299362659454345,0.2053006738424301
2.85669970703125,-0.2542075469113886,0.2112773001907393,8.396084698417782,-0.2824456393718719,0.4541242718696594,0.118940494954586
2.866725830078125,-0.3834273261403664,-0.2591822665840387,8.255285065630078,-0.2790749371051788,0.5681883096694946,0.0036962893791496
2.876751708984375,-0.5687437807204202,-0.5698025325257331,8.425264031150936,-0.2775487005710602,0.6258971691131592,-0.1103818118572235
2.886778076171875,-0.6416277786128223,-0.6936014192171395,8.791275271859764,-0.2940919995307922,0.6116102337837219,-0.2089366912841797
2.896803955078125,-0.652846214980632,-0.5821529685981571,9.170741037425396,-0.2783530056476593,0.4898246526718139,-0.2653166055679321
2.9068310546875,-0.574823283297196,-0.3499717043275013,9.2347450153023,-0.2341705858707428,0.3802194893360138,-0.2200497239828109
2.91685693359375,0.0038982860801741,-0.0908208923276513,8.919209577855467,-0.180165410041809,0.3028109967708587,-0.1502823680639267
2.926883056640625,0.3157430523155257,-0.2335137732497416,8.451063073796034,-0.1300986856222152,0.2753924429416656,-0.124589093029499
2.936908935546875,0.166322397508379,-0.5955442920256405,7.753387683138251,-0.0519860461354255,0.2412382066249847,-0.0697428882122039
2.946934814453125,0.5888825691141187,-0.9187159965045748,6.56567895078361,0.1128255873918533,0.1789881289005279,0.0499115996062755
2.9569609375,1.4342938215635717,-1.007613738749921,4.80466647284925,0.3514900803565979,0.0651955157518386,0.1363349109888076
2.966987060546875,1.6201299891687928,-1.0422278829481453,2.575686939075589,0.6438875198364258,-0.3746087849140167,0.1693406999111175
2.97701318359375,1.6749050970599055,-1.4783625342622395,-0.2489215693324804,0.8307647705078125,-0.9453327059745787,0.0526218153536319
2.9870390625,1.040220123322308,-2.3671152080491185,-3.4530858596771954,0.6905600428581238,-1.2572466135025024,-0.2932441830635071
2.997065185546875,-0.7144587676763534,-3.6513492549180975,-6.776972507989406,0.2470542788505554,-1.3396238088607788,-0.5523132681846619
3.007091064453125,-0.8347569527704268,-4.776417406703532,-9.812288298147916,-0.2312556356191635,-1.2652498483657837,-0.5111815929412842
3.017116943359375,0.6084881639465689,-4.799463643509149,-12.686487643676996,-0.4245350956916809,-1.0387901067733765,-0.3816336691379547
3.02714306640625,0.0315960384860634,-4.4435888891503215,-16.293673931741715,-0.2452795207500457,-0.7110320329666138,-0.3155684769153595
3.0371689453125,-1.1154838194254786,-4.028082380649448,-19.461350027644635,0.210811585187912,-0.3173637688159942,-0.3016428053379059
3.047195068359375,-1.4275411324329674,-2.6030720818683504,-21.01576441271305,0.650955080986023,-0.2666009664535522,-0.3093538880348205
3.057220947265625,-1.7543864839233456,-0.4236581777092069,-19.94153476002216,0.8392688035964966,-0.6936835646629333,-0.3527144193649292
3.0672470703125,-3.1845857296496627,0.7480984408192336,-18.072815940606592,0.7213525772094727,-1.2991889715194702,-0.2442777901887893
3.077273193359375,-4.151978224909305,0.6159995624899863,-17.07064380838871,0.4456379413604736,-1.7209705114364624,0.0755316317081451
3.087298828125,-4.407515120728314,0.455521634959802,-17.72306142269373,0.1388931423425674,-1.641982913017273,0.4697220027446747
3.097324951171875,-4.601867187744379,0.7009387033026665,-19.422953953754902,-0.0408718287944793,-0.9768753051757812,0.8110825419425964
3.107350830078125,-4.562034066788852,0.6756184571504592,-21.14455095162392,0.0041133998893201,0.0045245857909321,1.1077425479888916
3.117376953125,-3.749961604839563,0.1463699802659452,-21.281551192128656,0.1935211420059204,0.9202224016189576,1.3465371131896973
3.12740283203125,-2.411806144299358,-0.3833469178479164,-18.77378745020032,0.3931412100791931,1.630257487297058,1.4459846019744873
3.137428955078125,-1.278968965947628,-0.708652857876569,-14.378293898916244,0.5035949945449829,2.0000455379486084,1.3895766735076904
3.147455810546875,-0.5873454226747155,-1.2856358764909208,-8.98403071733415,0.5305843353271484,1.8873167037963867,1.1892633438110352
3.15748193359375,-0.2258020480949431,-2.1273745779074726,-3.449748239687085,0.4956240057945251,1.4378560781478882,0.8299522995948792
3.167508056640625,-0.5414371465239673,-2.894396038122475,1.2779238408088682,0.3892722129821777,0.8766200542449951,0.3690671026706695
3.1775341796875,-0.972892042523995,-3.267615310513973,4.643711356261372,0.2242022901773452,0.2771510779857635,-0.0599127635359764
3.18756005859375,-0.9389259869709612,-2.8802994159698483,6.896224325835704,0.0231028478592634,-0.1946860998868942,-0.4057808220386505
3.1975859375,-0.7877696492113172,-2.010426214697957,8.016722393226623,-0.1960614472627639,-0.4704838693141937,-0.5817840695381165
3.207612060546875,-0.366427493359521,-0.8869435054730623,8.225013261485099,-0.3891737461090088,-0.5750209093093872,-0.5704876780509949
3.217637939453125,0.2229771268673241,0.2340038400553167,8.034438082659245,-0.4461318552494049,-0.4760143756866455,-0.4563520550727844
3.2276640625,0.5491857878893613,0.9636428604025392,7.468799172618985,-0.3345431983470917,-0.2166786938905716,-0.3003688156604767
3.23768994140625,0.7509376097679138,1.481976925367117,7.003232748180627,-0.1342159658670425,0.1026937067508697,-0.123402290046215
3.247716064453125,0.9980470881771296,1.989731509454548,7.194648469483852,0.0582881979644298,0.3818689882755279,0.0683170035481453
3.257741943359375,1.3845721976697445,2.3642776465356348,8.046110400274396,0.1852693259716034,0.5733172297477722,0.2359025329351425
3.267767822265625,1.672707002493739,2.4809698430269957,9.146838768312335,0.2328478544950485,0.6514549255371094,0.3536973893642425
3.277794189453125,1.6306667268827555,2.349027470433712,10.16353568496704,0.207440510392189,0.5953924059867859,0.4216184020042419
3.287820068359375,1.592896091414988,2.077713452029228,11.070714826804398,0.1520471572875976,0.4359703660011291,0.4315986335277557
3.29784619140625,1.4554577517539262,1.7805375548765063,11.581247935694456,0.0873155668377876,0.2458808720111847,0.3799668550491333
3.3078720703125,1.2066961222235113,1.4298650453358888,11.508270377767085,0.022663690149784,0.0762845873832702,0.2617749571800232
3.317898193359375,0.8813042574770749,1.142693605651334,11.09538866481185,-0.0553293749690055,-0.0743893459439277,0.1000177264213562
3.327924072265625,0.6159981742504984,1.061652056799084,10.658145248538254,-0.1400911062955856,-0.1796156018972396,-0.0312603078782558
3.33794970703125,0.6023609863031655,1.2748168147042394,10.173108984476327,-0.2284505367279052,-0.1851208806037902,-0.0886242687702179
3.347975830078125,0.7950827487036586,1.5607146542564034,9.57883843871355,-0.2860620319843292,-0.1143583059310913,-0.0613355338573455
3.358001708984375,1.0899185124710202,1.892179920632392,8.879149370145797,-0.2808270752429962,0.0103298295289278,0.0342804715037345
3.36802783203125,1.312090898826718,2.2692793954581023,8.149139397594332,-0.185363695025444,0.1833827793598175,0.1694080382585525
3.378054931640625,1.2533224835157393,2.3514178727015853,7.456403216904401,-0.0310668013989925,0.3959434926509857,0.2826879918575287
3.3880810546875,0.8624326029423623,2.036805833709985,6.999332233610748,0.0968834832310676,0.5382329821586609,0.3313460946083069
3.39810693359375,0.3130072706760838,1.63406674458459,7.17613198506236,0.1379728615283966,0.6207238435745239,0.2906817495822906
3.408133056640625,-0.337692214599438,1.2641833386175334,7.617316247916221,0.0932997092604637,0.6361880898475647,0.2135452926158905
3.418158935546875,-0.8079664879351854,0.9401433999367058,8.063330999666452,-0.0072388784028589,0.593946635723114,0.1411217004060745
3.42818505859375,-0.9308515477173028,0.6616456075079739,8.4129504930228,-0.1016688272356987,0.5374719500541687,0.0655808076262474
3.4382109375,-0.9410677482400088,0.4443181769654155,8.444457391920686,-0.1675311923027038,0.4856857061386108,-0.0191143695265054
3.44823681640625,-1.066196714491397,0.1776377366457134,8.20397339606583,-0.2031179070472717,0.4303975701332092,-0.1042526215314865
3.458262939453125,-1.1701561245292424,-0.0591346182748675,7.874418201094866,-0.1933797895908355,0.3604251444339752,-0.2188228815793991
3.468288818359375,-1.5318696680441497,-0.296684168113023,7.2869859769195315,-0.1379185765981674,0.2147914469242096,-0.2932337820529938
3.478315185546875,-1.480329012029618,-0.3646757908539846,6.34034868491888,-0.009782176464796,-0.040249366313219,-0.2696719765663147
3.488341064453125,-0.9007532004430888,-0.2570274997029453,4.550320540380477,0.2114182561635971,-0.3890588581562042,-0.1541512757539749
3.4983671875,-0.2037763134434819,0.119781321613118,1.824604367879033,0.5003461837768555,-0.7980165481567383,-0.0354954712092876
3.50839306640625,0.0299949964975938,0.3685980423316359,-1.944205145293474,0.7908456325531006,-1.1807420253753662,-0.0700761526823043
3.518419189453125,-0.9750520701020956,-0.1349589439354837,-6.707914169332384,0.8565322160720825,-1.2865194082260132,-0.296966016292572
3.528445068359375,-2.7866964186429977,-1.1562005913477391,-10.98701246124506,0.5253521203994751,-1.1145192384719849,-0.4872963428497314
3.538470947265625,-3.688297175826132,-1.981200120213628,-13.75770233246088,-0.0610834248363971,-0.7104314565658569,-0.425271600484848
3.5484970703125,-3.2157398695871238,-2.379833527585864,-15.430810901492832,-0.4202717542648315,-0.3934920132160187,-0.1396882236003875
3.55852294921875,-2.043256471154093,-2.234523139375448,-17.05372306872606,-0.3271055817604065,-0.3882349133491516,0.0785618275403976
3.568549072265625,-1.721978982923925,-1.6081567889109254,-18.498759379708765,-0.026607783511281,-0.458296000957489,0.1186827048659324
3.578574951171875,-2.0464944301620123,-1.074845008110255,-18.66110682743788,0.2543679773807525,-0.6092621088027954,0.1143835633993148
3.58860107421875,-2.128728476734459,-0.966986471742019,-18.042796065396068,0.4313141107559204,-1.0056194067001345,0.1198323294520378
3.598626953125,-3.166067783923447,-1.685493711091578,-17.204184848350284,0.3972829282283783,-1.4525636434555054,0.1880801022052765
3.608654052734375,-4.292688425847888,-3.089352500772476,-15.792285083293914,0.1728320121765136,-1.7531795501708984,0.2715241909027099
3.618679931640625,-5.000121824932098,-4.588734149926901,-15.057763186275958,-0.1231266632676124,-1.8045074939727783,0.262035071849823
3.628705810546875,-5.258952793860435,-5.587509040921926,-14.946091448295116,-0.2396599650382995,-1.4509084224700928,0.1801102310419082
3.63873193359375,-4.706708787444233,-5.478805505096912,-15.943947470879554,-0.0315051600337028,-0.8076170086860657,0.1374378651380539
3.64875732421875,-3.165771431325376,-4.138255989027023,-16.847744569063185,0.3733928501605987,-0.1003933101892471,0.205219566822052
3.658783447265625,-1.0102898260913789,-2.4114590844273565,-15.611808104634283,0.723233163356781,0.463352620601654,0.3134943842887878
3.668809326171875,0.6559969340965152,-1.1576796509243548,-12.138043614065646,0.8331509232521057,0.7003213167190552,0.3518495261669159
3.67883544921875,1.570251859539002,-0.6852872529234737,-7.474372588837146,0.7123842835426331,0.5945680141448975,0.2456322759389877
3.688861328125,1.8889605201944708,-0.7284693920459598,-2.980247982931137,0.4553303718566894,0.3876271247863769,0.0319684967398643
3.698887451171875,2.039688841800392,-0.5473659520510584,0.2934948705524206,0.2031686902046203,0.143973171710968,-0.1394900679588318
3.70891357421875,2.3913529927268624,0.3489933973472565,2.517189741921425,0.0037155654281377,0.0170222353190183,-0.1736715286970138
3.718939453125,3.1940292652994398,1.8310026906140149,4.103333728727698,-0.1216386333107948,-0.0322632864117622,-0.0833195224404335
3.728965576171875,3.3336119235128163,3.1262562902778384,4.977798933964968,-0.1604390889406204,0.0089874789118766,0.0914751291275024
3.738991455078125,3.0989690549016,3.4437586438834664,5.527062463265657,-0.1462364494800567,0.1383561193943023,0.2540134489536285
3.749017578125,2.4059018886916337,3.0630370330378414,6.230618144133687,-0.1116935610771179,0.2877131402492523,0.2972739934921264
3.75904345703125,1.104619968649,2.450586687462032,7.055364501956105,-0.1230548694729805,0.4126398861408233,0.2952907383441925
3.7690693359375,0.295208104211092,2.4806974558264017,8.163554291915894,-0.19602632522583,0.5157296657562256,0.310226172208786
3.779095458984375,0.0183088330201804,2.728943317854404,9.108193688097597,-0.2948921918869018,0.6151694059371948,0.3747196793556213
3.789121337890625,0.0449358509220182,2.883117396000028,9.880593188089131,-0.3648038804531097,0.6490099430084229,0.4769412279129028
3.7991474609375,0.5400771832823753,2.9626994667589663,10.643934352356196,-0.3708300590515136,0.6229104399681091,0.5551252365112305
3.809173583984375,0.7927667268462478,2.8034201744288203,11.02863743405342,-0.3086380064487457,0.5513882637023926,0.5885830521583557
3.81919970703125,0.8553454942256212,2.431751054088771,11.105444779402015,-0.2252328395843505,0.4600780606269836,0.5706900358200073
3.829226318359375,0.8621133809253573,1.832055268406868,11.04117192145586,-0.1696823239326477,0.3556571006774902,0.5054352283477783
3.83925244140625,0.8269985206633805,1.2998001570522784,10.926802030432224,-0.1797259002923965,0.257900983095169,0.4196444749832153
3.8492783203125,0.906705240715295,0.9575383329823612,10.721667580378057,-0.2333572804927826,0.2005930840969085,0.3161190152168274
3.85930419921875,0.9355891706984488,0.6614918782509863,10.380119749796387,-0.2851709425449371,0.1715475767850875,0.2056939601898193
3.869330322265625,1.004024482086301,0.4877911887932568,9.867732537472248,-0.3082609474658966,0.1754468530416488,0.1278901100158691
3.879356201171875,1.2696738988578318,0.5929022530842573,9.251709594106671,-0.2829108536243438,0.202836126089096,0.0791225656867027
3.88938232421875,1.5433753969207404,0.4938027041677385,8.662464767551421,-0.2300250381231308,0.258188933134079,0.007392284926027
3.899408447265625,1.5629951664090156,0.2483699998643249,8.188225207313895,-0.1779208183288574,0.3388084173202514,-0.0954179838299751
3.9094345703125,1.343817724085599,0.1181848462019115,7.8358590455979105,-0.1508670449256897,0.3770794570446014,-0.2024898529052734
3.91946044921875,1.028987366168201,0.0608357231043279,7.859313570943474,-0.1484622061252594,0.3459910452365875,-0.3152057528495788
3.929486572265625,0.5457627546381205,0.025395722541213,8.065746244114637,-0.1696774065494537,0.3094985485076904,-0.4302846193313598
3.939512451171875,0.0755660400506108,0.1471515590976923,8.26563344116509,-0.2396839261054992,0.2784090638160705,-0.5100972056388855
3.949538330078125,-0.2399290653858333,0.3859071967899799,8.405794776049255,-0.3288866877555847,0.2867505550384521,-0.5198462605476379
3.959564453125,-0.0923750629670917,0.6386514662157744,8.443877546206116,-0.3868610560894012,0.3272964060306549,-0.5026033520698547
3.96959033203125,-0.3039976329315453,0.6258363352410495,8.241816512247919,-0.378037542104721,0.358713835477829,-0.4759898781776428
3.979616455078125,-0.5065632554110139,0.4532130292238667,7.963024705308675,-0.33452308177948,0.3905348777770996,-0.4638184309005737
3.992149658203125,-0.5635274708442389,0.3494885969856753,7.777620791640877,-0.279673159122467,0.2689610421657562,-0.4894899725914001
4.002175537109375,-0.5578882228482515,0.2383843566944822,7.706974891531467,-0.2986785471439361,0.0792899280786514,-0.500946581363678
4.01220166015625,-0.2638093418627977,0.2205329120529815,7.380248782506585,-0.3326655030250549,-0.190391719341278,-0.5034658908843994
4.0222275390625,-0.1402341078594327,0.2963072245594114,6.319765331095457,-0.3123069703578949,-0.4731020033359527,-0.4942058026790619
4.032253662109375,-0.0260682880405336,0.3389290994506329,4.302210287430882,-0.2151882350444793,-0.7941568493843079,-0.494898647069931
4.0422802734375,0.1890192546207457,0.5016880505900829,1.3513631710290908,-0.0637081637978553,-1.1814302206039429,-0.5015727281570435
4.052306396484375,0.5598950326260179,0.614869243285805,-2.352856088811159,0.0503716431558132,-1.4578670263290403,-0.5080372095108032
4.062332275390625,1.1669183847170324,0.7216701603598892,-6.462223837006092,0.0614940673112869,-1.4984794855117798,-0.5164171457290649
4.072358154296875,0.3043020957708358,0.3572578062150627,-10.740207445675134,-0.1096406877040863,-1.3398936986923218,-0.5011385679244995
4.082384521484375,-0.9236952462218702,-0.2242637691443786,-14.43036778502464,-0.3999950289726257,-1.0183987617492676,-0.4469618797302246
4.092410400390625,-2.3453096189543605,-1.065671959964931,-16.914171974694728,-0.6002382040023804,-0.5908868312835693,-0.3465650677680969
4.1024365234375,-3.8485321614459154,-2.067446909558773,-18.912040905636548,-0.6137588024139404,-0.0570476427674293,-0.1733229905366897
4.11246240234375,-4.420672123943269,-2.592267779259384,-19.82283005466461,-0.3795990645885467,0.4730220735073089,0.0989255681633949
4.122488525390625,-2.8461536930009723,-1.3798542292371392,-19.597997216928004,0.0548516772687435,0.5535856485366821,0.3268841803073883
4.132514404296875,-1.0819679918579757,0.4383557614296674,-18.41161885639429,0.4441982209682464,0.2191700190305709,0.3922950327396393
4.14254052734375,-1.4696039121367035,0.2764312883529812,-16.536063468956947,0.558972179889679,-0.1686296463012695,0.3231766819953918
4.15256640625,-2.5886004889234897,-1.9976108645275237,-14.881644402825833,0.3842693269252777,-0.5558567643165588,0.2327286303043365
4.16259228515625,-2.965690173007548,-3.5349002195328474,-13.867452162468432,0.0892667025327682,-0.8051558136940002,0.0928183943033218
4.172618408203125,-3.263855665719509,-3.760515732079744,-13.957452166867256,-0.1432750970125198,-0.8688348531723022,-0.0616195797920227
4.182644287109375,-3.7573283342152832,-3.8085330362737175,-14.672480258864164,-0.24757781624794,-0.7053870558738708,-0.1827515959739685
4.192670654296875,-3.283964095507562,-3.149429952855408,-15.121256292021274,-0.2187148630619049,-0.2843259274959564,-0.224541962146759
4.202696533203125,-2.526919693297148,-1.7737202760770916,-15.059396340435743,-0.0745715349912643,0.2571216225624084,-0.1339406818151474
4.21272265625,-1.3846955317884684,-0.388048008210957,-13.876414052081108,0.1408603936433792,0.7462693452835083,0.0293276719748973
4.22274853515625,-0.2810501072600483,0.4710476323284208,-11.35919040789008,0.3184937834739685,1.0200161933898926,0.2021212875843048
4.2327744140625,0.3472011801682412,0.8836205715954303,-7.643244469898939,0.4062869250774383,1.0345027446746826,0.3044214844703674
4.242800537109375,0.5475168317638337,0.5892979815145954,-3.396294881919026,0.4069649875164032,0.8713297843933105,0.3245017230510711
4.2528271484375,0.4438014596149325,0.0219957048393785,0.430646502226591,0.3181121051311493,0.665213942527771,0.2971399426460266
4.262853271484375,0.150611271097511,-0.2459878539681434,3.485044593995809,0.1881594210863113,0.4550878703594208,0.276741474866867
4.272879150390625,0.0806254423320293,-0.2045330500949174,5.672337195640802,0.0692728906869888,0.3158681094646454,0.2560345530509949
4.282905517578125,0.0584607376012951,0.0494582237172871,7.006292135751247,-0.0051744389347732,0.2636512517929077,0.2266353815793991
4.292931396484375,0.0314723390411585,0.0001087210714817,7.55071991545856,-0.0531812496483325,0.257032185792923,0.1742575019598007
4.30295751953125,0.005680310658738,-0.2852021123729646,8.0562664681077,-0.0952464118599891,0.2765864431858063,0.0821310430765152
4.3129833984375,0.0848787158623337,-0.5166997052283957,8.563530930590629,-0.1478181630373001,0.3491668105125427,-0.037572581321001
4.323009521484375,0.1514532748796045,-0.4125441880965605,9.036610214877127,-0.2140208929777145,0.431671530008316,-0.127807930111885
4.333035400390625,0.3435674998410046,0.1270664736526086,9.675011578789352,-0.2836157083511352,0.4854605197906494,-0.1285537928342819
4.343061279296875,0.7784362228725105,0.7323720255076884,10.47805288528204,-0.2959565222263336,0.4656774997711181,-0.0730926617980003
4.35308740234375,1.266615095809102,1.2228180396586656,11.077936010229587,-0.2339317947626114,0.4263831377029419,-0.0242073163390159
4.36311328125,1.3488470965549348,1.503086641152203,11.271548364794254,-0.1362635493278503,0.3791964650154114,0.0123176705092191
4.373139404296875,1.4048539381980896,1.5000591100245713,11.253984651052953,-0.049229584634304,0.2847744226455688,0.0272709727287292
4.383165283203125,1.4287621986605226,1.2906339770391582,11.255780302298067,-0.0125370826572179,0.1527785807847976,0.0322161950170993
4.393191650390625,1.4376779110439122,1.274114219392836,11.22030683785677,-0.028292478993535,0.0510927960276603,0.0321648381650447
4.403218505859375,1.345320091472566,1.161088290324062,10.80396358627081,-0.0880777761340141,0.0117770805954933,0.0013225034344941
4.41324462890625,1.0925316906441005,0.8174161610648035,10.081321512138842,-0.1479613631963729,0.040036417543888,-0.0730683803558349
4.4232705078125,0.6376881010763347,0.4241297407437115,9.22249051388502,-0.1812958866357803,0.0820062309503555,-0.1509325355291366
4.433296630859375,0.5264517588380724,0.2987578691145405,8.492580494576693,-0.1845694780349731,0.1371953040361404,-0.2068350315093994
4.443322509765625,0.6128519121140241,0.4176770574729889,7.809819179934263,-0.1919267177581787,0.248403325676918,-0.268098384141922
4.453348388671875,0.4169589723315089,0.4593497053479775,7.283159696629643,-0.2166019529104232,0.3750480115413666,-0.3305464088916778
4.463374267578125,0.0870174083914607,0.4527485900498926,7.146295649725198,-0.2618311941623688,0.4668538272380829,-0.3612542450428009
4.473400146484375,-0.1782807107243686,0.5936795210670679,7.417627203786373,-0.3303300440311432,0.4944641888141632,-0.3416042327880859
4.483426513671875,-0.2779696769014,0.918968656091392,8.00303756674528,-0.4106493890285492,0.4338578283786773,-0.2836146950721741
4.493452392578125,-0.3435254507975652,1.217712167887017,8.610430628931521,-0.4560877680778503,0.3335963785648346,-0.2148502767086029
4.503478515625,-0.5433711467938497,1.329173258791864,8.884598283201456,-0.4407314360141754,0.2337291836738586,-0.1712018549442291
4.51350439453125,-0.938116058827564,1.3008235087506472,8.647886791622637,-0.4083520174026489,0.1468060165643692,-0.1220732629299163
4.5235302734375,-1.2612182052016256,1.0857105393871664,8.215958432891965,-0.4210278391838074,0.0523127913475036,-0.0914050936698913
4.533556396484375,-1.2562201046533883,0.777318324758485,7.879397743073105,-0.5035628080368042,-0.0428663976490497,-0.1323547065258026
4.543582275390625,-1.544645416856557,0.4667212204966693,7.511057182633876,-0.5938056111335754,-0.1417181491851806,-0.1755391955375671
4.5536083984375,-1.4215109123580156,0.3836095873720944,6.5426639858990905,-0.6607619524002075,-0.401796817779541,-0.2174702584743499
4.56363427734375,-0.8778289825819432,0.588117064634338,5.170519892647862,-0.7087219953536987,-0.949108362197876,-0.3057340681552887
4.573660400390625,-0.5883135370545088,1.0482456088677048,3.670062723216414,-0.7277224659919739,-1.8425841331481931,-0.403104156255722
4.5836865234375,-0.4340071377661079,1.9159312369674444,1.3989561123311518,-0.7256912589073181,-2.821552038192749,-0.5011923313140869
4.59371240234375,-0.9799906955480576,2.917547781129181,-2.3944950901448725,-0.8679935932159424,-3.457322597503662,-0.5115113854408264
4.603738525390625,-2.480282737545669,3.9855730262219904,-7.695570284941792,-1.140472173690796,-3.5899112224578857,-0.3119343817234039
4.613765625,-3.690869364401698,4.638709602451324,-13.602221847891808,-1.3255510330200195,-2.768834114074707,0.0720016583800315
4.62379150390625,-5.074542567405104,4.242334787660837,-19.62874540641308,-1.058773398399353,-1.452586650848389,0.6513318419456482
4.6338173828125,-5.69330399582386,2.9442966718450188,-24.77871058681011,-0.2901265025138855,-0.4813569486141205,1.2091116905212402
4.643843505859375,-4.806470307400822,1.4402373862683773,-27.19360899803638,0.5354150533676147,0.2496131360530853,1.4556516408920288
4.65387060546875,-4.017651295267045,0.4633876190945505,-26.12770995131731,1.0845197439193726,0.5121732354164124,1.3548029661178589
4.663896728515625,-2.8880972302392123,0.0830824070300906,-22.41496485519409,1.233014702796936,-0.0810538530349731,0.9025973677635192
4.673922607421875,-2.608545252582431,-0.8760769512828439,-17.249768203395604,0.9037888646125792,-1.0475467443466189,0.3420575559139251
4.68394873046875,-3.279282075171172,-2.6763538834393024,-12.660578126394748,0.3139269053936004,-1.91228711605072,-0.0617298856377601
4.693974609375,-3.2684614059492945,-3.988336353455484,-10.793322949790952,-0.1625315546989441,-2.2876088619232178,-0.269867867231369
4.704000732421875,-3.1479128262907263,-3.659525839371979,-11.93107610336542,-0.3741572499275207,-2.133960247039795,-0.3736968040466308
4.714026611328125,-3.6478164046168327,-2.6212916291698813,-13.901765935480594,-0.3107713758945465,-1.5320650339126587,-0.3814040124416351
4.724052490234375,-3.7217782974064346,-1.956262224442512,-14.628235458946229,-0.0312052462249994,-0.6130965352058411,-0.3126712739467621
4.73407861328125,-3.4676889700472358,-1.4652765504568814,-13.918974259912966,0.3631113171577453,0.2923221886157989,-0.0935221910476684
4.7441044921875,-2.4882933177828788,-0.8612142401285469,-11.43625494287014,0.7438690662384033,0.8288852572441101,0.2911812961101532
4.754130859375,-0.4589683413475751,0.2723179712826385,-7.280292616760731,1.048829197883606,1.0378273725509644,0.6554230451583862
4.76415673828125,1.1736343220338226,0.8605646171133965,-2.66981249897182,1.1834149360656738,1.081275463104248,0.9020786285400392
4.774182861328125,2.0523095461815597,0.4933924793990328,1.620390539801121,1.1204427480697632,0.9516263604164124,1.0081841945648191
4.784208740234375,2.9129443789869547,-0.2498610238733701,5.2104614424139255,0.8765391707420349,0.7645419239997864,0.8641775250434875
4.79423486328125,3.2323806232646106,-1.28970297979936,7.832227411097287,0.53279048204422,0.5492206811904907,0.5352222919464111
4.8042607421875,3.2452871588498358,-2.348552108006924,9.599182138562202,0.2109682708978653,0.3584485948085785,0.1664714366197586
4.814287841796875,3.832951438215375,-2.909116052870452,10.371922414815426,-0.012172007933259,0.2808200120925903,-0.1314673423767089
4.8243134765625,4.521759924067557,-2.5445462431415917,10.317485891228914,-0.0893517434597015,0.3370513319969177,-0.2757385075092315
4.83433935546875,5.203752884685993,-1.577460475743562,9.681428460094333,-0.0299372673034667,0.5001892447471619,-0.3283126652240753
4.84436572265625,5.314098927021027,-0.6547756486732512,8.949448648774624,0.1177496612071991,0.650511622428894,-0.3335444331169128
4.8543916015625,4.868782678928971,0.2147171749789267,8.704534561517834,0.2822305560111999,0.7387685775756836,-0.2892612516880035
4.864417724609375,4.392838652861118,1.1734507090952246,8.791623062384128,0.4102258086204529,0.7697288393974304,-0.1710821241140365
4.874443603515625,3.8224455340310928,1.7863954871244727,9.011940468522903,0.47600057721138,0.7851316928863525,-0.0368765667080879
4.8844697265625,3.1622718987718224,2.1272401378728447,9.06877996159792,0.460651695728302,0.8323237299919128,0.0920683667063713
4.89449560546875,2.4320551516018805,2.287125433272123,8.931502657717466,0.3958504796028137,0.8584052920341492,0.2237286120653152
4.904521484375,1.7740585681207477,2.116358824504912,8.763522757059334,0.30396768450737,0.8541354537010193,0.3347842991352081
4.914547607421875,1.230093729750067,1.861048430918157,8.696338395580648,0.2066620886325836,0.8188026547431946,0.398951768875122
4.924573486328125,0.6866723506063223,1.5386919152796268,8.541775610378384,0.1270679235458374,0.7987205386161804,0.4118819236755371
4.934599609375,0.1953229578748345,1.1013766758788377,8.218619761055708,0.077677845954895,0.8180691599845886,0.3888896107673645
4.94462548828125,-0.1748572390817105,0.7305513859517871,7.894717477279901,0.0552156865596771,0.834401547908783,0.3690064251422882
4.95465185546875,-0.1909704617537558,0.4837069516869262,7.66720694476664,0.0473516583442688,0.8776693344116211,0.3708766996860504
4.964677734375,0.0100718966811895,0.4301207613194361,7.4759227408885955,0.0363432168960571,0.947382926940918,0.3591862022876739
4.974703857421875,0.1193725216165184,0.2072554973287508,7.450709973698854,0.0345557034015655,1.0087099075317385,0.3008211851119995
4.984729736328125,0.0048439328998327,-0.2507920759120955,7.713190112784504,0.0366518758237361,1.0119919776916504,0.2007121294736862
4.994755615234375,0.0431125810176134,-0.5330269725099206,8.180264603698253,0.0395463146269321,0.9356436729431152,0.0861749574542045
5.00478271484375,-0.0202886086605489,-0.64519182776995,8.754370313310623,0.0176271665841341,0.8253448605537415,-0.0125015480443835
5.01480859375,0.0257636790707707,-0.6578069061279297,9.357502795442938,-0.0345543920993804,0.654292106628418,-0.0985506549477577
5.024834716796875,-0.0413413335613906,-0.59820993103832,9.824792390412092,-0.0928680375218391,0.4574227035045624,-0.1684815287590026
5.034860595703125,-0.2522424573834985,-0.5391198825575411,9.969216058915851,-0.1387132108211517,0.3288413882255554,-0.2212928384542465
5.044886962890625,-0.2622210497580468,-0.4384717890247702,9.698917355033757,-0.1643874198198318,0.2597896158695221,-0.269800454378128
5.05491259765625,-0.10631218370907,-0.3444748970095068,9.073466658109426,-0.1562979072332382,0.2675580680370331,-0.3335901498794555
5.064938720703125,-0.1703171844992786,-0.2853312917105853,8.20188548387587,-0.1105163097381591,0.2741251587867737,-0.3997822105884552
5.074964599609375,-0.2022277688272297,-0.1788796081992797,7.263883333751559,-0.0230962969362735,0.1755387932062149,-0.4689632654190063
5.084990478515625,-0.3668959876541048,-0.0136043291406356,6.1529147267282,0.1083288416266441,-0.0494764819741249,-0.515320897102356
5.0950166015625,-0.5740836439110338,0.3338787207258865,4.5774160525769,0.2283458411693573,-0.3875279724597931,-0.4592516422271728
5.10504248046875,-0.5294245641037821,1.1059663417566568,2.317090363425016,0.2384764999151229,-0.7878484725952148,-0.2094609886407852
5.115068603515625,0.2014876910496503,2.2893005853541197,-0.3504202883452176,0.0827924758195877,-1.2463496923446655,0.0821966752409935
5.125094482421875,0.5265331535112112,2.552683956889808,-3.2845565084427597,-0.2718902230262756,-1.7175244092941284,0.2344613075256347
5.13512060546875,-0.8900979509159922,1.3954361215114592,-6.735341105440258,-0.7871770262718201,-2.0393617153167725,0.2173285782337188
5.145146484375,-2.7469138588309288,0.0638704648574581,-10.781424422204491,-1.1811256408691406,-1.974948763847351,0.1278319805860519
5.1551728515625,-4.12004111790061,-1.0015790616955609,-15.544868657827376,-1.26948344707489,-1.4968540668487549,0.0407592207193374
5.16519873046875,-4.821474984309077,-1.632233683938533,-20.669372064709663,-1.002300500869751,-0.7100508213043213,0.0075357537716627
5.175224609375,-4.700754847475886,-1.3744764817215502,-24.04878770802021,-0.4460774064064026,-0.0005035535432398,0.1906389743089676
5.185250732421875,-2.5264775024876,0.4967003618380055,-24.919136125588416,0.0970719009637832,0.1498372107744217,0.5498861074447632
5.195276611328125,0.0030560265697538,2.8997338920190927,-23.036657660889624,0.347795307636261,-0.0902094393968582,0.8898075819015503
5.205302734375,0.3858925837427377,2.855646036228537,-19.26442927918434,0.3501529991626739,-0.4469087123870849,1.0793460607528689
5.21532958984375,-0.7196855624139309,0.4251346434699371,-16.417413708657026,0.2796529233455658,-0.7204460501670837,0.9735541939735411
5.225355712890625,-2.5216999128222466,-2.2921248489946127,-15.42979149531722,0.2254003286361694,-0.8090920448303223,0.5320992469787598
5.235381591796875,-4.64356581031084,-4.225006636241078,-15.580639059388636,0.1694173663854599,-0.7749949097633362,-0.0749723389744758
5.245407958984375,-5.922271741408109,-4.922166478592157,-15.289563524937629,0.1002452075481414,-0.67160564661026,-0.5907424688339233
5.255433837890625,-5.612983089396357,-4.136531649452448,-14.086097251480815,0.0037504080682992,-0.5548962950706482,-0.837439775466919
5.2654599609375,-3.934383813993633,-2.426980186425149,-12.17376725387573,-0.094024620950222,-0.3907241225242615,-0.8022681474685669
5.27548583984375,-1.8425192331455649,-0.5910542871300131,-10.035173508948088,-0.1158966943621635,-0.2218752652406692,-0.5571345090866089
5.28551171875,0.1107137066036462,1.0567587317995726,-7.86935448796451,-0.0389443896710872,-0.0845863819122314,-0.2585166990756988
5.295537841796875,1.3975474145770073,1.8860903715856367,-5.807431310263276,0.1081933677196502,-0.0371447727084159,-0.0112993512302637
5.3055634765625,1.7379034050256013,1.692286586102098,-3.4261785635292528,0.2168119847774505,0.0644071549177169,0.1286348402500152
5.315589599609375,1.5776280873954296,0.7790667758610099,-1.0074345827907325,0.2719338238239288,0.187968909740448,0.1885149627923965
5.325615478515625,1.2576716186359524,-0.0762737133959308,1.105163720136881,0.265601098537445,0.3491780459880829,0.1532925367355346
5.335641357421875,1.0411138572916387,-0.599782294921577,2.901151065340638,0.2238369286060333,0.4919978678226471,0.0568922124803066
5.345667724609375,0.7291749830320478,-1.01659579436779,4.585585915029049,0.1666636615991592,0.5475900173187256,-0.0065219127573072
5.355693603515625,0.782712365821749,-1.1422890434384343,6.331917541182041,0.0949864462018013,0.4973679184913635,0.0013144735712558
5.3657197265625,1.2128903737537562,-0.9116427701827138,8.153330419543385,-0.0103461006656289,0.4094492495059967,0.0203848369419574
5.37574560546875,1.5123288090109823,-0.4643029073085635,9.60086789969206,-0.1413455307483673,0.320669412612915,-0.0022413386031985
5.385771728515625,1.3919541246145963,-0.3558734391845762,10.605327850586177,-0.2475313544273376,0.262207418680191,-0.0593621507287025
5.395798583984375,1.1201347870364784,-0.6224036573786288,11.029156489491465,-0.2975053489208221,0.2134070843458175,-0.1124375090003013
5.40582470703125,1.0728275308080018,-0.8232360993899405,11.178817474126816,-0.3013930320739746,0.1113984212279319,-0.1513849049806594
5.4158505859375,1.240533144569397,-0.6262830560952425,11.314143643939495,-0.2804114818572998,-0.0655949413776397,-0.1152844801545143
5.425876708984375,1.503008315218985,0.1491876680351793,11.350645866906644,-0.2638966739177704,-0.2117319107055664,-0.0102539313957095
5.43590283203125,1.8511232492312788,0.7073410446256398,11.113636269164084,-0.2634687125682831,-0.2476949691772461,0.1273915618658065
5.4459287109375,1.9684389844484629,0.7051657464131712,10.558906291151049,-0.2521952986717224,-0.1633598506450653,0.2472737580537796
5.455954833984375,2.162620517203212,0.4010558852788061,9.809942027282714,-0.1867407113313675,-0.014518704265356,0.2723515927791595
5.465980712890625,1.9900693631067872,-0.3373174630029126,8.98319309746623,-0.0843168646097183,0.158232033252716,0.2298526167869568
5.4760068359375,1.76053755389899,-0.9739894093066452,8.387058511397242,0.0300379190593957,0.3053869307041168,0.136952593922615
5.48603271484375,1.7101215180002152,-1.2921183703780172,8.06602330749035,0.1307980865240097,0.377776950597763,0.0201460868120193
5.496058837890625,1.5979888845093548,-1.4023489696398377,8.02799255978167,0.1763902008533477,0.3920609056949615,-0.0757404565811157
5.506084716796875,1.6256607352890071,-1.241251960363239,8.212008818483351,0.1600288152694702,0.3613251149654388,-0.121276244521141
5.51611083984375,1.7341795621968803,-0.8540051855325699,8.430072308215498,0.0654910057783126,0.3399306237697601,-0.1414846330881118
5.52613671875,1.6721730417475102,-0.5595459634600207,8.578889827764034,-0.0749989971518516,0.2944358587265014,-0.1511886566877365
5.53616259765625,1.447278683082014,-0.31914789232295,8.734212491422891,-0.2135862410068512,0.2942739427089691,-0.1887070685625076
5.546188720703125,1.013004199616611,-0.1517357085501775,8.599327635636925,-0.3123101592063904,0.2888557314872741,-0.2618393301963806
5.556214599609375,0.2548025901950895,-0.063246875899285,8.41415869976878,-0.3815959393978119,0.2814988493919372,-0.3538188338279724
5.56624072265625,-0.6503368625082075,0.1149012944865971,8.356019230011105,-0.4676789045333862,0.2958732545375824,-0.3625697195529938
5.5762666015625,-0.8318129352077841,0.8332789161071181,8.40382902893424,-0.566502034664154,0.3685857951641083,-0.2286661565303802
5.586293701171875,-0.2516319973349571,1.5269672829553484,8.18379394686818,-0.6204214692115784,0.4703156352043152,-0.0556826665997505
5.596319580078125,-0.093232556579262,1.534021293120086,7.776102203771471,-0.6092443466186523,0.500190019607544,0.0644223019480705
5.606345703125,-0.188073571268469,1.1140059288926425,7.537052624633908,-0.5653847455978394,0.3455740809440613,0.0753191635012626
5.61637158203125,-0.4203232611328363,0.7613144807450473,7.2926412262022495,-0.5514485239982605,-0.0444821082055568,0.0169385224580764
5.6263974609375,-0.7747191751107573,0.551666791050136,6.82513828074336,-0.6341556310653687,-0.6272134184837341,-0.0902987197041511
5.636423828125,-1.4400816111847758,0.2780672189917415,6.139397658029198,-0.8550706505775452,-1.278422236442566,-0.2463294416666031
5.64644970703125,-2.266672573960572,0.0839698573891073,4.789601590186357,-1.1378109455108645,-2.043572187423706,-0.3870279788970947
5.656474853515625,-2.6138831064790486,0.3557564617414027,2.4816993263453244,-1.3625729084014893,-2.468372344970703,-0.4348829388618469
5.666500732421875,-2.554251936858892,0.8851161439154297,-1.3704939879566431,-1.3942965269088743,-2.343384027481079,-0.373157799243927
5.676526611328125,-2.522222767652571,1.6049746517434715,-6.3376984626710415,-0.9385576248168944,-1.9457148313522337,-0.2274100482463836
5.686552734375,-1.9438754749476908,2.433797172963619,-11.674760916650294,-0.1257520467042923,-1.4642157554626465,-0.0539242811501026
5.69657861328125,-2.084156929080188,3.021343086646497,-16.4511090575099,0.5811377763748169,-0.8852788805961609,0.3184152543544769
5.706604736328125,-2.364236730003357,2.8995462604925035,-18.979561367201804,0.9483850002288818,-0.129373624920845,0.9269697070121764
5.716630615234375,-1.3928186324894427,2.2814795363396403,-19.25899790178537,1.1702136993408203,0.6876762509346008,1.388736367225647
5.72665673828125,-0.7789508213311434,1.6290446786388757,-18.87610800698996,1.420014500617981,1.0051755905151367,1.3745744228363037
5.7366826171875,-1.5451158108472822,0.9152287389107048,-18.13809300715923,1.3901104927062988,0.8699069619178772,0.993869423866272
5.74670849609375,-3.115016811122,-1.0509112478803844,-16.075074435436726,1.0173571109771729,0.4884647727012634,0.4233095347881317
5.756734619140625,-4.115723839223385,-3.2977100045263765,-13.284688514626025,0.4263331592082977,-0.0293439887464046,-0.2238335907459259
5.7667607421875,-4.778127425491809,-3.543149576961994,-11.164563323324918,-0.1636757999658584,-0.4774402678012848,-0.796504020690918
5.776787841796875,-5.061380888015032,-2.207259577135741,-9.957225176870825,-0.5289913415908813,-0.67146235704422,-1.0652354955673218
5.7868134765625,-4.795927578337491,0.0959375046890228,-10.121291118955613,-0.656866192817688,-0.7229162454605103,-0.96996408700943
5.796839599609375,-3.700328682142496,2.708003697939217,-10.110482140171529,-0.5984127521514893,-0.6023997664451599,-0.5726773738861084
