seconds_elapsed,ax,ay,az,gx,gy,gz
0.10927783203125,-0.0003094678079709,0.0022382530466187,0.043325931507349,-0.0018173272255808,0.0006179735064506,-0.0003338930837344
0.1192578125,0.0045330951186828,-0.0064156939948908,0.0313560922503471,0.0013145501725375,-0.0015032337978482,-4.54727487522e-05
0.129237548828125,-0.0033491460311226,-0.0002683686126023,0.041830139991641,-3.59388068318e-05,-0.0018321340903639,0.0019665453583002
0.13921875,0.0084554927268065,-9.76608213502e-05,0.0386871657907962,0.0005049492465332,0.0022864444181323,-0.0001852887071436
0.149198486328125,0.0087688512586057,-0.0028445301103871,0.0437725062310695,-0.0013034840812906,-0.0007021045312285,-0.0010646318551152
0.159178466796875,0.0063183163013309,0.0015050982001703,0.046311669319868,0.0006655106553807,-0.0019345004111528,0.0007205865113064
0.169159423828125,0.0013947605603374,-0.0070292593159712,0.0407704018056392,0.0006223674863576,-0.0006934674456715,-0.0004890211857855
0.1791396484375,0.0042710649153217,-0.00205812897305,0.0516898552268743,0.0029418608173727,-0.0001497650519013,0.0007330017979256
0.18911962890625,0.0040608744970522,-0.0006980196009855,0.0468950221657753,0.001142363063991,0.0004419889301061,0.0003859919379465
0.1991005859375,0.0084732110465876,0.0014354487637523,0.0410538949221372,-0.000856072991155,0.0012955320999026,0.0027231820859014
0.20908056640625,-0.0076376187389716,-0.0019648703321814,0.0485287608474493,-0.0015349127352237,0.0001296000555157,0.0003050318337045
0.219060546875,0.0083254731389693,0.0032806747716385,0.03730009534657,0.0043602893128991,0.0010332399979233,-0.0006995550356805
0.229041748046875,0.0004727686109021,0.0003899674319662,0.0393874230146408,-0.0020443466491997,-0.0010014157742261,0.0014972866047173
0.239021484375,0.0011269034043885,0.0043218543876428,0.0407318233609199,0.0016398329753428,-0.0008820816874504,-0.0008627760689705
0.249001708984375,-0.0045695181389339,0.0059562415232881,0.0390858097195625,-0.0014377158368006,-0.0004152301698923,0.001269617001526
0.258982666015625,-0.0073943480350077,0.0068340198716614,0.055692661127448,0.0003064738120883,-0.0004640147089958,-0.0012931921519339
0.268962646484375,0.001633738681674,0.0054918114824686,0.0458814612090587,0.0001392272533848,-0.0017481911927461,-0.0004095552721992
0.278942626953125,-0.015300444984436,0.0028896752932108,0.0428507152110338,7.99092231318e-05,-0.0006751930341124,0.0012978368904441
0.288923583984375,-0.006333276408445,0.000178343108436,0.0477262122929096,0.0006929689552634,0.0003482596948742,0.001294374698773
0.298903564453125,0.0009029401890933,-0.0069138893079943,0.0373702379733324,0.0003037479473277,-0.0009948397055268,-4.22259727201e-05
0.308883544921875,0.0009640592591837,-0.0015910868500359,0.0361830740153789,-0.0008320902124978,-0.0001396983861923,0.0003780208353418
0.31886474609375,0.00323562092036,-0.0004985880387481,0.0411310518115758,0.0004488468402996,0.0013217320665717,0.0007557600038126
0.328844482421875,-0.0071539999404922,-0.0020935108136851,0.0326274273604154,-0.0005783343221992,0.0016873842105269,-0.0008503925055265
0.33882470703125,0.0010852744860574,0.0013741926963441,0.0431271940648555,0.0023432848975062,-0.0019773235544562,-0.0019180950475856
0.3488056640625,0.0049693859104067,0.0063711698665749,0.0420692094445228,0.0003802690189331,0.0009926343336701,0.0014257699949666
0.35878564453125,-0.0002793283980339,0.0126890569096431,0.0479272878229618,-0.0001182007836177,-0.0024775918573141,-0.0009171563433483
0.368765625,0.0050409715755842,-0.0005919106116984,0.0441910239040851,0.0003302755067124,-0.0001233574002981,0.0011830125004053
0.37874560546875,-0.0010020897146314,-0.0002199811599217,0.0494137269884347,-0.0031256051734089,-0.000467081554234,0.0030418979004025
0.3887265625,0.0019203005380928,-0.0100447438127826,0.0419248325377702,0.0003628694685176,-0.0008891923353075,0.0001457103498978
0.39870654296875,0.0016220665101893,0.0001000080420635,0.045205753904581,0.0012775233481079,-0.000514019280672,0.0022333920933306
0.4086865234375,0.0079359440984204,-0.0005620543295517,0.0375806658536195,3.14302742481e-05,0.002479107119143,-0.0021107560023665
0.418667724609375,0.0053676827793009,-0.0005631503080949,0.0437087933450937,0.0022703746799379,0.0015567494556307,-0.0008510482730343
0.428647705078125,0.0093780143992044,0.000642919279728,0.0466957002013921,0.0028994132298976,-0.0008123992010951,-0.0013341456651687
0.438627685546875,0.0023952245734632,0.0108290351914241,0.0453583141177892,0.0001303461613133,0.0022288877516984,0.0002377131750108
0.4486083984375,0.0010491619930602,0.0023052630013786,0.0431055667549371,0.0027029598131775,-0.000547457486391,0.0004403797211125
0.45858837890625,-0.0038716903341934,-0.0023723368882201,0.0368213719189167,-0.0019822656176984,0.0018716314807534,-0.000125951715745
0.468568603515625,0.004811802462209,-0.0014636884775478,0.048335284101963,0.0006398828700184,0.0004561617970466,0.0025987282861024
0.478549560546875,-0.0030607758101075,0.0030120504307094,0.0423468573421239,0.0014987394679337,-0.0006459364667534,-0.0012079317821189
0.48852978515625,-0.0052875850141048,0.0029328203151933,0.038299627777934,-0.0001428331015631,0.0008467650040984,0.0015210093697533
0.498509521484375,-0.0013775171645916,0.0008980996171943,0.0436795672506094,-0.0010631242766976,-0.0002919184044003,0.0013187603326514
0.50849072265625,0.0014162234734743,-0.0010834021893795,0.0514519548177719,-0.0036072419025003,0.001402917318046,-0.0018972728867083
0.518470703125,-0.003130954969488,0.005496122331405,0.0456195954024791,-0.0001181110274046,-0.0011681579053401,0.0002104896120727
0.528450439453125,0.0016073255987837,-0.0008490911100059,0.0321522110641002,0.0022265359293669,-0.0015934649854898,0.0014744258951395
0.538431396484375,0.0019490882411599,-0.0005804667690768,0.0242243406742811,-0.0007154437480494,-0.0027117794379591,-0.0011269313981756
0.548411376953125,0.0056733511949889,0.0032622531989589,0.0477174444645643,0.0007628770545125,-0.0011088224127888,0.0005023904377594
0.5583916015625,-0.0013529489789158,0.0025710560644045,0.0468237104952335,-0.0002826488343998,-0.0002934653311967,-0.0003933496773242
0.56837255859375,-0.0118171694459393,-0.0009442129143979,0.0525146156132221,0.0010201695840805,-0.0019566090777516,-0.0013693982036784
0.5783525390625,-0.0097553415453061,0.0030221608327701,0.0430892001420259,0.0010083164088428,0.0010931743308901,0.0012810168555006
0.58833251953125,0.0003599558861926,0.0023887400337494,0.0359007499426603,-0.0003813211224041,0.0003530820831656,0.0011696966830641
0.598313720703125,-0.0034429800607264,0.0014716251888312,0.0499701918274164,0.0022120727226138,-0.0017118034884333,-0.0001141255997936
0.608293701171875,-0.0087125544941052,-0.0033657227065879,0.0438332965075969,-0.0037736480589956,-0.0010982118546962,0.0001561852550366
0.6182734375,-0.0089190003190189,-0.0048158667159732,0.0400952790230512,-9.30036185309e-05,-0.0005032932385802,0.0011445825221017
0.62825439453125,-0.0013515607394278,-0.0012173216341994,0.0421907899975776,-0.0019830490928143,0.0009547872468829,0.0012218141928315
0.638234375,-0.0053647967024706,-0.0110823614985216,0.0456324548840522,-0.0045453044585883,-0.000356581993401,0.0013054807204753
0.64821484375,-0.0036555998980998,0.0012923870312515,0.0457920293599367,-0.0039764530956745,-0.0017432896420359,-0.0001161146210506
0.65819580078125,-0.0024274463426321,-0.0002231594976969,0.044150107371807,0.0031341761350631,0.0007380237802863,0.0013130814768373
0.668175537109375,-0.0088984872539527,-0.0075079644773155,0.0371124638199806,0.0003804673906415,-0.0007413616403937,0.00016286225582
0.678155517578125,-0.0016636406295932,-0.0017069135157391,0.0395066654801368,-0.00030686147511,-0.0004087053239345,0.0006352693308144
0.68813671875,-0.006520743538253,0.0026474275025539,0.0386123469889163,0.000561861670576,0.0020315498113632,0.0001316655252594
0.69811669921875,-0.0066224868796765,4.2834494728e-06,0.0360737684220075,-0.0027070040814578,-2.83028930425e-05,0.0008659275481477
0.708096435546875,-0.0021074571406468,0.0054636904996819,0.0378705887109041,0.0002166141057386,-0.0002549374476075,-0.0009748494485393
0.718077392578125,0.0066840808738023,-0.0025838150812778,0.0296393514603376,0.0019167022546753,-0.0001885527744889,-0.000104991318949
0.7280576171875,-0.0033489633680321,0.0041145135135855,0.0420598570942878,-8.01360001787e-05,0.0020586224272847,-4.32059823651e-05
0.738037841796875,-0.0044914114014245,-0.0016747465454973,0.0453542224645614,0.0003216122277081,-0.0019184490665793,-0.0004712788504548
0.748018798828125,-0.0079236143398098,-0.0095477449429221,0.0336836584150791,0.0007410600082948,0.0009172847494482,0.0007069036364555
0.75799853515625,0.0014890329813584,-0.0050071423712186,0.0329343013525009,-0.0022631520405411,0.0006759976968169,-0.0002274782164022
0.767978515625,0.001051171287056,-0.0030604926823172,0.0383265157848596,-0.0025009722448885,-0.001301665790379,-0.0003119004250038
0.777959716796875,0.0105009174819104,-0.0008350351851899,0.0347357978165149,-0.0017074428033083,0.0012461636215448,0.0013129387516528
0.787939697265625,-0.0009078720925375,0.0043691823943983,0.036830139747262,0.0005085734883323,0.0004826355725526,-0.0003107905504293
0.797919677734375,0.0041899077042005,-0.0015892510859761,0.0455061981558799,-0.0020360560156404,0.0008638678118586,0.0015956718707457
0.807900390625,0.0024028964232653,0.0034545791669748,0.0441617978096008,0.0018657412147149,-0.0012437580153346,0.0015440066345036
0.817880615234375,0.0005503273591399,0.0020245828964747,0.0408709395706653,-0.0013802398461848,-0.0005127312615513,0.0001940650399774
0.82786083984375,0.0049602710221894,-0.0018266948373522,0.0488011480480432,0.0004360360326245,0.0005179112777113,0.0005642444593831
0.837840576171875,-0.0048765747941099,-0.0113343726313672,0.0431149191051721,-0.0015399625990539,0.0002396963536739,0.0009623642545193
0.847821533203125,0.0010103826189413,-0.003644548781123,0.0374310282498598,-6.64356630295e-05,-0.0007182424888014,-0.0011809477582573
0.857801513671875,0.0024005766020156,0.0030655250504612,0.0443120199352502,0.001302306773141,-0.0007903175428509,0.0005028442246839
0.86778173828125,0.0027231778861954,0.0010803608489222,0.0432657257527112,-0.000431144668255,-0.0016601057723164,0.0005742169450968
0.877762451171875,0.0028472243909724,-0.0081334942308254,0.0467073906391859,-0.0012631647987291,0.0007306784391403,0.0009689159924164
0.88774267578125,-0.0015069887631572,0.0037207101567182,0.0459568645328283,-0.0008690169779583,0.0020910212770104,-0.0004335046105552
0.89772265625,-0.0019229856855235,0.0033647454590536,0.0437105469107627,-0.0007670845370739,-0.001244350336492,0.0008462634286843
0.90770361328125,-0.0065854062722995,0.0085659856302663,0.0354804787039756,-0.0007319307769648,-0.0031897891312837,-0.0010477766627445
0.917683349609375,-0.009251392344851,0.0064765390703454,0.0435661700040101,0.0019986066035926,-0.0025618420913815,0.0009236267069354
0.92766357421875,0.001426854465343,0.0034998065481893,0.0429670350670814,0.0005570375360548,0.0002749571576714,-0.0004191391635686
0.93764453125,-0.0071715538634918,-0.0005822751336731,0.0390752883255481,-0.0007471888093277,0.0018406426534056,-0.0006130596739239
0.94762451171875,-0.0063355779633857,-0.0045263365843333,0.0504471616894006,-0.0015788939781486,0.0016446346417069,0.0019899141043424
0.9576044921875,0.0003616546529345,-0.0023051168709062,0.0407183793574571,0.0012815376976504,-0.0019082818180322,-0.0021680556237697
0.967585693359375,-0.00221287201019,-0.007249432272138,0.042964112457633,-0.0005773486918769,0.00059216003865,-0.0006218244088813
0.977565673828125,0.0034728454760275,0.005557825923385,0.0426689289033412,-0.0017631485825404,-0.0003760289400815,0.000386910396628
0.987545654296875,0.0039688122994266,0.0046567945635877,0.0461146854430437,-0.0024877947289496,-0.0005395468324422,-0.0010932744480669
0.997526611328125,-0.0064557885432615,0.0020442922439426,0.0334019188642501,0.000791767379269,-0.0019711479544639,-0.0001976702333195
1.00750634765625,-0.003723587100394,-0.0021834906520787,0.0410346056997776,0.0002841688692569,0.0002129096537828,0.0002217776491306
1.017486572265625,0.0023884660391137,-0.005192170948768,0.0372965882152318,0.0005785058019682,-0.0020910818129777,-0.0018203523941338
1.027467529296875,-0.0005009352594614,0.0026502131146844,0.0411889194786548,2.90956813842e-05,0.0003435797989368,0.0013605272397398
1.03744775390625,-0.002007357767038,0.0027818401377182,0.037594694378972,0.0014243847690522,0.0013887546956539,-0.0014537607785314
1.047427490234375,6.33658261038e-05,0.001453888602741,0.0497130021959543,-0.0015751334140077,-0.0012400522828102,5.03926712553e-05
1.05740869140625,0.0052813379364088,-0.0019517003233544,0.0437245754361152,0.0027644392102956,0.0007605459541082,-0.0011087851598858
1.067388671875,0.0022259324211627,-0.0047080315604805,0.0362409416824579,0.0020200856961309,-0.0001356080174446,-0.0026097428053617
1.07736865234375,-0.003092120796442,-0.0054815184173174,0.0455202266812324,7.56497029215e-05,-0.0009705414995551,-0.0003911375242751
1.087349609375,-0.0068959883251227,-0.0009918605815619,0.0446241546243429,0.0003084099153056,-0.0001617399975657,-0.0012870249338448
1.097329345703125,-0.0079095310155302,-0.0077617291758302,0.0435743533104658,-0.0014472620096057,0.0017703184857964,0.0013287316542118
1.1073095703125,-0.0082681899937801,-0.0051429523790255,0.0447697005748748,-0.0026880288496613,-0.0018340032547712,-0.001023372169584
1.11729052734375,0.0049049606383778,0.0005464457684662,0.0426776967316865,0.0024048564955592,0.0011089453473687,0.0002610351366456
1.12727099609375,0.0007536679115146,-0.0105587394832167,0.0419324313223361,-0.0016657854430377,-0.0013912301510572,0.0015800988767296
1.137250732421875,0.0027781594764441,-0.0076272434754297,0.038640988561511,-0.0011972564971074,-0.002590793184936,-0.0008700198959559
1.14723193359375,0.008180146384146,-0.0036051757519599,0.0395364760965108,-9.753042832e-06,0.0026907874271273,0.0010165633866563
1.1572119140625,-0.0070130023009143,-0.0023039843597449,0.035940497431159,0.0009919155854731,0.0015960857272148,0.0010846348013728
1.16719189453125,-0.0023485724201425,-0.0058302953223697,0.0417792865872383,0.0005612823879346,-0.0028431378304958,-0.0005406924756243
1.177171630859375,-0.0004257693977095,0.0026720413540024,0.0335509719461202,0.0011766850948333,0.0008173743262887,-4.33724271715e-05
1.18715283203125,0.0096453783648088,-0.0020221991431433,0.0383405443102121,0.0009199562482535,-0.0002753203734755,0.0007728864438831
1.197133056640625,-0.0068737764933146,-0.0019920414668973,0.0360977338194847,-0.0034389155916869,-0.0020475564524531,0.0014047973090782
1.207113037109375,-0.0055536155391484,-0.0050625075539574,0.0351987391531467,-0.0008449968881905,0.0015682177618145,0.0009209009585902
1.217093994140625,-0.0070412785473279,0.0067386697384063,0.038486090260744,0.0022377846762537,0.0013581374660134,-0.0004778634756803
1.22707373046875,0.0095161990271881,0.001146484887693,0.0407253936201333,-0.000776114873588,0.0017504207789897,-0.0022177065256983
1.237053955078125,7.1403002087e-05,-0.0037154585928656,0.0540437248766422,0.001140153966844,0.0019788444042205,0.0026432706508785
1.247034912109375,-0.0017830657581798,0.0006973894133232,0.0431178417146205,0.0019686631858348,-0.0006363792344927,-0.0014239089796319
1.257014892578125,0.0044285387656651,-0.0006735701463185,0.0441641358971595,-0.0014405195834115,0.0005352338775992,-0.0003162203065585
1.266994873046875,-0.0039548933719284,-0.00660082303714,0.0456564202815294,-0.0011784645030274,-0.0004088571295142,0.0034414997790008
1.276975830078125,0.0025841164753772,-0.0005400068945251,0.0407201329231262,2.93742632493e-05,-0.0014774380251765,0.000627675675787
1.2869560546875,-0.0038020043651573,-0.0020592614842113,0.0485024573624134,-0.0003296197974123,0.0008954377844929,-0.0001363852788927
1.29693603515625,-0.0060983351414091,0.0031121224048547,0.040724224576354,0.0022522995714098,-0.0019536782056093,0.0011164917377755
1.306916748046875,-0.0023381606239825,-0.0003129932056181,0.039825229910016,0.0022706754971295,-0.0019057411700487,0.0002261969202663
1.316896728515625,-0.0059403498344123,0.0035742143581155,0.0360872124254703,-0.0020943873096257,-0.0005194311961531,0.0012439776910468
1.326876953125,0.0007994615483097,0.0054990084082353,0.0419201563626527,-0.000590766663663,0.0016230819746851,0.0005907043814659
1.33685791015625,0.0039891975003294,-0.0026666436596773,0.0447603482246398,-0.0010617967927828,0.000240514986217,-0.0002844108676072
1.346837646484375,-0.0003016132950782,-0.0074519143079873,0.0381774627029895,-0.001270588603802,0.0003771353513002,6.31316434009e-05
1.35681787109375,-0.0047498979408293,-0.0115900552923325,0.0378799410611391,-0.0004371870891191,-0.0001357514411211,-0.0008555840468034
1.366799072265625,-0.0130534332426264,-0.0018017978581134,0.0440127447277307,0.0004853318678215,0.0020365891978144,0.0001662708673393
1.376779052734375,0.0004577354385517,0.0093201375989709,0.0344365226089954,0.0007403647759929,-0.0030586244538426,3.2920805097e-05
1.386759033203125,0.0050381950966082,-0.0031900830118916,0.0446148022741079,-0.0012258470524102,-5.83073124289e-05,0.0011889990419149
1.39673974609375,-0.0051069677501916,0.0023694599445443,0.0348889425516128,0.0008707698434591,0.0004752706736326,-0.0005851751193404
1.4067197265625,0.0011631620278581,0.0054235959513112,0.0396761768281459,0.0004236249951645,0.0010585030540823,0.0014558715047314
1.416699951171875,-0.0030885588661767,-0.0022809140114113,0.0498491957962512,-0.0002144746249541,0.000295870937407,0.0009308715816587
1.426680908203125,-0.0122926597368903,-0.0004877378511708,0.0416173740237951,-0.0017316774465143,0.0010783076286315,-0.0014326839009299
1.436660888671875,0.000299092544429,-0.0016815050798468,0.0411690457344055,0.0009023732272908,0.0004127686843276,-0.0009579424513503
1.446640869140625,0.0108336200349964,-0.0010783698212355,0.0422176780045032,0.0014405980473384,-0.000124922953546,0.0010705873137339
1.456620849609375,0.01061064320039,-0.0070214139362331,0.050301031216979,0.0005927581805735,-0.0033223964273929,-0.0002619359293021
1.46660205078125,-0.0002405672902241,0.0023418504184111,0.0357867681741714,7.77028035372e-05,-5.86928799748e-05,-0.0008768598199822
1.476581787109375,0.0130715534212067,-0.0003040701136458,0.0443172806322574,-0.0031332485377788,0.0001308480277657,-0.0017224161420017
1.486561767578125,0.0024833960472606,-0.0041540783389937,0.0407248090982437,0.0013094366295263,-0.000331743620336,0.0006411393405869
1.496542724609375,-0.0073557330576702,-0.0061866892782971,0.0368342314004898,-0.0009460330475121,0.0030675120651721,9.72575508058e-05
1.50652294921875,0.0045223179963417,-0.0129718924390152,0.0473071100980043,0.0011389558203518,0.0009353850036859,0.0002775535394903
1.5165029296875,0.0032671668360941,-0.0074987399912439,0.0396750077843666,-0.0015473191160708,0.0009750872850418,-0.000855108606629
1.52648388671875,-0.0094702775262296,0.0012224179344251,0.0483516507148742,0.0005238213343545,-0.0010454533621668,0.000280463224044
1.5364638671875,-0.0013786314094439,0.0005999843202996,0.0362286667227745,0.0014385521644726,-0.0041075213812291,7.63805874157e-05
1.54644384765625,0.0014974902824498,-0.0067482595506589,0.037575989678502,0.0007669030455872,0.0043213833123445,-0.0010147164575755
1.556425048828125,0.0067489810698665,-0.0033580873894039,0.038318332478404,-0.0004936870536766,0.0017725620418787,6.21479775873e-05
1.56640478515625,0.0074631389549002,-0.0044795200342312,0.0508896447598934,0.0009348324965685,-0.001360647380352,0.0016121077351272
1.576384765625,0.0065455674522556,-0.0007368994398042,0.0387672452896833,0.0010136758210137,0.0006651822477579,-0.0006324445130303
1.58636572265625,-0.0025101013910956,0.0058160110686905,0.0454980148494243,-0.0002547877957113,-0.0004472201690077,-0.0023187580518424
1.596345947265625,-0.0002353796584531,-0.0004054207294248,0.0386146850764751,-0.0017623901367187,-0.000629830174148,-0.0005574630340561
1.606325927734375,-9.79074165225e-05,-0.0061395987335592,0.039961423510313,-0.0005578424897976,0.0008761873468756,0.0010457600001245
1.616306884765625,0.000405859120842,-0.0066837338139303,0.0526800353080034,-0.0013601939426735,0.0016243830323219,-0.001321154879406
1.626286865234375,-0.001295501436945,-0.0012402549852151,0.0398106168627738,-0.0033690163400024,-0.0020057717338204,0.0010807500220835
1.636266845703125,-8.97058437578e-05,-0.0039597796096,0.0474427191764116,-0.0005757923936471,0.0004538102075457,-0.0010206069564446
1.64624658203125,0.0021833901873789,-0.0083391272049862,0.0384621248632669,-0.0033763726241886,0.0004519456997513,0.0009037932613864
1.656227783203125,0.0076445234037935,0.0017783621835988,0.0375631301969289,-0.0010398204904049,0.0011835498735308,-0.000920865801163
1.6662080078125,-0.0070981050347909,-0.0006639164019841,0.0413029012471437,-0.0004033250152133,-0.001511569134891,-0.0003797114186454
1.67618798828125,-0.0035012130539864,-0.0054933275861199,0.0378618208825588,-0.000557230785489,-0.0008314978331327,-0.0018504142062738
1.6861689453125,-0.014096804815717,-0.0006307173852808,0.0260404501855373,-0.0002160798758268,0.0001498768106102,0.0021190273109823
1.69614892578125,0.0002583221426233,0.0023959826252888,0.0254430688142776,0.0005607954226434,6.0098245739e-06,-0.0006495235720649
1.70612890625,-0.0008500957570038,0.0012396156643982,0.0383119027376174,-0.0027646939270198,0.0008265301585197,1.09404245449e-05
1.71610986328125,-0.011704064460285,0.0033144857096951,0.0405576358377933,-0.0019583217799663,-0.0024633463472127,2.73213663604e-05
1.72608984375,-0.0035009390593506,0.0024590835899114,0.0369704250007867,-0.000911699491553,0.0009127426892518,0.0017344076186418
1.73606982421875,-0.0010100172927603,-0.0006625372956506,0.0303816942602395,-0.0002083322033286,0.0011997409164905,0.0026501519605517
1.74605078125,-0.0007107786178588,-0.0031523630836978,0.0383165789127349,-0.002040586899966,-0.0016644885763525,-0.0021057212725281
1.756031005859375,0.0029716544882394,-0.0034980803819838,0.0402647903710603,-0.0035037160851061,-0.0011183191090822,0.000702766701579
1.766010986328125,0.0013606025624088,-0.0062482284734956,0.0416126978486776,0.0003802379360422,-0.0002205679193139,0.0026657825801521
1.77599169921875,-5.7210079953e-05,0.0020441278471611,0.0323345818936824,-0.0024131005629897,0.000517108477652,-0.0022297808900475
1.785971923828125,-0.0041474750682711,0.0082931509051006,0.0374216758996248,-0.0016596923815086,-0.0009782565757632,0.0005289877299219
1.795951904296875,-0.0010585143432952,0.0005550765994936,0.0392202497541904,-0.000574676610995,0.0004341313615441,0.0007554025505669
1.805932861328125,-0.0006476502537727,-0.0032263325022067,0.0459533574014902,-0.0004748080391436,-0.0013248864561319,0.0015775202773511
1.815912841796875,-0.0058609461889602,-0.0058765547500457,0.0395206940054893,-0.0004698262782767,0.0014169393107295,0.0003878662246279
1.825892822265625,-0.0024950316861271,-0.0013715258152224,0.0329348858743906,0.0002625429769977,-0.0002198396250605,0.0010264923330396
1.8358740234375,0.0033422230999916,-0.0038053014339413,0.0469996515840291,0.0005242470651865,0.0020004697144031,0.0010935917962342
1.84585400390625,-0.003685118253529,0.0003614354572258,0.0446013582706451,0.000390023807995,0.00125318672508,-0.000704041798599
1.855833740234375,-0.0038786315316334,0.0001586976930499,0.0469932218432426,0.0018361202673986,0.0017444668337702,-0.0023868482094258
1.865813720703125,0.0041086408952251,-0.0042625893479213,0.0384644629508256,0.0005775103345513,-0.0011991253122687,-0.0010243749711662
1.875794921875,-0.006830229612533,-0.0022126528144814,0.0444534742325544,-0.0013244674773886,-0.0020639179274439,-0.0007263978477567
1.88577490234375,-0.0024492563156411,0.0023911055207718,0.0356242710888385,0.0022684030700474,0.0020458726212382,-0.0011695479042828
1.895755126953125,-0.0067095075760036,-0.0012302998467814,0.0363701210200786,-0.0012307065771892,-0.0024016005918383,0.0033505759201943
1.90573583984375,-0.0034103381664492,-0.0008362224952783,0.0399637615978717,-0.0012163255596533,0.0005601001903414,-0.0014566961908712
1.9157158203125,0.0005657441239804,-0.0037756186817307,0.039961423510313,-0.0004088871064595,0.0024694437161087,-0.001556085422635
1.92569580078125,0.0006043591013178,-0.0018486783402971,0.0351712666243314,-0.000298099592328,0.0002566240727901,-0.0012279839720577
1.935677001953125,0.0006003222470171,0.0002083363879006,0.0383136563032865,-0.0016662942944094,-0.0002975091338157,0.0004398982564453
1.94565673828125,0.0044290867549367,-0.0057679798090364,0.0351700975805521,0.000552917830646,-0.0016474658623337,0.0010058198822662
1.95563671875,0.0021263810368254,0.00304395253947,0.0417559057116508,0.0021793404594063,0.0020831255242228,-0.0008788416162133
1.96561767578125,-0.002167114906013,0.0040551754086278,0.0414531233727931,0.0019356614211574,0.0005968147888779,0.0005068011814728
1.97559814453125,0.0025180289692245,-0.0057750032048672,0.0281359611600637,-0.0001954629551619,-0.0008441768586635,-0.0022477698512375
1.985577880859375,-0.0054462461745366,0.000950843584584,0.0392085593163967,0.003001395612955,0.0002698237076401,0.0004766439378727
1.995558837890625,0.0085598846830427,-0.0017991949090734,0.0393558588325977,-0.0004110414301976,0.0013736998662352,1.63794975378e-05
2.005538818359375,0.0022939378897659,0.0020514252376277,0.0383048884749412,0.0002784510143101,-0.0002481648698449,-1.02521153166e-05
2.015518798828125,0.0016451551248319,0.0059043560724239,0.0453401939392089,-0.0026735910214483,0.0007376736029982,0.0006401396822184
2.025498779296875,-0.0053725050848908,0.0050488991537131,0.0478805260717868,0.001358168432489,0.0005706939846277,0.0012294972548261
2.035479736328125,-0.0014084602921269,-0.0035587245280388,0.0531155041158199,-0.0009751571924425,-0.0008166804909706,0.0002303806541021
2.0454599609375,-0.0074812226008623,-0.0022282157097943,0.0400987861543893,0.0010155558120459,-0.0004757959395647,-0.0004007884999737
2.05543994140625,-0.0036123087456449,-0.0047138767793774,0.03366320014894,0.0007615110371261,0.0007316088303923,0.0008209266234189
2.065421142578125,0.0053143999557942,-0.0031617610997054,0.0368055898278951,-0.0016941897338256,0.0012040538713335,-0.0006475403788499
2.07540087890625,-0.0048507644994184,0.0004233217122964,0.0315682736963033,-7.78853427618e-05,-0.0001931358128786,0.0014253435656428
2.085380859375,-0.0063353770339861,0.0044785884524695,0.0386029946386814,-0.0002989277127198,-0.000147596001625,0.0002594116958789
2.09536181640625,0.0016233816844411,-0.0014393760201986,0.0429436541914939,-0.0015803048154339,-0.0010252743959426,0.0011205786140635
2.105341796875,0.001608092783764,0.002117056086054,0.0410018724739551,-0.00025058852043,-0.0007408494129776,0.0007069897837936
2.11532177734375,-0.0042135260418057,-0.0063854997860267,0.0386076708137989,0.000677406322211,-0.0013215402141213,0.0001944451360031
2.125306396484375,-0.0023513854317367,-0.0026795944727957,0.0387590619832277,-0.0014262245967984,-0.0005755890160799,-0.0011400649091228
2.13528662109375,-0.0018561127280816,0.0014815620609559,0.0393576123982667,-0.0006495281122624,0.00199138186872,0.0001665716408751
2.145266357421875,0.0033486163081601,0.0064933440746739,0.0413011476814746,0.0004101436352357,-0.0002241022884845,0.0001119768276112
2.15524755859375,-0.0045029009098187,0.0014607110691722,0.044441199272871,-0.0008121227147057,-0.0001225648447871,-0.0004066801047883
2.1652275390625,-0.0053811815816909,-0.0049625360445119,0.037857729229331,0.0014462377876043,0.00168945081532,-0.0010559587972238
2.17520751953125,-0.0113543377071619,-0.0014146982366684,0.0368090969592332,-0.0012149217072874,-0.0021393308416008,0.001767591224052
2.185188232421875,0.0036557460285723,-6.51011254638e-05,0.0407008437007665,1.09313987195e-05,-0.0016975123435258,0.0011678473092615
2.195168212890625,-0.0012259067994542,0.0071178417817223,0.0374117390275001,-0.000537448504474,-0.0023555504158139,0.0001339776645181
2.205148681640625,-0.0023695969418622,-0.005021152630262,0.0460918890893459,-0.0019025849178433,0.00079923029989,-0.000249517528573
2.215128662109375,0.0075329893207177,-0.0039233200567308,0.0399585009008646,-0.0005348850390873,0.000418965704739,0.0009387883474119
2.225109619140625,0.0057003853323869,0.0033993053157813,0.0341238033980131,-0.000582821900025,-0.0027808221057057,0.0005702068447135
2.23508935546875,-0.0018150500653311,-0.0031200956487562,0.0351741892337799,-0.0014266327489167,0.0001555001363158,0.000605532026384
2.2450693359375,0.0011580109287053,-0.000118877139315,0.0380219798803329,-0.0001642943243496,-0.0029649259522557,-0.0022320658899843
2.255050537109375,0.007795110855624,-0.0036075138395186,0.0351788654088974,-0.0009799775434657,0.0005401596426963,0.000640025944449
2.265030517578125,0.001219933716394,-0.0036753366450313,0.0440080685526132,-0.0010018155444413,8.15633684396e-05,0.0016413745470345
2.275010498046875,-0.0042722704917192,-0.0064941660585813,0.0428133058100938,-0.000196244509425,0.0001147808507084,0.001188073772937
2.284991455078125,0.0036988910505548,-0.0016941270994022,0.0318909297794103,-0.000466821657028,0.0023419819772243,0.0005941888084635
2.2949716796875,0.0009532638705335,-0.0046641193535178,0.0359276379495859,-0.0022406736388802,0.0008090520277619,0.0020170132629573
2.30495166015625,-0.0011271591327153,0.000573772166809,0.0336836584150791,0.0008382067317143,-0.0016549043357372,0.0004702491569332
2.314932373046875,0.0071411587252281,0.0026772198526188,0.0434106871813535,-0.0011984140146523,7.0471316576e-05,-0.0002104812156176
2.324912353515625,0.0059065754289738,-0.0023421061467379,0.0324859730631113,0.001312414300628,0.0002132169902324,0.0013935407623648
2.334892333984375,-0.0058081748221069,-0.0062828248628415,0.0381698639184236,9.80803743004e-05,0.0019658701494336,0.0015346496365964
2.34487255859375,0.0045438539747148,-0.0055057304099667,0.0419113885343074,0.000749223283492,-0.0002360315993428,-0.0002736368332989
2.354853271484375,-0.0070956025504507,0.0027888909330125,0.0422089101761579,-5.42140332981e-05,0.0003370381891727,-0.0001898575283121
2.36483349609375,-0.0001614376394078,-0.0081943849720526,0.0407113650947809,-0.0007181400433182,-0.0005045207217335,0.0014077727682888
2.3748134765625,0.003298694485519,-0.0035518837952986,0.0431055667549371,-0.0004459365154616,0.0003549149259924,-0.0014495400246232
2.38479443359375,0.0011156513580121,0.0046053749036043,0.0502905098229646,-0.0024592862464487,0.0008633127436041,0.0009353207424283
2.3947744140625,-0.0012422368797473,-0.0128714368723798,0.0339800110131502,-0.0003996766754426,-8.67927446961e-05,-0.0002612998650874
2.40475439453125,0.0063558900990523,-0.0061240632377099,0.0404155970185995,0.0013430960243567,0.0009145559743046,0.000598102225922
2.4147353515625,-0.0028004261071793,0.0009084566144272,0.0447539184838533,0.0030336361378431,0.0029543656855821,0.0024432512000203
2.42471533203125,0.0056232649755664,0.003537992267264,0.0469990670621395,0.0009736812207847,-0.0012734029442071,0.000579837244004
2.4346953125,0.0045145365486852,-0.0018454634699039,0.0380190572708845,0.0003717945655807,0.0011587897315621,0.0004367863002698
2.444676513671875,-0.0002397635726258,0.0017986651861108,0.0462462028682231,-0.0013483411166816,0.0005790200084447,0.0006799328839406
2.454656494140625,-0.0008380582593381,0.0004972180655691,0.0428039534598588,-0.0021797665394842,-0.0011240411549806,0.0004085289256181
2.464636474609375,-0.006194616856426,-0.0023830866110976,0.0383159943908453,-0.000654574134387,0.0004213908687233,-0.0002934803487733
2.474617431640625,0.0051565790455788,-0.0029775362397544,0.0434030883967876,-0.0013826384674757,-0.001019082032144,-6.92376343067e-05
2.484597412109375,0.0026086115958169,-0.0060522949094418,0.0381663567870855,-0.0026612221263349,-0.0013154922053217,-0.0008135911775752
2.494577392578125,0.0015130714440718,-0.0077720770399086,0.0440057304650545,-0.0008878310327418,-0.0004162164404988,-0.0009687193669378
2.5045576171875,-0.0018119447927922,-0.0016753949994686,0.0294902983784675,0.0016975657781586,-0.0007547037675976,-0.0009788393508642
2.51453857421875,-0.0046108547963202,0.0025247692372649,0.0302343947440385,0.0008256199071183,0.0020953845232725,0.0008254400454461
2.524518310546875,0.0021308380162343,0.0013636347697116,0.0456470679312944,0.0007800798630341,-0.001955815590918,0.000418509094743
2.53449853515625,-0.0026203568325378,0.0005877367600798,0.0353197351843118,-4.53061657026e-05,0.0001643979921936,-0.0007651072810404
2.5444794921875,-0.0010989011526107,-0.0037196233113296,0.035619594913721,0.0007909263949841,3.52347269654e-05,0.0008184082689695
2.55445947265625,-0.013241484894324,-0.0018923713515512,0.0362169762849807,-0.0009699129732325,0.0007204627618193,-0.0004828155506402
2.564439208984375,-0.0076975870315916,0.0092081011923961,0.0297825593233108,-0.0021203984506428,-0.0018372377380728,0.0009638135088607
2.57442041015625,0.0065531479705125,-0.0053239806348923,0.0447474887430667,4.74660191684e-05,0.0010069459676742,0.0004254253872204
2.584400634765625,-0.0014399696752429,-0.0096419260323978,0.0462421112149953,0.0023809277918189,-0.0019198674708604,-5.68730574741e-05
2.594380615234375,-0.0096985333241522,-0.0078698383259586,0.0415998383671045,0.0022850832901895,-5.24679198861e-05,-0.0010583223775029
2.604361572265625,-0.0022122326893731,-0.0035408966104034,0.0441425085872411,0.001488265232183,0.0007547363638877,-0.0026037548668682
2.61434130859375,-0.0112720479848794,-0.0002318451276514,0.0390559991031885,-0.0014079276006668,0.0002713724970817,-8.34568199934e-05
2.624321533203125,0.001937014210876,-0.0041106410560663,0.0372591788142919,-0.0023008855059742,0.0018575517460703,0.0010033792350441
2.634301513671875,0.0071770702888257,0.0008300302165094,0.0362117155879735,0.0010063782101497,0.0010801069438457,-0.0006053033284842
2.644282470703125,-0.0092340210849419,-0.0001716759056318,0.0474351203918457,-0.0015688984422013,0.0002851542085409,-0.0012969262897968
2.654262451171875,-0.0104811350692063,-0.0061745513159316,0.0369599036067724,-0.0008898339001461,0.0004344675689935,-0.0009348931489512
2.664242431640625,-0.0027756387257948,0.002581805787282,0.0375572849780321,0.0013885003281757,-0.0002459697425365,-0.0010467459214851
2.6742236328125,0.0028615451772697,0.0001539301863871,0.0264881939530372,0.0009521376341581,-0.002308883704245,-0.0031746716704219
2.68420361328125,-0.0029528767225332,-0.0028083445521537,0.0430997215360403,-0.0008902372210286,-1.56359747052e-05,-0.0004009894037153
2.694183349609375,-0.006229998697061,0.0047175939732696,0.0484884288370609,-0.0010441578924655,0.0026143407449126,-0.0034103668294847
2.704164306640625,0.000396488504298,-0.0037014392006676,0.0317272636502981,-0.0005658541922457,0.0004361411556601,-0.0010555998887866
2.71414453125,-0.0078210490144789,-0.0097616799545474,0.034122049832344,-0.0011519829276949,0.0016730027273297,-0.0012002940056845
2.72412451171875,0.0035945173606276,-0.0031818723059725,0.0360685077250003,0.0001923807431012,-0.0015155998989939,-0.0008096083183772
2.734105224609375,-0.000769413469918,-0.0023995445555541,0.0366693962275981,-0.0014465685235336,-0.0016231387853622,0.0009308647131547
2.74408544921875,-0.0022026794097386,0.0076258735022507,0.042809214156866,-0.0007211234769783,-0.0008524199947714,0.0001162036933237
2.7540654296875,-0.0088972634112462,0.0068210599253885,0.0404161815404892,-0.003029870102182,0.0006125988438725,-0.0004621900443453
2.76404541015625,0.0048006965463049,-0.004343582162261,0.0312894567549228,-0.0011685867793858,-0.0004372186958789,-0.0002153149980586
2.774026611328125,0.0044920507222414,0.0050461866068188,0.0401198289424181,-0.0020723247434943,-0.0002571018412709,-0.0022316032554954
2.78400634765625,-0.0040290911193005,-0.0070920406201854,0.040569326275587,-0.0002765553072094,-0.0020669857040047,-0.000403609505156
2.793986328125,0.0015120667970739,-0.0044933841628022,0.0462584778279066,0.0018724339315667,-0.0016549043357372,-0.0014534692745655
2.80396728515625,-0.0051644518247805,6.343889134e-05,0.0479050759911537,0.0006545704090967,-0.0009259972721338,0.0008823893149383
2.81394775390625,-0.0041197650774382,-0.0024661800509784,0.0432657257527112,-4.58835856989e-05,-0.0004737013950943,-0.002257804851979
2.823927490234375,0.0035640856897458,-0.003911419556383,0.0420709630101919,0.0030364589765667,-0.000327493995428,0.0001523559330962
2.833908447265625,0.0018322751947678,-0.0102644783775322,0.0419219099283218,0.0009739529341459,-0.0010344851762056,0.0018323470139876
2.843888427734375,0.0013000497478991,-0.0098836623664014,0.0437146385639905,0.0014384081587195,0.002180216833949,0.0023711044341325
2.853868408203125,-0.0056414399530738,-0.0048587468764744,0.0348842663764953,0.0014085617149248,-0.0003175232559442,-6.66112609906e-05
2.863849365234375,-0.0049122123630717,0.0026446784230414,0.0401204134643077,-0.0019259823020547,-0.0007380358874797,-0.0003640863578766
2.873829345703125,0.0029598544525913,0.0012870806684717,0.0459556954890489,-0.0011316266609355,0.0003820937126874,-0.0024606592487543
2.8838095703125,-0.0027564043023623,0.0035886356091126,0.0476017091304063,-4.13284869864e-05,-0.0004959506914019,0.000687996041961
2.89378955078125,7.80519385822e-05,-0.0049032527384813,0.0405681572318077,-0.0013430303661152,-0.0001420676708221,0.0019726699683815
2.9037705078125,0.010222849459201,-0.0017692016296088,0.0372755454272031,-8.73499084264e-05,0.0001157261431217,-0.0014819825300946
2.91375048828125,-0.0053645409741438,0.0054212395974434,0.0455032755464315,-0.0010307627962902,0.0011980729177594,0.0011695232242345
2.92373046875,-0.0042987931724637,-0.0036445761805865,0.044452305188775,-0.0003852125373668,-0.0012869229540228,-0.0002736437891144
2.93371142578125,-0.0065150992487557,-0.004621558853425,0.0465472316414117,0.0001843284117057,-0.0011378275230526,0.0023533378262072
2.943691162109375,-0.002402786825411,0.0077121544130612,0.0359241308182477,-0.0002313909935764,7.5508840382e-05,0.0010537151247262
2.953671630859375,-0.0046134486122056,-0.0055081324296072,0.0472930815726518,0.0021890285424888,0.0009854920208454,0.000592878437601
2.963652587890625,-0.0003790259128436,-0.0025739604075439,0.039511926177144,0.002406342420727,-0.0003772480413317,0.0014877006178721
2.973632568359375,-0.0017161014691926,-0.0023954255028627,0.0378653280138969,0.0006214767927303,-0.000616593286395,0.0005321089411154
2.9836123046875,-0.00431968983002,-0.0018734109227545,0.0510334371447563,-0.0021141222678124,-0.0011305827647447,0.001757695688866
2.99359228515625,-0.0054010187933221,0.0016446254018694,0.0333791225105524,0.0006041246233507,0.000598918646574,0.0003629560233093
3.003573486328125,0.0030973449608311,0.0033555392392911,0.0326315190136432,-0.0037967490497976,0.0013680392876267,-0.001020289841108
3.013553466796875,0.0020619740311056,-0.0123158305499237,0.0330816008687019,-0.0005024330457672,0.0015069730579853,0.0010269976919516
3.023533447265625,0.0063243807159364,-0.0090923658582381,0.0399637615978717,-0.0008188165957108,0.0002712663263082,0.0004653369833249
3.033514404296875,-0.0002224836442619,-0.0040664639876224,0.0365191741019487,0.0013766894116997,0.0029293028637766,-0.0002000985259655
3.04349462890625,0.0027867629080079,-0.001744998770114,0.0399567473351955,-0.0015487931668758,0.0007521687075495,0.000956778647378
3.053474609375,-0.0070022617111913,-0.0045383649488445,0.0463940869063138,-0.0026913629844784,-0.0005360543727874,0.0003556554729584
3.06345556640625,0.0015555588789284,-0.0020266469893977,0.046544893553853,-0.0009027839987538,0.0006724875420331,0.0015799105167388
3.073435302734375,0.0024250899887643,-0.0036476083878893,0.0432552043586969,0.0014045540010556,-0.0014233766123652,0.0003632409207057
3.083415283203125,-0.004979194918368,0.0035914394875522,0.0422089101761579,0.0005861646495759,0.0006408393383026,-0.0024975265841931
3.093396484375,-0.0069118434813804,0.0109865821070037,0.0371206471264362,0.0024729892611503,6.75823539495e-05,-0.0001532596361357
3.10337646484375,-0.0074776606705971,0.0030252661053091,0.0434019193530082,-0.0007539631333202,-0.0014594746753573,-0.0001932070590555
3.1133564453125,-0.0011494805623777,-0.0092822076082229,0.0365180050581693,0.000826014438644,0.0006604511290788,-0.0023587213363498
3.12333642578125,-0.0011668518222868,0.0015966946069151,0.0375660528063774,0.0001016346504911,0.001361128874123,0.0009545173961669
3.133314453125,0.0017349340338259,0.0057228346262127,0.0460924736112356,0.0022379807196557,-0.0003783041611313,0.0014443102991208
3.14329443359375,-0.0057549833301454,-0.0035013409181497,0.0396568876057863,0.001281373319216,-0.0004970813170075,-0.0005085856537334
3.1532744140625,0.0039429289394989,-0.000794018188212,0.0318751476883888,-0.0021117036230862,-0.0006550773978233,-0.0002181752061005
3.163255615234375,0.0026179274134337,0.0018393990552984,0.0389092841088771,-7.2787515819e-05,-0.0013192696496844,-0.0005300313932821
3.1732353515625,0.0007541793681681,-0.0057375572713091,0.0460895510017871,-0.0005779166822321,0.0017217146232724,-0.0015900884754955
3.183215576171875,0.0023414302933029,0.0022702830195426,0.0422001423478126,0.0004860161570832,-0.0006455685943365,-0.0010670437477529
3.1931962890625,-0.0077773560032248,0.0016534388959873,0.0375631301969289,-0.0010580036323517,0.0010870546102523,0.0013877237215638
3.203176513671875,-0.0109830932419747,-0.0039638438633643,0.0493821628063917,0.0011713284766301,-0.0003369376063346,-0.0021196594461798
3.213156494140625,-0.0056343343588523,-0.004102722611092,0.0463870726436376,0.0014660446904599,0.0006165048107504,-0.0007261198479682
3.223136474609375,-0.0003409041258506,0.0012105630998499,0.0384580332100391,-0.001478346181102,-0.0011552963405847,0.0001218306424561
3.233117431640625,0.001408825618308,-0.0016483882615342,0.0324736981034278,0.0024254252202808,-0.0026931324973702,-8.65694019012e-05
3.243097412109375,-0.0049253823718987,0.0004010916141793,0.0436959338635206,-0.0009181734640151,-0.000217723660171,-0.0007971008308231
3.253077392578125,-0.0009884995806962,-0.0003102167266421,0.0369610726505517,0.00085717625916,0.0017137145623564,-0.0010467834072187
3.263058349609375,0.0009221746125258,0.0007069883587304,0.0432452674865722,-0.0018909396603703,-0.0015601087361574,-0.0009927211795002
3.27303857421875,0.0020350129589438,-0.0030035291975364,0.0441425085872411,6.93121692165e-05,0.0002262666821479,-0.0013617230579257
3.2830185546875,-0.0012444471031427,0.0054383642621804,0.0439940400272607,-0.0019613481126725,-0.0006951875984668,-0.0005039188545197
3.29299951171875,-0.0019676468111574,0.0045649241622071,0.0386088398575782,-0.0016429007519036,-0.0001546088606119,-0.0005709305405616
3.3029794921875,-0.0043713469520211,0.0032020657106302,0.0407072734415531,-0.0012828414328396,-0.002149848267436,-0.0016417875885963
3.31295947265625,0.0038311208617873,-0.0019514263287186,0.0368166957437992,-0.0024333372712135,0.0020022140815854,-0.0004327164788264
3.322939453125,0.001646908690501,-0.0003670980130322,0.0344213250398635,-0.0002825684496201,0.0010868860408663,-0.0014708165545016
3.33292041015625,-0.0035055056366138,0.0093194708786904,0.0549222612768411,-0.0008021150715649,-0.0008042696863412,0.0018251352012157
3.342900390625,0.0021053017161786,-0.0005676529532764,0.0401063849389553,0.0002045597648248,0.000960873439908,-0.0005895529757253
3.35288037109375,0.0041882820026949,0.0002713094883598,0.0513280361771583,0.0008985601598396,-0.0005986345931887,0.0014575695386156
3.362861572265625,-0.0015598149289377,0.0012782580411992,0.0333709392040967,-3.88724729418e-05,-0.0006550932303071,-0.0006394035881385
3.372841552734375,-0.0010787716800346,0.0013633242424577,0.0420510892659425,-0.0003371726488694,0.0004396010190248,0.0005426459247246
3.3828212890625,-0.008410941199027,-0.0005285813182126,0.0481856464982032,0.0013701798161491,-0.0007862523198127,-0.0004736163245979
3.39280224609375,-0.011499609663058,0.0008371175444219,0.0375590385437011,-0.0009892996167764,0.0002123117446899,0.0003212131559848
3.402782470703125,-0.00403411435429,-0.0011407857992686,0.0386082553356885,-0.0021640199702233,0.0021524252369999,-0.0014569795457646
3.4127626953125,-9.48386766016e-05,0.0024648009446449,0.0402566070646047,-0.0020765368826687,-8.20206478238e-05,0.0007567721186205
3.422742431640625,0.0004809701836667,-0.0004106814264319,0.0366688117057085,-0.0001526692649349,0.0003563351929187,0.00099059776403
3.432723388671875,-0.0015757066178135,-0.0069827989588957,0.0413064083784818,-0.0030993651598691,0.0028777495026588,-0.0011324462248012
3.442703369140625,0.0006808036047033,0.0012313044937793,0.0436976874291896,0.0012045693583786,0.0019256696105003,0.0003791639173869
3.45268359375,-0.0049077005847357,-0.0155785860723815,0.036664135530591,-0.0021664022933691,-0.0009540673345327,-2.49791119131e-05
3.46266455078125,-0.0052933389014564,-0.0030840105552226,0.0451958170324564,-0.0005637119757011,0.0017871242016553,-0.0013352544046938
3.472644287109375,0.0082342511915601,0.0007664817273151,0.0350187064111232,-0.0006018106359988,-0.0004356540739536,0.0012828042963519
3.48262451171875,-0.0023004589620977,0.0107456951563712,0.0459416669636964,-0.0023919874802231,0.0003917906433343,0.0024942762684077
3.49260546875,-0.0063897193034179,-0.0031452209568582,0.0433978276997804,3.72113427147e-05,0.0017428258433938,0.0013136805500835
3.502585693359375,-0.0016189795039594,-0.0071363820854108,0.044745150655508,-0.0043663252145051,-0.0001573394984006,0.0023038438521325
3.5125654296875,-0.0043563320459797,0.0019859953186009,0.0384609558194875,0.0016090995632112,0.0006275167688727,-0.0002190953091485
3.52254638671875,0.0020444018417969,8.42624836601e-05,0.0489361726045608,-0.0008149096975103,0.0021963845938444,0.0023567141033709
3.5325263671875,0.0005156213719397,-0.002255332045583,0.0420516737878322,0.0010818925220519,0.0018856413662433,-0.0012758948141708
3.542506591796875,-0.0008285780449397,0.0046754261988215,0.0341202962666749,-0.0003849765053018,0.0005745673552155,0.0012506460770964
3.552486572265625,-0.0048775246421806,0.0081645926219876,0.0411491719901561,1.83668453246e-05,0.0029055094346404,0.001486693858169
3.56246728515625,-0.0040349363381974,0.001124136058567,0.0399514866381883,0.0034178919158875,6.36503100395e-05,0.0007412750273942
3.572447509765625,-0.0039753699043765,0.0034670641892123,0.0480284101098775,0.0011638147989287,0.0007128166034817,0.0006541796028614
3.582427490234375,-0.0017306231848895,-0.0052556281064171,0.04668108715415,-0.0004596480866894,-0.0013146484270691,-0.0011485141003504
3.59240869140625,0.0024175460031256,-0.0064554962823167,0.040099370676279,-0.0002601582673378,-0.0015021562576293,-0.0017660830635577
3.602388427734375,-0.0010576010278426,0.0030889881244394,0.039952071160078,-0.0008686906076036,-0.000618252903223,0.0017743232892826
3.612368408203125,0.0004502462518401,-0.0051026295017916,0.0401017087638378,-0.0005054176435805,0.000642504543066,7.20261159585e-05
3.622349365234375,0.0010866992581635,-0.0007160119154024,0.0369581500411033,0.0036696200259029,-0.0014161188155412,0.0004248949408065
3.63232958984375,-0.0038129458842799,-0.005035692612268,0.0392032986193895,0.0004633737262338,-0.0017080511897802,-0.000821009685751
3.6423095703125,0.0028586591004393,0.002412504501827,0.0326215821415185,-0.0015768739394843,-0.0001690108329057,-0.0016029137186706
3.65228955078125,0.0044890367812477,0.0022147351737134,0.0413005631595849,-0.0006449531647376,-0.0002332208678126,-0.002380363876
3.6622705078125,-0.0074075363101437,-0.003021064854227,0.0510258383601903,0.000444279750809,-0.0001003295183181,-0.0012927289353683
3.67225048828125,-0.0024214549932628,-8.11754774302e-05,0.0462356814742088,-0.0012297615176066,-0.0015323404222726,-0.0011261422187089
3.68223046875,-0.0095994203312322,0.0001922803022433,0.0318739786446094,0.001738065155223,-0.0019368743523955,0.0003979848115704
3.69221142578125,-0.0038405828098766,0.0023966858781874,0.046535541203618,0.0018213095609098,-0.0008321171626448,-0.000236667212448
3.70219140625,-0.0062128831654787,0.0012596081396564,0.0438420643359422,0.0009073127293959,-0.0018377276137471,-0.0014252359978854
3.712171630859375,-0.0051468431028537,-0.0056575599708128,0.0353133054435253,-0.0015864169690757,-0.0030317427590489,-0.0027048857882618
3.7221513671875,-0.0076555745207704,0.0084569905641488,0.0471364297062158,-0.0023792400024831,0.0017712684348225,-0.0003189597628079
3.732132568359375,-0.0071194218174554,-0.0003662029638886,0.0399526556819677,9.5059396699e-05,-0.0011131567880511,0.0010460608173161
3.742112548828125,-0.0023902561374008,0.002055005434202,0.0345657019466161,0.0015315684722736,0.0001774113625288,-0.0005797990597784
3.752092529296875,-0.0004980674489401,-0.00417410734687,0.030826515418291,0.0022817766293883,-0.0018167169764637,-0.0009440183639526
3.7620732421875,-0.0014417049746029,-0.0080239237759727,0.0432446829646825,-0.0005297226598486,0.0015726881101727,-8.96762576303e-05
3.77205322265625,0.0050115262853913,0.0058809021316003,0.0347176776379346,0.0009767472511157,-0.000308196991682,0.0011594562092795
3.78203369140625,0.00091148882173,-0.0025034707209095,0.0338186829715967,0.0021527991630136,0.0010026106610894,-0.0005324500380083
3.7920146484375,-0.0042917971760965,0.003398309801938,0.0429465768009424,-0.0024939673021435,0.002402770332992,0.000471273320727
3.801994384765625,-0.0063387745674699,-0.0009672558632679,0.0475830044299364,0.0003377719549462,0.0001244358718395,-0.0001423189823981
3.811974365234375,0.0019640118156559,-0.003089362583775,0.0432423448771238,0.001188704627566,0.0015359474346041,0.0006243216339498
3.821954345703125,-0.0108721254144795,0.0060039805219974,0.0406979210913181,-0.0014891037717461,0.0009005172178149,-0.0006161788478493
3.831935546875,0.003181899705436,0.0009359930753242,0.0368038362622261,0.0001822359627112,0.0013164216652512,-0.0001981662790058
3.841915283203125,0.0032704365054145,-0.0100752485489007,0.0356043973445892,0.0011766601819545,0.0008314596489071,-0.0011340010678395
3.8518955078125,-0.0068763885755091,-0.0066961092383135,0.0450333199471235,-0.0028553921729326,-0.002307484857738,-0.0032984814606606
3.86187646484375,-0.012894881680049,-0.0020128741923719,0.041595162191987,-0.0007485654205083,-0.0006810920313,-0.001998592633754
3.871856689453125,-0.009975724564027,0.0009068583123851,0.0417471378833055,-0.0008995565003715,-1.14114955067e-05,-0.0026099372189491
3.88183642578125,-0.0023484628222882,-0.0011378449235111,0.0510240847945213,0.0003926092758774,0.0012788902968168,-0.0017260339809581
3.8918173828125,0.0031772600629366,0.0031387090176809,0.0387526322424411,0.0001211727503687,-0.0020418399944901,-0.0004707621701527
3.90179736328125,-0.0034486791491508,-0.0016520871891174,0.0345651174247264,-0.0013582132523879,0.000343820080161,-0.0005993928061798
3.91177734375,-0.0039044600926339,0.0056770957883447,0.0282756618916988,0.0035051987506449,0.0038488395512104,0.0009232562733814
3.9217578125,0.0029485110746696,-0.0029128735057078,0.0375514397591352,7.4027338996e-06,0.0002277391031384,0.0023579010739922
3.93173828125,-0.0002445858782157,-0.0099175646360032,0.0353086292684078,-0.0006837329128757,0.0002577407285571,0.0015346880536526
3.941718505859375,-0.0042147133518941,0.0009153704124037,0.0412917953312396,0.0005596970440819,-0.0014690533280372,0.0027924990281462
3.951698486328125,-0.011214728307072,0.0003709339379332,0.0444341850101947,0.0006466530030593,-7.71060585975e-05,0.0005565743194893
3.9616796875,-0.0117486707869917,-0.0012595442075747,0.0484755693554878,-0.0002361849183216,-0.0015125498175621,-1.8402133719e-05
3.971659423828125,-0.0063325274897739,0.0015208437585737,0.0457838460534811,-0.0034140422940254,0.0008830036967992,0.0001524672406958
3.981639404296875,-0.0055727586310356,0.0009326594739221,0.0490770423799753,-0.0001452783471904,0.0001785969361662,0.0005122603033669
3.991620361328125,-0.0007731580632738,0.0012485752889886,0.0487783516943454,-0.0014081171248108,-0.00093484390527,-0.0025583081878721
4.001600341796875,-0.0048622905404306,0.0023283333497121,0.0351595761865377,0.0005509041948243,0.0010526739060878,0.0009898212738335
4.01158056640625,-0.0042453276858665,-0.0045811994435731,0.0424924032926559,-0.0015002908185124,-0.003864349797368,-0.0010224621510133
4.021560546875,0.0019830635759979,-0.0010228037090972,0.0405529596626758,-0.00249551422894,-0.0017175758257508,-0.0011841160012409
4.03154150390625,-0.0001113148873671,-0.0057625090494751,0.04444295283854,0.0013679206604138,-0.0006919559091329,0.0001497992343502
4.041521484375,-0.0092723620676435,-0.0096178327707573,0.036664135530591,-0.0013229371979832,0.0002990057691931,-0.0024347987491637
4.051501220703125,0.0016795323184691,0.0056130449756514,0.0445955130517482,6.7695509642e-06,0.0003687646239995,0.0006897077546454
4.061482421875,-0.0042966925469227,-0.0036077604346908,0.0474386275231838,-0.0002811181475408,-0.0008054235950112,0.0023975928779691
4.07146240234375,-0.0038875272241421,-0.0044840500788763,0.0395066654801368,-0.0010344425681978,0.0004991255700588,0.0001735903206281
4.081442626953125,-1.14895083941e-05,0.0068292706313077,0.035619594913721,0.0025048987008631,-0.0019011814147233,0.0013898559845983
4.091423583984375,0.0002496639121323,0.0023030436448287,0.0425005865991115,-0.0001358341542072,-0.0001685209572315,0.0014764934312552
4.1014033203125,-0.0016449907280504,-0.000661450450262,0.0350163683235645,-0.0002492847852408,-0.0003573391586542,0.0020546657033264
4.111383544921875,0.0059819604864343,0.0009773753984831,0.0413011476814746,0.0003881163429468,-0.0010458398610353,-0.0014975209487602
4.121363525390625,-0.0052879503402858,-0.0020144176954869,0.0311263751477003,0.000122599187307,-0.0008559562265872,0.0010298189008608
4.13134375,0.0047966596920043,-0.000938696489064,0.0291822553426027,0.0004647150635719,-0.0028739366680383,0.0014611354563385
4.141323974609375,0.0026372531684115,0.0041123124233447,0.0442979914098978,6.17787009105e-05,0.0009660748764872,0.0004193068598397
4.151303955078125,0.0005337598168291,-0.0077976316062733,0.0336743060648441,-0.0004632475320249,-0.0011407900601625,-0.0004926454275846
4.161284912109375,-0.0029331856413744,-0.0036790812383871,0.045196401554346,-0.0010584640549495,-0.0001929709687829,-0.0005347233382053
4.17126513671875,0.0018966639341786,-0.003535215788288,0.0378635744482278,-2.51766177825e-05,0.0028519453480839,0.0008449613233096
4.181244873046875,-0.0014690313729457,0.0058365424000658,0.0493850854158401,-0.0003538107266649,0.0007022423669695,0.001246565952897
4.191224853515625,-0.0076754482650198,-0.0035281101940665,0.0419008671402931,0.000347823719494,-0.0001532295718789,-0.0003973191487602
4.201205810546875,-0.0078496723207645,-0.0107945118673145,0.0387619845926761,-0.0009203735971823,-0.0004893206059932,0.0011358626652508
4.21118603515625,-0.0049334926131181,0.0028997856952715,0.0378618208825588,0.0012691052397713,-0.0012435745447874,-0.0018874229863286
4.221165771484375,-0.0039790779651142,0.000179192491807,0.0462380195617675,-0.0004518294008448,0.0009242380037903,-0.0006043119356036
4.23114697265625,-0.0033410175235942,-0.0013485559315886,0.0314250658333301,0.0007659716065973,-0.0016060667112469,-0.0003599445044528
4.241126953125,0.000948587695416,0.0036795013634953,0.0447410590022802,0.0027130087837576,-0.0004222923889756,-0.001585531164892
4.25110693359375,0.0001185848783701,-0.0023048337431158,0.0432411758333444,0.0008854430634528,-0.0001988196745514,-0.0011995777022093
4.261087646484375,-0.0071143620498478,0.0003449683796148,0.0353080447465181,-0.0011817024787887,0.0003447318449616,0.0014334896113723
4.27106787109375,-0.0026785715594887,0.0006923113794066,0.0409925201237201,0.0013038790784776,0.0019307760521769,0.0001557493815198
4.2810478515625,0.0021776363000273,0.0014779361986089,0.0357516968607902,-0.0019070942653343,0.0015605967491865,-0.0012203059159219
4.291028076171875,0.004932086107321,-0.0008442962038796,0.035002339798212,-0.0027930387295782,0.0003705732524394,0.0025443881750106
4.3010087890625,-0.0090448917210102,-0.0047985867876093,0.0397948347717523,-0.000777291948907,-0.0017234701663255,0.0002356939658056
4.31098876953125,0.002034391904436,-0.0045831630717962,0.0429348863631486,0.002204739023,-0.001573602668941,-0.0004123101243749
4.320968994140625,0.0022435046104714,0.0098925945915281,0.0330576354712247,0.0015165783697739,-0.0007040807977318,-0.0034592328593134
4.330949951171875,0.0039917365172877,0.0014116842956747,0.0376946476221084,0.0008674979908391,-0.0004942528903484,-0.000931468559429
4.3409296875,-0.0087993011957965,-0.0044251594984903,0.0403898780554533,-0.0003527623484842,-0.0008495189249515,0.0005969195626676
4.35090966796875,-0.012315766617842,-0.0035059805606491,0.0369499667346477,0.0011616186238825,0.0014942465350031,-0.000972544949036
4.360890869140625,-0.0096397340753115,-0.0049887481980025,0.0379933383077383,-0.0005294886650517,0.0011363178491592,0.001149195479229
4.37087109375,-0.0075917155043222,0.0012861216872464,0.0402373178422451,-0.0006231404840946,0.0006255283951759,-0.0001773351250449
4.380850830078125,-0.0055616709814406,0.0093328052842989,0.0414361722379922,0.000479674548842,-0.0009396113455295,-0.0024514084216207
4.390830810546875,-0.004293331546057,0.0018298001098912,0.0358966582894325,4.7534704208e-06,-0.0004013767465949,0.0006170609849505
4.400811767578125,0.0008910488219,-0.0052432526820339,0.0487649076908826,-0.0029742585029453,0.0002383142709732,-0.000737955328077
4.4107919921875,-0.0039508382513187,-0.006992434436921,0.0409837522953748,0.0007159959059208,-0.0002279914915561,-0.0014993366785347
4.420771728515625,-0.0057598604346625,-0.0002933295239228,0.0379892466545105,0.000302673317492,-0.000567277893424,0.0002213316911365
4.430752685546875,-0.0112086456261575,0.0036284287633839,0.0400841731071472,1.92234292626e-05,-0.0022232318297028,0.0018799166427925
4.44073291015625,-0.00029078137381,-0.0029452779379673,0.0385907196789979,-0.0010399157181382,0.0005275476723909,0.0008607248309999
4.450712890625,0.0033574937343597,-0.0005975823006592,0.0439776734143495,0.0011656451970338,-0.0015255883336067,0.0011851370800286
4.46069287109375,-0.0026268779048696,-0.0047773613364901,0.0466764109790325,-0.0022642400581389,-0.001042490825057,-0.0014199670404195
4.470673828125,0.0054815549499355,-0.0001165390517562,0.0363514163196086,0.0010706395842134,0.000282865948975,-4.3283434933e-06
4.48065380859375,0.0066862545645795,0.0007398129160981,0.0408399599105119,0.0008008612785488,-0.001731283031404,0.0005996766267344
4.4906337890625,0.0054049460497684,0.0037503563763108,0.0447346292614936,-0.0012483823811635,0.0008702483028173,0.0012087519280612
4.500614990234375,-0.0057843372887931,0.0022888781221583,0.0472808066129684,0.0006520493188872,-0.0004655933007597,0.0001789075613487
4.510594970703125,-0.0051363399751484,-0.0014229454752057,0.0368067588716745,-0.0001697037951089,0.0007609780877828,-0.0004136479692533
4.520574951171875,0.0035132322853431,-0.0012389580772724,0.0314168825268745,0.0020939831156283,6.53602182865e-05,-0.0007404178613796
4.530554931640625,0.0010537651029415,-0.0027773557588458,0.0359071796834468,0.0006199564086273,-0.0011445796117186,-0.0018186056986451
4.540535888671875,-0.0035876309621147,0.0049635589578188,0.0363560924947261,-0.0013939259806647,0.0006533209234476,-0.0005871600005775
4.550515625,-0.0058246327665634,0.0017946283318102,0.0281231016784906,-0.0002016443177126,0.0009883781895041,-0.0029126959852874
4.560495849609375,-0.0044485221077688,-0.0025224494160152,0.0402460856705904,-0.0026600083801895,-0.0019831769168376,0.0014271913096308
4.570476806640625,-0.0076003006695769,-0.004563672920037,0.0525169537007808,-0.0003459671279415,-0.002264148555696,-0.0010911973658949
4.58045703125,-0.002394840980973,-0.0033426066924817,0.0460848748266696,-0.0010237416718155,0.0001875571906566,-0.0002115552779287
4.590436767578125,0.0017929112987592,-0.0023694234119262,0.042788755890727,0.0015461872098967,0.0025138314813375,0.000809215940535
4.600416748046875,0.0033943186134099,-0.0038719460625201,0.0388958401054143,-0.0006703617982566,9.96757298707e-05,0.000588706228882
4.61039794921875,-0.0002565137780271,-0.0025665990849956,0.0385953958541154,-0.0010538203641772,-0.0010057901963591,-0.0022265098523348
4.6203779296875,-0.0007891045510768,-0.0018559300649911,0.0447293685644865,0.0008703135536052,0.0011950461193919,-0.0002866633003577
4.630357666015625,0.0037834823277778,-0.0005546108086127,0.0396375983834266,0.0026601296849548,0.0006546303629875,-0.0015347031876444
4.640338623046875,-0.0009802249426953,0.0023283516160212,0.0426285968929529,0.0034327125176787,-0.0004758816212415,-0.0017315108561888
4.65031884765625,0.0044565592837519,0.0011717471931129,0.0420312155216932,0.0024711808655411,-0.0011771982535719,0.001080275629647
4.6602998046875,0.0035686887996271,-0.0028535262675955,0.0423287371635437,0.001562776742503,0.001881175674498,0.0009292743634432
4.670280029296875,0.0006629574207589,-0.0015951693701092,0.0394832846045494,-0.0003551329136826,0.0002907933667302,0.0007123134564608
4.680259765625,-0.0092838150434195,-0.0003214687730185,0.0375374112337827,-0.0026835347525775,0.0014452738687396,-0.0016943851951509
4.690240966796875,-0.0040011619327589,-0.0019580387325957,0.0409767380326986,0.0006170104024931,0.0032907156273722,-0.0005088817561045
4.700220947265625,-0.0061383566245436,0.0077176708383951,0.0462123005986213,-0.0021396274678409,0.000170555897057,0.0006842144066467
4.710200927734375,-0.0036526772886514,0.0057706558233127,0.0421738388627767,-0.0010040597990155,-0.00097724981606,-0.0012941270833835
4.720181640625,0.0040292920487001,0.0103555176618508,0.0454658661454916,0.0005275241564959,0.0022494355216622,-0.0003902501775883
4.73016162109375,-0.0034821247610263,0.0053353970780503,0.0493552747994661,0.0005218786536715,0.0011499058455228,-0.0012110396055504
4.74014208984375,-0.002301262679696,-0.0011335066751111,0.0505506220638751,0.0019362834282219,-0.001734297722578,0.0017724996432662
4.7501220703125,-0.002893894810602,0.0008550276604481,0.049351767668128,0.0010315224062651,-0.0007841978222131,0.0007576982025057
4.76010302734375,-0.0047614787807688,0.0045693354758433,0.0429191042721271,-0.0003911382518708,0.0016728350892663,-0.0002697492891456
4.770082763671875,-0.0039648302440531,-0.0011206563266925,0.0520464135795831,0.0007506232359446,0.0005151135846972,-0.0008634276455268
4.780062744140625,-0.0009627075523138,-0.001301748514641,0.0453133059322834,-0.0009729745797812,0.0006456077098846,0.000491322367452
4.7900439453125,0.004308236854244,0.0068153334375005,0.0427665440589189,-0.0011821469524875,0.0014270702376961,-9.4917122623e-06
4.80002392578125,0.0008408712709322,-0.0051754207433667,0.0384270535498857,0.0018967336509376,0.0015748757869005,0.0014145005261525
4.81000390625,-0.0065757616611197,0.0008900898406747,0.0474041407316923,-0.0014636849518865,-4.48580831289e-05,-0.0006635425961576
4.81998388671875,0.0056306080318056,-0.000354028468905,0.0462093779891729,-0.0006580787012353,-0.0027434388175606,-0.0003855085524264
4.829965087890625,0.0031969511440955,-0.008201472299965,0.0393289708256721,-0.0008321396890096,-0.000538763590157,0.0003779788094107
4.839945068359375,0.0032615590792149,0.0023628840732853,0.0418716410458087,-0.0023762404453009,5.88502734899e-05,0.0012485660845413
4.8499248046875,0.0009950937182642,-0.0007580518256872,0.0411246220707893,0.0005105474847368,-0.0009259609505534,0.00255943601951
4.85990576171875,-0.0008668642287142,-0.0005015380476601,0.0391764106124639,-0.001221306156367,0.0001036170870065,0.0002368932764511
4.8698857421875,-0.0072070087693631,0.0095998952552676,0.0325923560470342,-0.0013611929025501,0.0002056313678622,0.000309554307023
4.8798662109375,-0.0048622357415035,0.0018239183583762,0.0316933613806963,0.0016540379729121,0.0003696829080581,0.0004285975883249
4.889845947265625,0.005388159311749,-0.0002645783534739,0.0563818124353885,0.0003095165011473,-0.0002093436196446,0.0005316402530297
4.899826904296875,0.0046577626779675,-0.0063800107601564,0.0375274743616581,0.0014325713273137,-0.0016429228708148,0.0015604194486513
4.909806884765625,-0.0006894435688853,0.0033711843329947,0.0427653750151395,-0.0010313210077583,0.0009175725281238,-0.0002166836784454
4.919786865234375,0.0015894794148392,-0.0078648059578146,0.0390238503992557,-0.0003500844468362,0.0020225178450345,-0.0004260081332176
4.929767822265625,-0.0060662412364035,-0.0042826640215702,0.0354337169528007,7.39225069992e-05,0.0010398710146546,-0.0004844309296458
4.939747802734375,-0.0052254612970165,0.003750776501419,0.0342354470789432,0.0005394430481828,0.0013597160577774,-0.0011925654252991
4.94972802734375,0.0029793811369687,0.004920112541737,0.0415659360975027,0.0014936812222003,-0.0003324849531054,-0.0008470646571367
4.9597080078125,-0.000208308988437,-0.0058981820599641,0.0457569580465555,-0.0006488318322226,-0.0007615201175212,0.0003851799992844
4.969688720703125,-0.0128984253440052,0.0017753025768324,0.0487502946436405,0.0020237979479134,-0.0002323295921087,-0.000467619713163
4.9796689453125,-0.0036281821682117,0.0040029794305097,0.037525720795989,-0.0023975819349288,0.0008023083209991,3.89135166187e-05
4.98964892578125,0.0031632680702023,-0.007785046119336,0.0439607222795486,-0.0013342056190595,-0.0014213128015398,-0.0012964835623279
4.9996298828125,0.0020115772844292,-0.0100108141437172,0.0381260247766971,-0.0020386115647852,0.0010924451053142,-0.0008525346638634
5.009609619140625,-0.0013416421336121,-0.0088008081662934,0.0469563969641923,-0.0004355062847025,-0.0006562639027833,0.0001291394873987
5.01958984375,0.0026107852865941,0.0004072747597936,0.0417196653544902,0.000667308748234,-0.00091112870723,-0.0014873992186039
5.029570068359375,-0.0009502133969217,0.0009188227448146,0.0424678533732891,0.0024392246268689,0.0009590853005647,-0.0003956146247219
5.039551025390625,-0.0029358890551142,0.0003457812303677,0.0267547359347343,0.0007643627468496,-0.0001479908823966,9.52059490373e-05
5.04953076171875,-0.012858166398853,0.0022954631265718,0.0261567700415849,0.0003913956461474,-0.0005132537335157,-0.0018134346464648
5.0595107421875,-0.0002410970131866,0.00674081602972,0.0349848041415214,0.0029038218781352,-0.0003784978762269,-0.0005489657633006
5.069491943359375,0.0049811494134366,0.0034364772547036,0.0388736282736063,0.0013098483905196,0.0007368056103587,0.0008779690833762
5.079471923828125,-0.0027044001204892,-0.0010812558980658,0.04306289665699,-0.0004390495596453,0.0020026061683893,0.0016185940476134
5.08945166015625,0.0034301571117714,-0.0010478468188084,0.0387228216260671,0.0002131217624992,-0.0006108814850449,-0.0011421475792303
5.099431884765625,-0.0092752846770919,0.0058436662605963,0.0457546199589967,0.0005910242907702,0.0005302829667925,0.0005452312761917
5.109412841796875,-0.0123753513179719,0.0020578367121051,0.0469482136577367,0.0002445813734084,0.0018746023997664,-0.0005679122405126
5.11939306640625,-0.0058879985926672,0.0056328456546645,0.0363233592689037,0.0016158430371433,-0.0037185689434409,-0.001133035053499
5.129373291015625,-0.011775138668809,0.0090359503627289,0.0400654684066772,2.54861661233e-05,0.0008189873769879,-0.0002282140485476
5.13935400390625,-0.0047484731687232,0.0031794885526411,0.0288426481246948,0.0003557180752977,0.0008821049705147,0.0021063128951936
5.149333984375,0.0068849554744549,0.0059466699773445,0.0399140772372484,-0.0004474712186492,0.0015469649806618,0.0018620485207065
5.15931396484375,0.0007865655341185,0.0046272214092314,0.0415641825318336,0.002307569142431,-0.0029247486963868,1.64778539328e-05
5.16929443359375,-0.0053119705366902,0.0013962309982161,0.0444072970032691,-0.0004788778896909,8.60765576362e-05,9.72662819549e-05
5.179275146484375,-0.0027622860538773,-0.0018757581434678,0.033633389532566,0.0007602910045534,0.001354007050395,-2.01791190193e-05
5.189255126953125,0.0004413140267133,-0.0019925711898598,0.0325865108281374,0.0035289456136524,-0.0010843267664313,0.0006133898859843
5.199235107421875,0.0014590579682029,0.0065066145482007,0.0364788420915603,0.001499616773799,-0.0020185634493827,0.0014179308200255
5.20921630859375,0.000485226233676,0.003930836642906,0.0448603014677762,0.0010217613307759,0.0016012797132134,-0.0002995872346218
5.219196044921875,-0.002829085946083,-0.0030516517887357,0.0499468109518289,0.0013392101973295,0.000552793033421,-0.0021566096693277
5.229176025390625,-0.0039614875094965,-0.0009193616009317,0.0336339740544557,-8.18588305264e-05,0.0003211926668882,0.0011971029452979
5.23915625,0.0051118631210178,0.0015810495132114,0.0372229384571313,0.0019168436992913,0.0003976253792643,-0.00063302135095
5.24913720703125,-0.0064309463629499,-0.0017709460621234,0.040960955941677,0.0009992362465709,0.0006378190591931,-0.0012176904128864
5.259117431640625,0.0056316309451125,-0.0022676800705026,0.037370822495222,-0.0012117200531065,-0.0014801928773522,-0.0001795902790036
5.26909716796875,0.0009307049788534,0.0052658024405594,0.0409632940292358,-0.0007923427037894,-0.0009961072355508,-0.0018866817699745
5.279078125,-0.0078954659575596,0.0036528051528148,0.0391623820871114,-0.0005681045586243,0.0005906047299504,-0.0022541980724781
5.28905810546875,0.000493884464167,-0.003646128816856,0.0313777195602655,0.001631116727367,0.0011879745870828,0.0017899714875966
5.299037841796875,-0.0011581570591777,-0.0017740878672804,0.0463408954143524,0.000510991027113,8.59582796692e-05,0.0011153927771374
5.309018310546875,-0.0038225722291506,0.0088807324015535,0.0427478393584489,-0.000410207954701,-0.0004782248288393,-0.0002328362170374
5.3189990234375,-0.0105464736566878,0.0025958069131709,0.041097149541974,0.0036359326913952,-2.46884301304e-05,4.20020078308e-05
5.328979248046875,-0.0099953973788768,0.0016708284222055,0.0364560457378625,0.0018565829377621,-0.0008884891867637,-0.0013380424352362
5.338958984375,-0.0100359303186647,0.0027303382793441,0.0340612595558166,-0.0016750348731875,0.0006319088861346,0.0003245690022595
5.348940185546875,0.0015429185930639,0.0075610098388046,0.0387023633599281,-0.000874622084666,0.0027385670691728,-0.0015093268593773
5.358920166015625,-0.006225486918725,0.0067149326697923,0.0312198986500501,0.0014676279388368,0.0011704973876476,-0.0004568455624394
5.368900146484375,-0.0111082357252947,0.003542485779291,0.0378004460841417,0.000233317434322,-0.0006718579679727,0.0003736811049748
5.37888037109375,-0.0011687332521192,0.0042998343520797,0.0458855528622865,0.000559554726351,-0.0013381810858845,-0.0011001122184097
5.38886083984375,0.0002077244665473,0.0015097469758242,0.0439402640134096,-0.0003491446259431,-0.0003381678834557,0.0007519802893511
5.398841064453125,-0.0038258784310892,0.002112873101281,0.0373562094479799,-0.0009544811910018,0.0001388043165206,0.0014420052757486
5.4088212890625,-0.0022253844318911,0.0020953374445904,0.0345125104546546,-0.0003680405789054,0.0011567482724785,0.0002880597603507
5.41880224609375,0.0024320129198953,-0.0035441297471057,0.0399012177556753,-0.0003765627043321,-0.0011945562437176,-0.0011369977146387
5.428781982421875,-0.0096524839590303,0.0018741598414257,0.0358580798447132,0.0020016559865325,0.0017581516876816,-8.45238828333e-05
5.438761962890625,-0.0022218042353168,0.0099752953057643,0.0340612595558166,0.0008173482492566,-0.000735898502171,0.0008992478251457
5.4487421875,-0.0080869882079772,0.0083051153375301,0.0387011943161487,0.0021667268592864,-0.0011424021795392,0.0006258410867303
5.45872314453125,-0.0005942943650297,0.0053877939855679,0.0337637379139661,0.0008021230460144,0.0010485798120498,-0.0004404885985422
5.468703125,-0.0052785249248147,-0.0033913046724162,0.0490273580193519,6.69634900987e-05,0.0016195988282561,0.000818071886897
5.47868310546875,0.0029208010838367,0.0063935095625463,0.0282259775310754,-0.0001626010052859,0.0013716584071516,-0.0009958071168512
5.4886640625,0.0056863020081073,0.0025807098087389,0.0354109205991029,-0.0031651682220399,-0.0002217292785644,-0.0001632293133297
5.498644287109375,-0.0033434652090072,0.0014552859753835,0.0343634573727846,-0.0024852633941918,0.0002054423093795,-0.0002029104216489
5.5086240234375,0.0016339944100007,0.0034326687292661,0.0415448933094739,-0.0012047794880345,0.0006878338754177,-0.0009923204779624
5.51860400390625,-0.000864380010683,0.0031700631371699,0.0433428826421499,-0.0022066608071327,-0.001007268205285,1.62185970111e-05
5.5285849609375,-0.0018508154984563,0.0068191145634744,0.0253869547128677,-3.8368278183e-05,0.0001248549669981,0.0010127859422937
5.538565185546875,-0.0014846308008767,0.004968107268773,0.0354115051209926,-0.002645602915436,0.0026679076254367,-0.0012556946603581
5.548545166015625,0.0017334909954108,-0.0001220737433992,0.029426000970602,-0.0013872939161956,0.0004001799970865,0.0001839609176386
5.558526123046875,0.0026974223904311,0.0101563783605583,0.043189737907052,0.0037115942686796,0.0006441259756684,0.0007850363617762
5.568506103515625,-0.0019443024681881,-0.0010427322522737,0.0345090033233165,0.0012087797513231,-0.0015158476307988,-0.0024484228342771
5.578486083984375,-0.0022399974791333,0.0014457600952126,0.0384036726742982,0.0015840189298614,0.0002301214262843,0.0001958298962563
5.5884658203125,0.0031968598125502,0.0018931111370678,0.0321148016631603,7.1112299337e-06,0.0015539163723587,0.0007362202159129
5.598447021484375,-0.003020736060664,0.0046337972804903,0.04423778565526,0.0014737138990312,0.0006644204258918,0.0012621944770216
5.60842724609375,-0.0128035501347854,0.0027307492712978,0.0325648835182189,-0.0006902899476699,-0.0024003349244594,-0.0004857992171309
5.6184072265625,-0.000147664842382,0.0024225327054969,0.0367529828578233,0.0012618070468306,0.0030040182173252,-0.0001366587966913
5.62838818359375,-0.001275061437115,0.0107098840574733,0.0442325249582529,0.0010979044018313,-0.0039706528186798,-0.0008255144930444
5.6383681640625,-0.0034668906592763,0.0038537710850127,0.0406423915117979,0.0007620798423886,0.0003274232149124,-0.0029650980141013
5.64834814453125,0.0022362163531593,0.0008010324508883,0.0400432565748691,0.0009638927876949,-0.0006503863260149,0.0005580730503425
5.658328125,-0.0021466566398739,-0.0051460119857918,0.047074470385909,-0.0013083161320537,0.0021089147776365,-0.0002850837190635
5.66830908203125,-0.0089466920435428,0.0003027458062395,0.0404904158204793,0.0009313024347648,-0.0014424445107579,-0.0004009608528576
5.6782890625,-0.0042242848978377,0.0111005547423381,0.0407908600717783,-0.0016570237930864,-0.0010624108836054,-9.97573442873e-05
5.688269287109375,-0.0007889949532225,0.0024735505066812,0.0369014514178037,-0.0012860730057582,0.000653076916933,-0.001590748433955
5.698249267578125,-0.0049478499320335,-0.0007305610305629,0.0535123944789171,-0.0008937894017435,-0.0029365979135036,-0.000136396207381
5.708230224609375,0.0042155901347286,-0.0108652846817392,0.0413940866619348,0.0023910251911729,-0.0008957274258136,-0.0008259778842329
5.7182099609375,-0.0035061632237397,0.0037309849555604,0.0386976871848106,0.0008333423174917,0.000585788860917,-9.94675574474e-05
5.72818994140625,0.0083059647209011,0.0023205610352102,0.0455798479139804,0.0021462691947817,-0.000660746358335,-0.0021267884876579
5.738171142578125,0.0082169164642691,0.0101248507111333,0.0427379024863243,0.0004293291131034,-0.0017672898247838,-0.0005067875608801
5.7481513671875,-0.0093271427284926,0.0035233792200218,0.0434866750270128,0.0016555526526644,-0.0014866953715682,0.0005639574956148
5.758131103515625,-0.0080089545357041,0.006450071188528,0.0404939229518175,-0.0004454151494428,0.0002531483769416,0.0002049634058494
5.768111083984375,0.0001528159415349,0.0061407860436476,0.0367553209453821,-6.8683642894e-05,-0.0011984705924987,0.0001328512298641
5.778092041015625,0.0038841844895854,0.002588573454786,0.0345101723670959,0.0020064513664692,-0.0007396079599857,0.0009842638392001
5.788072265625,0.0014976729455403,-0.0055548941807821,0.0247825590789318,2.2800755687e-05,0.0016494784504175,0.0020780141931027
5.798052001953125,0.0017304222554899,-0.0005681187441572,0.0342079745501279,-0.0005495125660672,0.0011304281651973,0.0023597765248268
5.808032958984375,-0.0044261093465611,0.0042282030211295,0.036302316480875,-0.0008727654349058,-0.0013248398900032,-0.00153240095824
5.81801318359375,0.0025523878965526,0.0044293607495725,0.0410918888449668,-0.0013856902951374,0.0003881053999066,-0.0006668736459687
5.8279931640625,-0.0008709924145601,0.0147756265258882,0.0400450101405382,-0.0012026828480884,-0.002093999646604,0.0014071869663894
5.83797314453125,-0.0080190923372283,0.0023075736894737,0.039150107127428,-0.0041468073613941,-0.0019536511972546,0.0005389964790083
5.8479541015625,0.002248582644388,-0.0013011913922149,0.0388531700074672,0.0010028937831521,-0.0001932932063937,-0.002486826153472
5.85793408203125,-0.0069817303798161,-0.0069004270382225,0.0346598099708557,-0.0010402834741398,0.0021415008231997,-0.0001794632553355
5.8679140625,0.0013448022050783,-0.0055472040646709,0.0395966818511486,0.0009731672471389,0.0009637558832764,0.0003422217851039
5.87789404296875,0.0047833435527049,0.0035341015434358,0.0342068055063486,0.0003984570503234,0.0014769462868571,-0.0012271790765225
5.887875,-0.0053825880874879,0.0080481083691585,0.0312140534311532,0.0021906974725425,-0.0002998765558004,0.0012325760908424
5.897855224609375,0.0009007847646251,0.0014080310338642,0.0412386038392782,0.0005259555764496,1.46431848406e-05,0.0011233864352107
5.907835205078125,-0.0068851746701635,0.0088393409452401,0.0339069457769393,-0.0036534243263304,-0.0006791148334741,0.0007374594570137
5.917816162109375,-0.0102887725685723,0.0053493068723939,0.0385468805372715,0.0020915467757731,0.0005001332610845,0.0009979165624827
5.927796142578125,0.0049529462322592,-0.0017314269024878,0.0354062444239854,-0.0023946370929479,-0.0016690604388713,0.0014964105794206
5.937776123046875,-0.0012641016516834,0.0047809963319916,0.0322661928325891,-0.0015605348162353,-0.0009396206587553,-0.0021867412142455
5.94775634765625,0.0047834531505592,-0.0019826160514261,0.0352571913421154,0.0014212342211976,0.0008477298542857,-0.0004982869140803
5.957737060546875,0.0005219780474901,0.0013491495866328,0.0310655848711729,-0.0002155445399694,0.0016552004963159,-0.0009459643042646
5.967717041015625,-0.0023385990153998,0.0152452076658606,0.0382481898516416,0.0010042664362117,-0.0005211969837546,0.0012462319573387
5.977697265625,-0.0002186842519789,0.0148128989295102,0.034806524965167,0.0011448812438175,-0.0006857803091406,-0.001486703986302
5.98767822265625,0.0022487287748605,0.0052671358811203,0.0403442853480577,0.0004254868254065,0.0017875963822007,-0.0011977406684309
5.997658203125,-0.0052326947554014,0.0041847018061205,0.0454325483977794,-0.0014107626629993,0.0003678649663925,-0.0001647004246478
6.007637939453125,-0.0052372795989736,-0.0024868757791351,0.0370522580653429,-0.000484152464196,0.0017735073342919,0.0008908031741157
6.0176181640625,0.0081122687797062,0.0022881109371781,0.0312187296062707,-0.0008322276407852,-0.0027717091143131,0.0009379411349073
6.02759912109375,0.0002889182102866,0.0108435843065846,0.0349585006564855,0.0013178541557863,0.0011073611676692,-0.0005548146436922
6.037579345703125,-0.0076301843511871,0.0090705467520747,0.0407961207687854,-0.0026878064963966,-0.0012338235974311,0.0001961967500392
6.04755908203125,0.0039832792161963,0.0122088173783384,0.0327162746876478,-0.001633781241253,-0.0002433406189084,0.0003531008551362
6.0575390625,-0.0051343306811526,-0.0039261330683249,0.0433417135983705,0.0001470745773985,-0.0011235158890485,0.000256960716797
6.06752001953125,-0.0092183851243928,0.0025631467525847,0.0445405679941177,-0.0006258838693611,-0.0010110912844538,-0.0004704429011326
6.077500244140625,-0.0077460475495085,0.0010371975606307,0.0345177711516618,0.0005736039020121,-0.0006073564291,-0.0022153460886329
6.08747998046875,-0.0026611089680343,0.0039359329431317,0.047386020553112,-0.0006106946384534,0.0014099115505814,0.0003308783343527
6.0974609375,0.0026889102904126,-0.0010539842986501,0.0421504579871892,-0.0007196178776212,0.0011095069348812,0.0001484517997596
6.107441162109375,0.0021716084180399,0.0087517813927959,0.036009471014142,-0.0008299393812194,-0.0001376559957861,0.0023582244757562
6.117421142578125,-0.007120335132908,0.0057230538219213,0.0428910472214221,0.0015466654440388,-0.0004082331433892,3.30184047925e-05
6.12740087890625,-0.0018800963918678,0.0078317530715838,0.0339098683863878,-0.0006438444252125,0.0022049974650144,-1.90623723028e-05
6.1373818359375,-0.0003297982099466,0.0004541369756683,0.0413882414430379,9.67805972322e-05,0.0010553114116191,0.0026100103277713
6.14736181640625,-0.005930887886323,0.0028752083764411,0.0460287607252597,0.002343722153455,-0.0005521113052964,0.000220312125748
6.157342041015625,-0.0128337626099586,0.0037108098172117,0.044530631121993,0.002262762049213,0.0001280596479773,0.001352421939373
6.167322998046875,-0.0166030702819116,0.0004326557962223,0.0410883817136287,-0.000681824167259,-0.0005605788901448,0.0005317229661159
6.177302978515625,0.0048767574572004,-0.0032285883913747,0.0386935955315828,0.0006380383856594,-0.0005461983382701,0.0016534464666619
6.187282958984375,0.0061149940152652,0.004230257980898,0.0395925901979207,0.0022747479379177,-0.0012592384591698,0.0021091471426188
6.197262939453125,-0.0020809344599023,0.00273880471359,0.0375000018328428,0.0026523838751018,-0.0005740076303482,0.0018950289813801
6.207244140625,-0.0001176350302994,0.0007391918615903,0.0324117387831211,-0.0024737494532018,0.001821331679821,0.0015727137215435
6.217223876953125,-0.0006728029613383,0.0060331152849365,0.0382446827203035,0.0017074134666472,-0.0004106629639863,0.0004153039772063
6.227203857421875,-0.0074656962381675,0.0115020573484711,0.0421358449399471,-0.0023651234805583,-0.0014552101492881,0.0015960249584168
6.23718408203125,-0.0021982954955659,0.0086236249684821,0.0377975234746933,-0.0013387410435825,-0.0004980703815817,-2.4043183657e-06
6.247165283203125,-0.0021368110992945,0.0029470406367909,0.0377986925184726,-0.0004802063922397,-0.0011921599507331,-0.0002658782177604
6.25714501953125,-0.00418972504111,0.0054942226352635,0.0391465999960899,6.81384699419e-05,-0.0003980053588747,0.0016321566654369
6.267125,0.006381444665417,-0.0041183859711047,0.0448334134608507,0.000291425269097,-0.0003655860200524,0.0019402040634304
6.27710595703125,0.0064459247363731,-0.0013066164860036,0.0403460389137268,-0.0002332174335606,0.0014339117333292,5.49523101653e-05
6.2870859375,-0.0102728991460055,0.0069929276272654,0.0360036257952451,-2.7673086151e-06,0.0002245679497718,0.0025081580970436
6.297065673828125,-0.005135865051113,0.0113274223007727,0.0469265863478183,0.000198567751795,-0.0014249933883547,-0.000950489018578
6.307046142578125,-0.0001648169065825,0.0036954569844529,0.0422901587188243,0.0026561848353594,-0.0046641803346574,0.0027063635643571
6.317027099609375,0.001746405275911,0.0040768027185462,0.0451397029310464,-0.0009673120803199,-0.0009562605991959,0.0030552376993
6.327007080078125,-0.0037856742848642,0.0016721527296118,0.0532201335340738,-0.000896313402336,-0.000130902044475,0.0001104952389141
6.33698681640625,0.0016992051333189,0.0005770144366659,0.0428963079184293,0.001346600940451,-0.0005186591297388,0.0008758877520449
6.346966796875,0.009122468735557,0.0096318064971826,0.0434960273772478,-0.0001385447685606,-0.0012093596160411,0.0022585887927562
6.356947998046875,0.0058648734454065,-0.0004726864125113,0.0402022465288639,-0.0019502933137118,0.0019558072090148,0.0012876001419499
6.366927978515625,0.0009919701794162,0.0012951361107639,0.0406499902963638,-3.02396365441e-05,-0.0004584323614835,-0.0024078062269836
6.376907958984375,-0.0009879515914246,0.0023404530457686,0.037212417063117,-0.0003423620946705,-0.0015820199623703,-0.0001971162564586
6.386888916015625,-0.0045472697745077,0.0039827038274612,0.0406564200371503,-8.71445517987e-05,-0.0001465613022446,0.0013071033172309
6.396869140625,0.0035065468162298,0.0060129036139696,0.0493354010552167,0.0011773244477808,0.0011277608573436,-0.0012266281992197
6.40684912109375,0.0065136562103405,0.0027919140071608,0.0446978043824434,-0.0001940440270118,-0.0007539680227637,-0.0026609385386109
6.416828857421875,0.0010243015464395,0.0057605271549429,0.0485895511239767,-0.0001466397661715,-0.0009153559803962,0.0020611123181879
6.426809814453125,-0.0051019262488931,0.0030653241210617,0.047542672419548,-0.0004735523252747,0.0003917310386896,0.000547400501091
6.436789794921875,0.0057517684597522,0.0027589889850933,0.0439496163636446,-0.0021548059303313,0.0012993356212973,0.0021836464293301
6.446770263671875,0.0051096528976224,0.0060283295119646,0.0391606285214424,-0.000633810297586,0.0010699583217501,-0.0005549631314352
6.45675,-0.0023082586760632,-0.0006685195118654,0.0411070864140987,5.78126637265e-05,-0.0018011955544352,0.0001457145845051
6.46673095703125,-0.0069961424976587,-0.0051839967754669,0.0390092373520135,0.0036270604468882,0.0013882191851735,0.0001827584055718
6.4767109375,-0.0035849275483749,0.0026301110415719,0.0406546664714813,-0.0005860603414475,-0.000799567438662,-0.000708068953827
6.48669091796875,0.0037780572339892,0.0014339874590281,0.0452940167099237,-0.0017375333700329,-0.0001131370663642,0.0014678746229037
6.496672119140625,-0.007830803223513,0.0023459329384844,0.0352712198674678,-0.001144447363913,-0.0005994299426674,-0.0008562660077586
6.50665185546875,-0.0041589463103562,0.0056143875493668,0.0470914215207099,0.0013694730587303,0.0001729503273963,-0.0003690981247927
6.516632080078125,-0.0043774844318628,0.0017347057049628,0.0472375519931316,-0.0003581194323487,3.68626788258e-05,-0.0008194386027753
6.526612060546875,-0.0115361057485453,0.0032777886948082,0.0448433503329753,-0.000427579449024,-0.0009858915582299,0.0004534022300504
6.53659326171875,-0.0004271393708884,0.0012804317319765,0.0397568408489227,0.0003849510103464,0.0010461006313562,4.99333254992e-05
6.546572998046875,-0.0028217611561529,0.0032595497852191,0.0399047248870134,0.001653409213759,-0.0013318443670868,-0.0010852221166715
6.556552978515625,-0.0033549912500195,0.0060989653290715,0.0518757331877946,0.0026568882167339,-0.0017132088541984,0.0004274533421266
6.566532958984375,-0.0026253618012182,0.0092425149186514,0.0443961910873651,-0.0004938672063872,-0.0003674551844596,0.0009651849977672
6.576513671875,-0.0085015420919284,0.0018494820578955,0.0399053094089031,0.0014582297299057,0.0012016799300909,0.0004935391480103
6.586493896484375,0.0012453238859772,0.0066687828399706,0.0364636445224285,0.0003301450051367,-0.0018815444782376,0.0016570464940741
6.59647412109375,-0.0012742394532077,0.0070831723271403,0.0448445193767547,-0.0004237958346493,1.80881470441e-05,-0.0006143635837361
6.6064541015625,-0.0049222953656688,0.0096616079804021,0.0494815315276384,8.86372290551e-05,0.00047785975039,0.0001707252813503
6.61643505859375,0.0069582581726834,0.005330985764414,0.0475344891130924,9.36972210183e-05,-0.0006204284727573,0.0005496930680237
6.626414794921875,0.0061563124063424,0.0031618250317871,0.0348129547059535,0.0014064562274143,-0.0004195962101221,0.0005539197009056
6.636394775390625,-0.0021043518681079,0.0077360558784566,0.0476800350636243,0.0014759647892788,0.0002097086980938,8.22738948045e-05
6.6463759765625,0.0006041947045363,0.0091349628909491,0.0399006332337856,-0.0002522739232517,-0.0002150051295757,0.0004994159098714
6.65635595703125,-0.0099718521065078,0.0047981940619647,0.0384054262399673,-0.0012078161817044,0.0007384065538644,-0.0001669070043135
6.6663359375,-0.0101964181100018,0.0008031422095838,0.0422954194158315,0.0005834258627146,-0.0014973832294344,0.0015301671810448
6.67631591796875,-0.002402458031848,0.0017407975190319,0.0418494292140007,0.00082950189244,-0.0014566360041499,-0.0008214040426537
6.686297119140625,-0.0069734192091971,-0.0008203308064024,0.049333062967658,1.97845511138e-05,0.0003972733393311,-0.0006948778755031
6.696277099609375,0.0044832828938961,0.0062284917265642,0.047386020553112,0.0002416259376332,1.77733600139e-05,-0.0001579845993546
6.7062568359375,0.0025337562613189,0.0092664255172014,0.039903555843234,0.0022211694158613,-0.0001105647534132,-0.0022820667363703
6.716237060546875,0.0006142777071334,0.0056111178800463,0.0391565368682146,0.0001841173507273,-0.0008424017578363,0.0005866903811693
6.7262177734375,-0.0023117110084742,0.0050216458206064,0.0418500137358903,0.0015475226100534,0.0008710287511348,-0.0007838807650841
6.7361982421875,-0.0047991256437264,0.0049247795837,0.0420002358615398,0.0015086405910551,-0.0006269989535212,-0.001180958119221
6.746177978515625,0.0053879401160404,0.0015075641518924,0.0409562797665596,0.0013917674077674,4.28305938839e-05,0.0003185734094586
6.756158935546875,-0.0014711319984868,0.0002361468434333,0.0342237566411495,0.000458063208498,-0.0014083264395594,0.0004176429938524
6.766138916015625,-0.00017990487786,-0.0013371212221216,0.0417068058729171,-0.0001049084239639,0.0010170182213187,8.60440486576e-05
6.776118896484375,0.005300828088168,0.0016294552322011,0.0426034624516963,-0.0026647388003766,0.0010375240817666,-0.0018894888926297
6.786098876953125,0.0055503824024461,0.0054775363619439,0.0452963547974824,0.0003555037546902,0.0012516751885414,0.0002732957364059
6.796079833984375,0.0028944610661827,0.0055960299087688,0.0357207172006368,-0.0025140522047877,0.0005230344831943,-0.0002542764996178
6.80606005859375,0.0013061324288137,0.0084952676147688,0.0470908369988203,0.0012084391200914,-0.000584109686315,-0.0001784044725354
6.8160400390625,0.0024391367804259,0.0021062150316312,0.0363151759624481,-0.0013750934740528,0.0019554803147912,0.0005078921094536
6.826019775390625,0.0132772503274492,0.005580868872255,0.0268891759693622,-0.001119484193623,0.0006119264289736,-0.0024265979882329
6.8360009765625,-0.0053164823150262,0.0082041026484686,0.0425958636671304,0.0011737638851627,0.0032926639541983,-0.0024734695907682
6.84598095703125,0.0043441666841506,0.0082882190016563,0.0455798479139804,-0.0004638168029487,0.0018481519073247,0.0003672619932331
6.8559609375,-0.0044722500432282,0.0025556575658731,0.0406394689023494,-0.000660890713334,0.0001474572345614,0.0013513000449165
6.86594091796875,0.0056113005431368,0.0030254853010177,0.0357008434563875,0.0004627029411494,-0.0011024260893464,0.0016760065918788
6.875922119140625,-0.0094959599567577,0.0091041384944226,0.0246282453000545,-0.0011517053935676,-0.0012339865788817,0.001444844296202
6.885902099609375,-0.0031501711266115,0.0072105524333193,0.0482704021722078,-8.48802155815e-05,-0.0004062550142407,-0.0022854884155094
6.895882080078125,-0.002456855100207,0.0065196932254824,0.0418336471229791,0.00050154782366,0.0003434251993894,0.0012743590632453
6.90586279296875,0.0009057714669965,-0.0006802190828137,0.0400350732684135,0.0002660132013261,0.0006963489577174,-0.0004852674319408
6.9158427734375,-0.0030062874102033,0.0084619224675931,0.0415291112184524,-7.40724499337e-05,0.0008817054331302,0.0028010732494294
6.92582275390625,-0.0029232305029407,0.0051543505558744,0.0367412924200296,-0.0009926956845447,-0.0019035041332244,0.0006559494649991
6.93580322265625,-0.0019041896535083,0.0103217067237943,0.0437725062310695,0.0013538155471906,-0.000667531043291,0.0013358544092625
6.9457841796875,-0.0047260056085884,0.0046094939562957,0.0306038125783205,-0.001922114752233,-0.0023722546175122,-5.29261742485e-05
6.955763916015625,0.0003564487548545,0.0053958585610147,0.0394318466782569,0.0004747302737087,-0.0002550417557358,0.0001007382234092
6.965743896484375,-0.0132766475392505,-0.0049797063750214,0.0485597405076026,0.000768749974668,-0.0010262783616781,-0.000569702067878
6.975723876953125,-0.0098942385593429,0.0049122580288443,0.0407785851120948,-0.0003569682594388,0.0020512705668807,0.0004388369852676
6.985705078125,-0.0041575946034863,0.0062864233257248,0.0454150127410888,0.0013449087273329,-5.72586432099e-05,0.0009350423933938
6.995684814453125,-0.0080651782349683,-0.0024130524910986,0.0365863941192626,-0.0001901371870189,0.0014104088768363,0.0005494167562574
7.0056650390625,0.0029719650154933,0.0069089300050865,0.0344920521885156,0.0001531059388071,0.0017540445551276,-9.71131084952e-05
7.01564501953125,-0.0035046105874702,0.0041524343711789,0.0367360317230224,-0.0004532958264462,0.0003180680796504,9.99608018901e-05
7.025626220703125,-0.0041663806981407,0.0048150903978385,0.0355371773272752,0.0013352361274883,0.0020735161378979,0.0010509637650102
7.03560595703125,-0.017790581299737,0.0022121048252098,0.0409229620188474,0.0028412537649273,-0.0015049735084176,0.0012656145263463
7.0455859375,-0.0040728023968636,0.0037567495844792,0.0406236868113279,-0.0006349984323605,-0.0006934674456715,0.0012888301862403
7.05556689453125,0.0007410824245773,0.0054164446913171,0.0434656322389841,0.002568518044427,-0.0003174291923642,-0.0008483566343784
7.065546630859375,-0.0015161767166107,0.0075716773632913,0.0512438650250434,-0.0005576501716859,-0.0005701854825019,-0.000262773479335
7.075527099609375,-0.0063062788036651,0.00860071901693,0.04705401211977,6.23337691649e-05,-0.0005808379501104,-0.002086772583425
7.085507080078125,-0.0038752887970767,0.007343184103351,0.0449608392328023,-0.0002462210832163,-0.0005431873723864,0.0009450975921936
7.095488037109375,0.0031528197414241,0.0060816671343985,0.0389759196043014,0.0002768237609416,0.0016350112855434,-0.0026094235945492
7.105468017578125,0.0087900401771068,0.0051277639430481,0.0467547369122505,0.001396364881657,0.0014846622943878,0.0010522668017074
7.11544775390625,0.0043105932081118,0.0056144240819849,0.0403220735162496,0.0014954345533624,0.0006188694387674,-0.0003134022117592
7.125427978515625,0.0019052125668153,0.0107099936553277,0.0419657490700483,0.0023425105027854,-0.0014838082715868,-2.01419607037e-05
7.135408935546875,-0.00464093940733,0.0012091748603619,0.0389700743854045,0.0024668797850608,-7.10012391209e-05,-0.0003945823991671
7.14538916015625,-0.0074932783648371,0.0062728788575623,0.0400157840460538,0.0007711619837209,0.0003914190456271,-0.0012296083150431
7.155368896484375,-0.0041414471862837,0.0058185683519579,0.0406155035048723,7.23485136404e-05,-5.65247610211e-05,-0.000222400878556
7.165348876953125,-0.0047719088432379,0.0074262866763863,0.041956981241703,0.0020116874948143,0.0021207649260759,0.0007054064190015
7.175330078125,-0.0002437273616902,0.0125031332829501,0.0347702846080064,-0.0003468078793957,0.0009452449157834,-0.0032541814725846
7.18531005859375,-0.0123621082439087,0.0050073615669272,0.0350683907717466,-0.0017806674586609,0.0002252208068966,-0.0015982585027813
7.195289794921875,-0.011051153509505,-0.0004045530797448,0.0418050055503845,0.0021006234455853,0.0016191191971302,0.0011221605818718
7.205270751953125,-0.0048782370282337,0.0048273379580583,0.0382096114069223,-0.0004265080206096,0.0020705657079815,0.0008991053909994
7.215251220703125,-0.0079563475656323,0.0053366848528385,0.0491302338719367,-0.0004824343486689,0.0005365842953324,-0.000138462128234
7.225231201171875,0.0071578358653932,0.0030031364718917,0.0449397964447736,-9.88533720374e-05,0.0007372982800006,-0.0006348740425892
7.2352109375,-0.0032064678911119,0.0012237239755224,0.0283306069493293,-0.0009856859687715,0.0025093657895922,0.000924673047848
7.24519189453125,0.0059141011483035,0.0001494640738237,0.0409007501870393,0.001656744396314,-2.9856339097e-05,-0.0003518367302604
7.255171875,-0.0006144238376058,0.0066945200694259,0.0411965182632207,0.0011416890192776,0.0008551124483346,-0.0005206811474636
7.26515185546875,-0.0047282340982928,0.0120817751988768,0.0461363127529621,-0.0004214096115902,-0.0002970229834318,-0.0024486267939209
7.275132080078125,-0.0085302749960683,0.0021319705273956,0.0429933385521173,0.0001562300603836,0.002137373201549,-0.0007740309811197
7.285113037109375,-0.0078787705510854,0.0055916642609052,0.0326660058051347,0.0012102900072932,0.0002080192789435,0.0006457025883719
7.295093017578125,-0.0029272125583142,0.0041823545854073,0.0419447062820196,-0.0014406203990802,-0.0015009306371212,-0.0004131702298764
7.305072998046875,-0.0017054522110149,0.0129204271132592,0.0495809002488851,0.0004017922328785,-0.0021634930744767,0.0003133593418169
7.315052734375,-0.0060394810936413,0.0063050823604222,0.0464373415261507,0.0022351122461259,-0.0003799740225076,0.0017546621384099
7.325033935546875,-0.0062850716188549,0.0075193809204734,0.0416495227277278,-0.0034722569398581,-0.0003364039584994,0.0013246755115687
7.335013916015625,0.0002916216240264,0.0083812675799708,0.0449421345323324,0.0020066644065082,-0.0014698449522256,-0.0003549801185727
7.344994140625,-0.0062333231653086,0.0063885593927931,0.0376098919481039,0.0014105861773714,0.0012449407950043,-0.0034789135679602
7.354973876953125,0.0012135953071527,-0.002746421764465,0.033866613766551,0.000313896453008,0.000281143002212,0.0009086443460546
7.364955078125,0.0083266787153668,-0.0001743610530626,0.031921324917674,-0.0012549492530524,0.001509990543127,0.0018489414360374
7.37493505859375,0.0003455072357319,0.0110394722048658,0.0382066887974739,-0.0018498994177207,-0.0008836593478918,-0.0014882658142596
7.3849150390625,0.0010907726450823,0.0059631644544191,0.0461357282310724,0.0007124963449314,0.0017269756644964,0.0003378952678758
7.394895751953125,0.0032562435832805,0.0113042332214303,0.0425432566970586,0.0025436859577894,0.0015999423339962,-0.0003633150481618
7.404875732421875,-0.002098506649211,0.0112117143660783,0.04283902477324,0.0018768279114738,0.002899657934904,-0.0008325478993356
7.414856201171875,-0.0080994823633693,0.0128462476321961,0.0536129322439432,0.000737793976441,-7.53598287701e-05,0.0010841290932148
7.424836181640625,-0.0018971205919049,-0.0012536350565962,0.0450906030923128,-0.0011108014732599,-0.0010895924642682,0.0013583311811089
7.434817138671875,-0.0029772622451186,0.0028352051596157,0.0440431398659944,0.0007198554230853,0.0018577277660369,0.0006043902831152
7.444796875,0.0001382028942927,0.0016442783419974,0.0403051223814487,-0.0003847565967589,-0.0020036809146404,-0.0012918434804305
7.45477685546875,0.0062747328879311,0.0087425021077971,0.0434516037136316,0.0030097085982561,-0.0010987389832735,0.0006791619816794
7.464757080078125,0.0029100787604227,0.0006834978852886,0.0425520245254039,-0.0006483148317784,-0.0003578066825866,0.000325606088154
7.474738037109375,0.00093057711469,0.0031511301078367,0.038357495445013,0.0004118896322324,0.0011266395449638,0.0001394511637045
7.484718017578125,0.0022220782299526,0.007263122870773,0.0465869791299104,-0.0028110835701227,-0.0005769096314907,-0.0001095615225494
7.494697998046875,-0.0103274423448368,0.0033652112499345,0.0434486811041831,0.000437440117821,-0.0026658931747078,-0.000355371274054
7.504677978515625,-0.0057203321418724,0.0046892903273925,0.0323749139040708,0.0005694626597687,0.0009693503379821,-0.0012710710288956
7.5146591796875,0.0010028386333025,0.0020135957115795,0.0467395393431186,9.00937011465e-05,-0.0004634298384189,0.0009846263565123
7.524638916015625,0.0008719239963218,-0.0017662424875423,0.0380611428469419,0.000434779562056,-0.0005011977627873,-0.0008931814227253
7.534618896484375,-0.004628828844428,0.0037957846869248,0.0458428827643394,-0.0006587143288925,-0.0016436940059065,-0.0004431072156876
7.54459912109375,-0.0026017982625402,0.0056297403821256,0.0389595529913902,0.0005800324724987,0.0021831365302205,-0.001518057542853
7.554580078125,-0.0032956074792891,0.003619615269266,0.0416501072496175,0.0002569910138845,0.0005543464794754,0.0013882501516491
7.56456005859375,-0.0017311163752339,0.0084836411090567,0.0425485173940658,0.0012459147255867,-0.0020001009106636,0.0009430419886484
7.5745400390625,0.0014569208100438,0.0105086897964123,0.0385100556582212,-0.00038367358502,-0.0004195151850581,-0.0006002598674967
7.58452001953125,-0.0064338689723983,0.0058017816139385,0.0449427190542221,0.0007615106878802,0.0024155434221029,-0.0012513116234913
7.5945009765625,-0.0063696263634599,-0.0088492686842102,0.0395540117532014,-0.0001689977943897,0.0002040546387434,0.0010749595239758
7.604480712890625,-0.0040270087600685,0.0046422728478908,0.0397001422256231,0.000140655785799,0.0018960833549499,0.0012535417918115
7.6144609375,-0.003832764829602,0.0147318056504707,0.0402992771625518,-0.0012167573440819,0.0007956651970744,-0.0001094640465453
7.62444189453125,-0.0022238683282397,0.003937412514165,0.0444867919802665,0.0003257298376411,0.001401737332344,0.0002272660203743
7.634422119140625,-0.0062421823251992,0.0069653911663684,0.0338595995038747,0.0002607486676424,0.0005655046552419,0.0003729409072548
7.64440185546875,-0.0098688849223777,0.0083164952480699,0.0362508785545825,0.0019576936028897,-0.0006930232048034,-0.0009906111517921
7.6543818359375,-0.0084342855419963,0.0091340313091874,0.0383440514415502,-0.001503616804257,-0.0007857009768486,0.0002924998989328
7.664363037109375,-0.008141677537281,0.0051318921288941,0.0386444956928491,-0.0004295056569389,-0.0001232158392667,3.78542172256e-05
7.674343017578125,-0.003484462848585,-0.0009530446748249,0.0513631074905395,-0.0002513401559554,-0.0014167129993438,1.76141911651e-05
7.68432275390625,-0.0020989267743192,0.0014029986657202,0.0407417602330446,0.0011382719967514,0.0001322878524661,-0.0002378308563493
7.694302978515625,0.0003230031429789,0.0055967788274399,0.0334118557363748,-0.0012764160055667,-0.001710619777441,0.000407719402574
7.7042841796875,-0.0033885829923674,0.0025106493803672,0.0335632469058036,0.0010165309067815,-0.0014944095164537,-0.0021355594508349
7.71426416015625,-0.001110080133751,-0.0002737754400819,0.0377566069424152,-0.0001512651215307,-0.0018107937648892,0.0010312055237591
7.724243896484375,-0.0054290027787908,0.0004818469665013,0.0500303975820541,0.0004173617344349,-0.001217832788825,-0.0008475788636133
7.734223876953125,-0.0069187481462024,0.0007858166154474,0.0486854127138853,-0.0035965545102953,0.0004210760816931,0.0009833443909883
7.744204833984375,-0.0025786000500433,0.0015607647770084,0.0488397264927625,0.0001653400249779,-0.0018652407452464,0.0004058619961142
7.75418505859375,0.0026822248212993,-0.0068115705778356,0.0431552511155605,-0.0031265933066606,-0.0007882583886384,3.30194161506e-05
7.7641650390625,-0.0094180176160298,0.002467248630058,0.0497422282904386,-0.0025483313947916,-0.0011222632601857,-0.0010989852016791
7.77414501953125,-0.0065500061653554,0.0082033811292611,0.0440571683913469,0.0008980652783066,-0.0018194783478975,0.0019237026572227
7.7841259765625,-0.0009602963995188,0.0068087027673143,0.0464513700515031,-0.001267826417461,-0.0018062153831124,0.0002621296443976
7.79410595703125,-0.0089033826247788,0.0125099192167632,0.0512426959812641,-0.0001245313324034,-0.0011705188080668,0.0012509613297879
7.8040859375,-0.0074031706622801,-0.0006707206021063,0.0400216292649507,0.0004897795151919,0.0003294274210929,-0.0011722670169547
7.81406591796875,-0.010838332742732,0.0079441913369577,0.0433148255914449,0.0010298686102032,0.0011869650334119,-0.0008638729341328
7.824046875,0.003063004299812,0.0039801282778847,0.0485527262449264,-0.0014072002377361,0.0002304427325725,-0.00170053250622
7.834027099609375,-0.0039643370537087,0.0112407121316995,0.0389765041261911,0.0002828418510034,0.0006781201809644,-0.0020443466491997
7.8440068359375,-0.0054178055313415,0.0147682652033399,0.0472065723329782,0.001235538162291,0.00097347330302,-0.0011806045658886
7.85398681640625,0.0045509961015544,0.003412886316562,0.0461579400628805,0.000786529155448,-0.000548523850739,-0.0001970991725102
7.863968017578125,0.0031948139859363,0.0064847954420372,0.0394265859812498,0.001445249421522,-0.000413192436099,0.0004934927565045
7.873947998046875,-0.0043693376580253,0.0028934655523393,0.0343400764971971,-0.0013084590900689,0.0021500997245311,-0.001607208745554
7.883927734375,-0.0102327863313257,0.0033616858522873,0.0518435844838619,-0.0026608542539179,0.001951603218913,4.879984771832824e-07
7.893907958984375,0.0001058349946513,0.0081538702985737,0.0503489620119333,-0.002115705050528,0.0009095082059502,-0.0004783483454957
7.90388916015625,-0.003482015163172,0.0049641800123266,0.04586041842103,-5.07896766066e-05,-0.000278984196484,0.0014216783456504
7.913869140625,-0.0070008734717033,0.0070104998165741,0.0530418543577194,-0.0012212488800287,0.0008224993944168,-0.0016534738242626
7.923848876953125,0.0001865903469733,0.0039186986805405,0.0416705655157566,0.0025404780171811,0.0002177553251385,-0.0012832845095545
7.933829833984375,3.07421981357e-05,0.0027486411210149,0.0404734646856784,0.0004717343254014,-0.0001447005197405,-0.0008806146215647
7.943809814453125,-0.0008729103770107,-0.0008322404399048,0.044812370672822,7.04583944752e-05,0.0011574672535061,-0.0003090566024184
7.9537900390625,-0.0005368833556771,-0.0002910097026731,0.0311918415993452,0.0014981790445744,0.0001529231667518,0.0001016028400044
7.96377001953125,0.0003818389244377,0.0043469066305086,0.034933366215229,-0.0005851148162037,0.0003915997222065,0.001883020857349
7.9737509765625,-0.0079764770382083,-0.000510178011842,0.0436117627114057,0.0024897707626223,0.0011138496920466,-0.0003401858848519
7.98373095703125,0.0047943946696817,-0.0028486034973058,0.0313408946812152,-0.001686172792688,-0.0002543730661273,0.0014277738519012
7.9937109375,-0.0010895122697576,-0.0032783275509253,0.04166413577497,0.0015551605029031,0.0014404626563191,0.0013715812237933
8.00369091796875,-0.0064659811437129,0.0032030246918555,0.0427080918699502,0.0014282563934102,0.0018650013953447,-0.000227908938541
8.0136708984375,-0.0049061479484662,0.0089145342064555,0.0527314732342958,-0.0001533950562588,0.0013595335185527,0.0008144523017108
8.023651123046875,-0.0061687334964983,0.0021790245395153,0.0516828409641981,0.0001560376258566,-0.0016791429370641,-0.0015869402559474
8.033632080078124,0.000125124217011,0.0066918623214587,0.0410620782285928,-0.0020743596833199,-0.0009536975994706,5.62301138415e-05
8.04361181640625,0.0018319646675139,-0.0003298895414918,0.0425596233099699,0.0015781158581376,-0.0003791730850934,-0.0011767114046961
8.053592041015625,0.0005059584944508,-0.0013307736797258,0.0540793807119131,-0.0035727040376514,0.0041993334889411,-0.0020755282603204
8.063572021484376,-0.0024160846984013,0.0047046888259239,0.0359708925694227,-0.0037381923757493,0.0011858493089675,0.0007287611952051
8.073552978515625,-0.0073665649789385,0.0062429038444068,0.0323807591229677,0.0015090337255969,-0.0010975450277328,-0.0005492898053489
8.08353271484375,-0.0022248364426195,0.010114521113364,0.0442021298199892,-0.0006601480999961,0.0005201399326324,0.001543439226225
8.093512939453126,-0.0074091802779585,0.0027631719698663,0.0471960509389638,-0.0013331288937479,-0.001674304716289,0.0016321224393323
8.103492919921875,0.0011879494092427,0.0057424800415989,0.0452525156557559,0.001978007145226,-0.0004767086356878,0.0009380341507494
8.11347412109375,2.8769436758e-05,0.00272752526775,0.0440548303037881,0.00238041090779,-0.0004399567842483,-0.0006364266737364
8.123453857421875,0.0022325082924216,0.0080054474043659,0.0471942973732948,0.0036089932546019,0.0008156038820743,0.0004111964371986
8.1334375,-0.006329440483544,-0.0024628738490398,0.045243163305521,0.0003807093016803,0.0018984451889991,0.0042615947313606
8.14341748046875,-0.0049747927378863,0.0039741003958974,0.0398515333950519,0.0013495520688593,0.0007277242839336,-0.0008215246489271
8.1533984375,-0.0092418390652164,0.0028965251591056,0.0462877039223909,0.001130107557401,-0.001739427447319,6.85038103256e-05
8.163378662109375,-0.0006087430154904,0.012454042577371,0.0524251837641,-0.0013887548120692,0.0002594189718365,0.001246043248102
8.173358642578124,-0.0038842392885126,0.0031012630841229,0.0506307015627622,-0.0007972667226567,-0.0004476504400372,-0.0026837172918021
8.18333837890625,-0.0013938289785757,0.0060181369115132,0.044646366456151,-0.0004287667688913,-0.0014251191169023,-0.0002427850413369
8.193319580078125,-0.0045118514012545,0.0107510837175417,0.0373152929157018,-0.0025204136036336,-0.0005209753289818,-0.0002363934472668
8.203299560546874,-0.000111607148312,0.0075345967559143,0.04405132317245,0.0003710752353072,-0.0002805823460221,-0.0016919064801186
8.213279541015625,-0.0013694251896813,0.0103673359638079,0.0392617508083581,1.6948906704e-06,0.0008347490802407,0.0002085252781398
8.223259765625,-0.0104496439523994,0.0119129214379936,0.0431511594623327,-3.5838689655e-05,-0.0003634290769696,-0.0006927543436177
8.233240478515626,4.23230380751e-05,0.0089617617485113,0.0368663801044225,-0.0004702002042904,0.0004488350823521,-0.0013577457284554
8.243220703125,-0.0016944924255833,0.0080168455812148,0.0431546665936708,-0.0006005761679261,0.0013151774182915,8.70531221153e-05
8.25320068359375,-0.0031835436732508,-0.0001050495433621,0.0455459456443786,0.0020013321191072,0.0032691387459635,-0.0001329239748883
8.2631806640625,-0.0121908433302305,0.0065928041274659,0.0329746333628892,0.0025207665748894,-0.0020085051655769,0.0009011783404275
8.273161376953125,-0.0025720241787843,0.004584980569547,0.0394108038902282,-5.05155185237e-05,-0.0003621391952037,-0.0008064404828473
8.283141357421876,0.0050366059277206,0.0048250090036541,0.0415010541677474,0.0012734812917187,0.0021222056820988,-0.0001492745795985
8.293121826171875,-0.0006380056425929,0.0105996560154948,0.0434469275385141,-0.0028472277335822,-0.0004722457379102,-0.0009498207946307
8.303101806640624,-0.0041391638976521,0.0139144248529802,0.0456932451605796,-0.0007114895852282,0.0009248992428183,-0.0007437752792611
8.31308251953125,-0.0047808045357465,0.0041596404301002,0.0419517205446958,-0.0006555632571689,-0.0006916392594575,-0.0006034267134964
8.3230625,0.0028452516295947,0.0055519715713337,0.049734044983983,-6.4474181272e-05,-0.0002301717177033,0.0020212733652442
8.33304248046875,-0.003908661343716,0.0059372080292552,0.0479383937388658,-0.0003267955617047,-0.0015148799866437,0.0003794346703216
8.343022705078125,-0.0008744447469711,0.0072577891085296,0.0488373884052038,-0.0006673083407804,0.0017388528212904,-0.0011570781935006
8.35300341796875,-0.0009243848359212,0.0055848509276285,0.0368611194074153,-1.8828548491e-05,0.002121016383171,-0.0002633213007356
8.362983642578126,0.0019873196260072,0.0071568220852408,0.0332686478734016,-0.0012373890494927,0.0003764797002077,0.0007908985717222
8.372963623046875,-0.0004154306667856,0.0095451328607276,0.038806992778182,-0.0001513519673608,-0.0003505628556013,-0.0022983683738857
8.382943603515624,0.005576357093919,0.0023133823757525,0.0386579396963119,0.0011822108644992,0.0011945944279432,-0.000566899543628
8.392924560546875,0.0054968986495397,-0.0009781425834633,0.0382037661880254,-0.0001166127622127,0.0030396319925785,-0.0011061896802857
8.402904541015625,-0.009148808753211,-0.0018510438273195,0.0386515099555253,0.0007285008905455,-0.0008514765650033,-0.0004349256050772
8.412884521484376,-0.006568583001662,0.0012177326261531,0.0385018723517656,0.0014230532106012,-0.0009758463129401,0.0005512429634109
8.42286474609375,-0.007786452625133,0.0063906782846432,0.0402957700312137,0.0021098970901221,-0.0024169161915779,-0.001851160544902
8.432845703125,-0.0092077906651422,0.0028293782070279,0.0419429527163505,0.0020734118297696,0.0012904703617095,-0.0007842982304282
8.44282568359375,-0.0018085837919265,-0.0021515063449274,0.0423924500495195,0.0013046915410086,-0.0016089053824543,0.0018353348132222
8.4528056640625,-0.0097099497673101,0.0078199073701631,0.0443406615078449,-0.0017211920348927,-0.0019047828391194,0.0024430681951344
8.46278564453125,-0.0060855487250722,0.0078114592022262,0.0343126039683818,0.0012221516808494,0.002081261947751,-0.0003071846440434
8.472766357421875,-0.0016639328905381,0.0083232903150375,0.0361059171259403,-0.0008322107023559,-0.0001267651095986,-0.0014520776458084
8.482746337890624,-0.0092745357584208,0.0073324800462462,0.0389490315973758,0.0006309415912255,0.0022242246195673,0.000187016907148
8.492726806640626,-0.0046411951356567,0.0021359708490781,0.042240474358201,-0.0002777290064841,0.001138187944889,-0.0010383034823462
8.502706787109375,-0.0087004621975123,0.0117235180794261,0.0364069458991289,0.0014697627630084,-0.0002148943021893,-0.0013430938124656
8.5126875,0.0016988032745197,0.0045958581565879,0.0319154796987772,0.0020290266256779,-0.0003411276265978,0.0012668040581047
8.52266748046875,-0.0036297165381722,-0.0018237539615947,0.0398462726980447,0.0024573057889938,-0.0013065254315733,-0.0003278869553469
8.5326474609375,-0.0017125578052364,-0.0031308910374064,0.0444838693708181,-0.0002311551361344,-0.0007299510762095,-0.0003260227385908
8.542628662109376,-0.0009886457111686,0.0106569300275295,0.0465793803453445,0.0007340074516832,-0.0009539416059851,-0.001003569108434
8.5526083984375,-0.0001468793910928,0.0052146385089028,0.0368541051447391,0.0008384033571928,-0.0011353027075529,0.0015554623678326
8.562588623046874,-0.0053383288206532,0.0007716328264679,0.0322159239500761,0.0011014698538929,-0.0004268791526556,-0.000691854278557
8.572568603515625,0.0020930632891133,0.0005569854287896,0.0422410588800907,0.0011190467048436,0.0001736637204885,-0.000168809434399
8.5825498046875,-0.0069319912202656,-0.004085040823929,0.0431377154588699,0.0025220243260264,0.0014480194076895,-0.0001537025673314
8.59252978515625,-0.0131782834650017,0.0042160559256095,0.042240474358201,-0.0006087878718972,-0.0015861205756664,0.0012830728664994
8.602509521484375,-0.0050229244622401,0.0046779834820888,0.0317670111387968,5.42331254109e-05,0.0009182281792163,0.0015035165706649
8.612489501953124,-0.0017487250971607,0.0039994996986351,0.0355067821890115,0.0001639553811401,0.0020673824474215,0.0021788941230624
8.622470458984376,0.0015345526235178,-0.0023820819640997,0.0358002121776342,-0.0006191544234752,0.0001181988045573,-0.0013818016741424
8.632450927734375,-0.0069069663768634,0.0072532133981119,0.0408908133149147,0.0001981697278097,-0.0017835637554526,-0.0002584803733043
8.642431396484374,-0.0060501486181281,0.0072161145244259,0.0486748913198709,0.0008329411502927,-0.0002644602209329,0.0001112331228796
8.65241162109375,0.0015009060822427,0.0067507346355356,0.0307154562592506,-2.8058886528e-05,0.0019190656021237,0.0001602353004273
8.6623916015625,0.0018796580004505,0.002271260267077,0.0311626155048608,0.0018873999360948,0.0005696471780538,-0.001020518830046
8.672371337890626,-0.0031589937538839,0.0084906371054239,0.047025955069065,2.26545380428e-05,-0.0004178527742624,0.0017867191927507
8.6823525390625,-0.0080003511041402,0.0050581419060938,0.0446335069745779,0.001414596219547,-0.0004690419882535,-0.0001311758387601
8.69233251953125,-0.0049536768846213,0.0066732398193795,0.0477741430878639,-0.0014312576968222,0.0009722607210278,-0.0011847224086523
8.702312744140626,-0.0049513570633716,0.0019907354258,0.0455301635533571,0.0023819766938686,-0.0002944031730294,0.0005641652387566
8.712292724609375,-0.0019017419680953,0.0090870960280764,0.0447825600564479,0.0011912771733477,0.0012510297819972,0.000597987382207
8.722273681640624,-0.0070234688960015,0.0079051105687394,0.0447819755345582,-0.0001745366025716,-0.0008875299245119,-0.0008453197660855
8.732253662109375,-0.0024741715611889,-0.0017139643110334,0.0378951386302709,0.0020761010237038,-0.0012830095365643,-0.0002210748352808
8.742233642578125,-0.0023349274872802,0.003212906765053,0.0349058936864137,-0.0014882254181429,-0.0023850947618484,0.0011488677700981
8.752213623046876,0.0031557240845635,0.0098034824028145,0.0420902522325515,-0.0009412121726199,-0.0001102229580283,-9.00347804417e-05
8.7621943359375,-0.0032457952545024,0.0078992653498426,0.0500233833193779,-0.0017279810272157,0.0010190457105636,0.0005233646952547
8.772174560546874,-0.0038330205579288,0.0016212079936638,0.058852001941204,0.0001548739382997,-0.0008763261139392,-6.91886234562e-05
8.78215478515625,-0.0010926358086057,0.0042251982132904,0.049724692633748,0.0011729180114343,-0.0007564332336187,-0.0003237419587094
8.792134765625,-0.0066452101681381,0.0055896275674458,0.0575064325511455,0.0044890865683555,-0.0014786822721362,-0.000227601849474
8.802115478515624,0.0002944711682386,0.0045638555831275,0.0483779541999101,-0.0007616013754159,0.0006606644019484,0.0012271729065105
8.812095458984375,0.0089927779412828,0.0075133256390225,0.0389519542068243,0.0010022101923823,-7.0639885962e-05,0.0001978612126549
8.822075439453124,-0.0048040758134797,0.0036872736779972,0.0382020126223564,0.002299113664776,-0.0005398308858275,-0.0002015777863562
8.8320556640625,-0.0136691722544841,0.0126070503151509,0.0420908367544412,-0.0007411511614918,0.0014937594532966,0.0007414475549012
8.842036376953125,-0.011658343888726,0.0044153413573745,0.046876901987195,0.0013940955977886,0.0007235454395413,-0.0001554648333694
8.8520166015625,0.000565981585998,0.00490954548195,0.0462771825283765,0.0022220723330974,0.0014351420104503,-0.0021935820113867
8.86199658203125,-0.005112630305998,0.0063793988388031,0.0372995108246803,-0.0013569951988756,5.87804242968e-05,-0.0017201560549438
8.8719765625,-0.0039514045068994,0.0080288191467989,0.0411889194786548,-0.0010696400422602,0.0008617239072918,0.001317978138104
8.88195751953125,-0.0083563614675775,0.0035767168424557,0.0416360787242651,-0.0001911646104417,-0.0011251335963606,0.0003933939733542
8.8919375,-0.0091418310231529,0.0062775915652979,0.0365507382839918,0.0001377358566969,-0.0039464859291911,-0.003136892337352
8.90191748046875,-0.0051811289649456,0.0030477975975256,0.0392483068048954,-0.0023978920653462,0.0010444149374961,0.0003875507682096
8.911897705078125,-0.0004918934364803,-0.0001609809816814,0.051669981482625,-0.000349921232555,0.0001226952299475,-0.0012415049131959
8.921878662109375,-0.0065282875238917,0.0038328104953747,0.0489776736587286,0.0009305105777457,-0.0015196315944194,-0.0001725298934616
8.931858642578124,-0.0070141896110028,0.0031942477303557,0.0429904159426689,0.0005976153770461,0.0003717448562383,-0.000116337192594
8.941838623046875,0.0036651349114254,0.00161867810986,0.0367073901504278,-0.0001367864897474,0.0011007012799382,-0.0010390303796157
8.951818603515624,-0.0003131576023995,0.0002438186932355,0.0358048883527517,0.0005295363953337,-0.0008138455450534,8.24267917778e-05
8.96179931640625,-0.0073039846041239,0.001907897714246,0.0402946009874343,0.0028024273924529,-0.0001762481406331,-0.002212903695181
8.971779541015625,0.0019362652922049,0.0102535368584096,0.032516368201375,0.0012657834449782,-0.0012284629046916,-0.0005729289841838
8.981759765625,0.0023487733495421,0.0055011181669309,0.0416460155963897,-0.0007496307371184,0.0006519677117466,-0.001207219902426
8.99173974609375,-0.0028919220492243,0.0069413618368096,0.0438894106090068,0.0033979762811213,-0.000665764324367,-0.0001267754560103
9.001720458984375,3.7628596648e-06,0.0098050624385476,0.0515220974445343,0.0003663805546239,-0.000324722379446,-0.0010214321082457
9.011700439453126,-0.012972860553395,0.0126866822894662,0.0531669420421123,-0.002200107788667,0.0013418830931186,6.22081133769e-05
9.0216806640625,-0.0048282969392836,0.00048592035342,0.0489759200930595,-7.82022252678e-05,0.0009915707632899,0.0013499765191227
9.03166064453125,-0.0010737667113542,0.0069102177798748,0.0468815781623125,-0.001593807246536,-0.0009831637144088,-0.0004505866381805
9.041640625,-0.0028676278581842,0.0032512294814456,0.0411994408726692,0.0001616012305021,-0.0016026832163333,-0.0010802436154335
9.05162158203125,0.0013460443140938,-0.0036768253492191,0.0361129313886165,-0.0010429465910419,-0.0032162927091121,0.0006084667984396
9.0616015625,-0.0021871165144257,0.0036729437585454,0.0356646030992269,-6.99057709425e-05,0.0007194150239229,-0.0009883233578875
9.07158154296875,-0.0048913705044426,0.0060429699586704,0.0510778608083725,-9.30753303691e-05,0.0003827912732958,0.0006593744619749
9.0815615234375,-0.0023196385866031,0.0045651981568429,0.0456909070730209,0.0003770783077925,-0.000387736596167,-0.0011163756716996
9.09154248046875,-0.0002840959046967,0.0028584947036579,0.0418032519847154,0.00038959516678,-0.0015480751171708,0.0016527791740372
9.1015224609375,0.0088048906863667,0.0117201936111785,0.0479383937388658,0.001565562793985,-0.0004263399168848,-0.0012047005584463
9.111502685546874,0.0008842902875505,0.0051171512174885,0.0453951389968395,-0.0010163717670366,0.0002487711608409,-0.001075537293218
9.121482421875,0.002171297890786,0.0147060227552428,0.0376128145575523,0.0022188145667314,0.0005480591207742,-0.0005488491733558
9.131460205078126,-0.0037959582168608,0.0095326661047991,0.0483832148969173,0.0010821772739291,0.001145938411355,-0.000284663576167
