seconds_elapsed,ax,ay,az,gx,gy,gz
0.080380126953125,0.0011725874433293,0.0059548898164182,0.0436252067148685,0.0021369960159063,0.0002527609467506,0.0009169874247163
0.090360107421875,0.0013608582907356,0.0017307601822074,0.0508072271734476,0.0012008119374513,-0.000278677791357,-2.31860321946e-05
0.100341064453125,0.002202478480339,0.0063251935666892,0.0530529602736234,0.0020735298749059,0.0004917746409773,-0.0001334408880211
0.110321044921875,0.002252747362852,0.0006076744364108,0.0540998389780521,0.000465273973532,-0.0015945108607411,-4.35134716099e-05
0.120301025390625,-8.734948989e-05,0.0019232231475412,0.0406359617710113,0.0002724610967561,0.0009328294545412,0.0003018985153175
0.130281005859375,0.0002008928669616,0.0031736068011261,0.0445271239906549,-0.0012961407192051,-0.000985711812973,-7.41808762541e-05
0.140260986328125,0.0017490173581056,0.0068126848226878,0.0521574727386236,0.0009459746070206,0.0031166216358542,8.8271961431e-05
0.150241943359375,0.0064242060949094,0.0027059527567587,0.0371907897531986,0.0006616314640268,0.000634959898889,-0.0005564528401009
0.16022216796875,0.0068483497911132,0.0077562127504963,0.0391354940801858,-0.0004321288433857,-0.0005892952904105,-0.0007972026360221
0.170201904296875,-0.0040504261682741,0.0005553414609748,0.0428776032179594,0.002757566049695,0.0009620478376746,0.0002207967918366
0.18018212890625,0.0015561799334362,0.0003320358328055,0.0499129086822271,0.000190544873476,-0.000860353000462,0.0004495623288676
0.190162109375,-0.0007195647125132,0.0065741816253867,0.0388408950477838,0.0001798279117792,-0.0009317472577095,-0.0004590425814967
0.20014306640625,0.0077083641539327,0.0062273044164758,0.0376455477833747,0.000672779045999,-0.0003631617873907,0.0004922385560348
0.210122802734375,-0.0070750529527664,-0.0027352884490974,0.0400403339654207,0.0008082278072834,-0.0006299186497926,0.0024918308481574
0.22010302734375,-0.0045931547428481,0.0056457782014738,0.037945407512784,-0.0013436063891276,-0.0003422973677515,-0.0004490978026296
0.230083251953125,0.0007791676789522,0.0025351171013433,0.0416857630848884,-0.0018090207595378,0.0007827961817383,0.0011610588990151
0.240064208984375,-0.0078877393088303,0.000169474815391,0.0418371542543172,0.000469047226943,-0.0003194864839315,0.0016689236508682
0.2500439453125,-0.0030318054439499,0.0009556750233285,0.0431844772100448,0.002217091852799,-0.0012298412621021,-0.000564930960536
0.26002392578125,0.0016801168403588,-0.0014842472083866,0.045429625788331,0.0022272118367254,0.0031521236523985,-0.0005345708923414
0.270004150390625,-0.0004614069666713,0.006951033847453,0.042885786524415,-3.9845472201e-06,-3.35490331053e-05,0.0003719691594596
0.27998388671875,-0.0002702683087438,0.0035168033487629,0.046328620454669,0.0007200182881206,-0.0018662605434656,-0.0008392061572521
0.289965087890625,-0.0046512416056357,0.0022395316882524,0.0436345590651035,-0.0006399474223144,0.0022043045610189,-0.0010054076556116
0.299945068359375,-0.004650328290183,0.0081536054370924,0.0395920056760311,-0.0008047970477491,0.0001781722530722,-0.0009169908007606
0.309925048828125,0.0037535803798586,0.005047492647916,0.0416886856943368,-0.000360049190931,-0.0005454085767269,-0.0010107374982908
0.31990478515625,0.0010155885170213,0.0126721057748422,0.0416881011724472,-0.0011115932138636,-0.0007334286347031,0.0003618557238951
0.329885986328125,-0.0090643818727694,0.0084221110470127,0.0425888494044542,-0.0010109986178576,0.000527624040842,-0.0013827546499669
0.339865966796875,-0.0060697849003598,0.0038921303340233,0.0418377387762069,-0.0026682838797569,-0.0002276487648487,-0.0010764912003651
0.34984619140625,0.001033836559765,0.0014140954484697,0.0439350033164024,-0.0007522320374846,-0.0013451669365167,-0.0003976566949859
0.359825927734375,-0.0100499953766353,0.0097398334489203,0.03884790931046,-0.0004883127403445,0.0010839030146598,0.0011608252534642
0.369805908203125,-0.0032623993294313,-0.0002588883982039,0.0443821625620126,0.0011758613400161,-0.0007696263492107,0.0003713846672326
0.379787109375,-0.0008524886434897,0.0065055459691211,0.0377981079965829,-0.0003876806003972,-0.0009115729480981,-0.0017058808589354
0.38976708984375,-0.0043341932794079,0.0067222209271043,0.0370510890215635,0.0008610757067799,-0.0018636537715792,0.0022105204407125
0.399746826171875,0.0018751644884236,0.0049570652849506,0.0360083019703626,-0.0015642651123926,-0.000606907531619,0.0008291386184282
0.40972705078125,-0.0018594371963292,-0.0026436829091981,0.0509720623463392,0.0022511454299092,0.0014959331601858,0.0018852809444069
0.41970703125,0.0033226233503781,0.0008573748811613,0.0375029244422912,0.0002452525077387,-0.000158155336976,-1.5685654943e-06
0.429688232421875,-0.0011120711614377,0.0055053924832493,0.0431868152976036,-0.0002325176028534,0.0017260154709219,-0.0011830063303932
0.439668212890625,-0.0016977438285946,0.0048682362240273,0.0446820222914218,-0.0020312166307121,0.0005779266357421,0.0019739049021154
0.44964794921875,-0.0009195807966403,0.0089131733664311,0.0433376219451427,-0.0028041149489581,-0.0006187846884131,0.0005860128439962
0.459628173828125,-0.0050995150960981,0.0056333297118544,0.0499234300762414,0.0009810358751565,-8.05594027042e-05,-0.000251018704148
0.46960888671875,0.0077660491579212,0.0001803341361228,0.0457341616928577,-0.0039203977212309,0.0026248693466186,0.0002360537910135
0.47958935546875,0.0013187909809872,0.0002326305789407,0.0443885923027992,-0.000709424552042,-0.0008494909852743,-0.0007397284498438
0.489569091796875,-0.0153171038582921,0.0122122605775948,0.0560597408741712,0.0002405480481684,0.0008259397000074,4.58858121419e-05
0.499549072265625,-0.0117351537182927,0.0035128943586256,0.0342126507252454,0.0018288572318851,-0.0002084327861666,0.000405678874813
0.509529052734375,-0.0035943894964642,-0.0036278807741124,0.0415472313970327,-0.0010720127029344,-0.0011350214481353,0.0002225544594693
0.519510009765625,-0.0022391754952259,-0.0002832282550167,0.0331686946302652,-0.0017684292979538,0.0004221284762024,0.0003202924854122
0.529489990234375,-0.0020647505100816,-0.0014575418645516,0.0421469508558511,0.0018178659956902,0.0001224726438522,0.0025175982154905
0.53947021484375,0.0003070018562488,0.0110451256275177,0.0503758500188589,-0.0006207905244082,0.0013075787574052,0.0005521854036487
0.5494501953125,-0.0043252062553539,0.0039372115847654,0.0409463428944349,0.000402012374252,0.0025468273088335,-0.0005916454829275
0.559429931640625,-0.0069353339548222,0.002645208146004,0.045284079837799,0.0012949702795594,-0.0013850638642907,-0.0013682232238352
0.569410888671875,-0.0117189149695448,-0.0033820984526537,0.0437912109315395,-0.0001650985796004,-0.0006033396348357,0.0013273961376398
0.579390869140625,-0.0004915463766083,0.0037278888161759,0.0529185202389955,0.0014706149231642,-0.0007415572181344,-0.0007445431547239
0.589371337890625,-0.008584598999191,-0.0026696667338255,0.0515711972832679,0.0022776070982217,-0.000444428063929,-0.0006058879662305
0.59935107421875,-0.0035570714270696,0.0002782141531817,0.0541173746347427,-0.0016534847673028,-0.0010079527273774,0.0007611126638948
0.6093310546875,-0.0001338555127382,0.0043762605891562,0.0298766673475503,-0.0008051650365814,-0.0004572002217173,-0.0015781451947987
0.61931201171875,0.0014332659398205,0.0045037594263441,0.0420025739490985,-0.0005745352827943,-0.0012556156143546,-0.00156110082753
0.6292919921875,-0.0077383209007792,0.0003771262167021,0.0367652578175067,-0.0012432391522452,0.0012536952272057,-0.00151324539911
0.63927197265625,-0.0031608934500254,-0.0022190277563408,0.0427478393584489,-0.0006986227235756,-0.000343401916325,-0.000328937661834
0.649252197265625,-0.0026541860369034,0.0072477335053961,0.0360153162330389,0.0006449921056628,-0.0036411215551197,0.00055483286269
0.659233154296875,-0.0068756213905289,0.0033976978805847,0.0385579864531755,-0.0016487885732203,0.0028519313782453,-0.0007330718217417
0.669213134765625,-0.0076056344318203,0.0030764483032748,0.0481289478749036,-8.71514203026e-05,0.0027671782299876,0.0001744676119415
0.67919287109375,-0.0131429198906756,0.0021724760677199,0.0370522580653429,-0.0008168575586751,9.73595306277e-05,0.0023590587079524
0.689173095703125,-0.0112697464299388,0.0028987445156555,0.0481277788311243,0.0007485105888918,-0.0007284814491868,-0.0001086241973098
0.699153076171875,-0.0064749499014578,0.0123654418453108,0.0533662640064954,-0.0006051741656847,0.0001434376463294,-0.0002282001369167
0.709134033203125,-0.0003197517399676,0.0106553134591784,0.0433399600327014,0.001698727835901,-0.0005066879093647,-0.0007687376928515
0.719114013671875,0.0025342859842814,0.0039052090113051,0.0409463428944349,-0.0024225139059126,-0.001813500188291,-0.0002084085717797
0.729093994140625,5.98038958385e-05,0.0051871842463966,0.0491752420574426,0.0016435831785202,0.0014830650761723,0.0013388252118602
0.73907421875,-0.0021671879712492,0.0094626970079727,0.0309206234425306,-0.0014978817198425,-0.0022637359797954,6.6633161623e-05
0.74905419921875,-0.0064705294546671,-0.0008761709131766,0.0481312859624624,-0.0026103141717612,3.50661575794e-05,0.0014450147282332
0.759034912109375,-0.0045130387113429,0.0090512301302514,0.0431949986040592,-0.0001538144424557,-0.0004288563504815,0.0009629825945012
0.769014892578125,-0.0024646182815544,0.0048385717381257,0.0412502942770719,-0.000971310713794,0.0006959419697523,0.0021687704138457
0.7789951171875,-0.0073197666951455,0.001664069887856,0.0427472548365592,-0.0023700029123574,-0.0003232499584555,0.0007082928204908
0.78897509765625,-0.0021045162648893,-0.0034677035100292,0.0415519075721502,-0.0016150088049471,0.0014865146949887,-0.0014370821882039
0.7989560546875,0.0090395214261487,-0.0015763824712485,0.0455892002642154,0.0011437598150223,0.0014055548235774,-8.394126780331135e-07
0.80893603515625,-0.0016131525513716,0.0006724467683117,0.0400537779688835,0.0002391263842582,-0.0016056690365076,-0.0006345193251036
0.818916015625,-0.0021990444142371,0.0082882555342745,0.0373608856230974,-0.000470872328151,-0.001771317794919,0.0024342411197721
0.828895751953125,0.0011493526982143,0.0055119500881992,0.0301800342082977,0.0008983981097117,0.0001555802300572,-0.0006357241654768
0.8388759765625,0.0001642141183838,0.0089209091483149,0.0387111311882734,0.0002981215948238,-0.0009341854602098,-0.0011289415415376
0.848856689453125,0.0011271591327153,0.0044324203563388,0.0361655383586883,0.0022611843887716,0.0022911000996828,-0.0003780879778787
0.858836669921875,0.0028867892163805,0.0014511760558467,0.0448433503329753,0.000749574159272,0.0004231594502925,0.0021202233619987
0.868816650390625,-0.00360469169477,0.0043207218764815,0.0472393055588006,-0.0003320219693705,-0.0025922739878296,-0.000512333237566
0.878796630859375,-0.0039880649891681,-0.0077529887469485,0.0384136095464229,0.0016586908604949,0.0021220529451966,-0.0015102197648957
0.88877685546875,-0.0022224983550608,-0.0035283293897751,0.0472393055588006,-0.0011797531042248,-0.0001951130107045,0.0009134373976849
0.898757568359375,-0.0081259685114957,0.0056207990238443,0.0400567005783319,-0.0008820117218419,0.0005633551627397,0.0011110438499599
0.908737548828125,-0.0074909220109693,0.0028052484127692,0.0437947180628776,-0.0008203890756703,0.0009256908670067,-0.0010086414404213
0.918717529296875,0.0009370616544038,0.0064356042717583,0.0436427423715591,-0.0006739152013324,0.0003741504624485,-8.95845150807e-05
0.92869775390625,-0.0004798011398874,0.0046028906855732,0.0446890365540981,-0.0007762994500808,-0.000462781637907,-0.0025839717127382
0.938677734375,-0.0058196825968101,0.006609307737695,0.0454343019634485,-0.0007398141315206,0.0001734476536512,0.0001958359353011
0.948658447265625,5.54930469021e-05,0.0029293223170097,0.0515694437175989,0.0003218209603801,-0.0009933123365044,-0.0004565494600683
0.958638671875,-0.0050959714321419,-0.0010807809740304,0.043189737907052,-0.0003130766563117,-0.0005922401323914,-0.0010227374732494
0.96861865234375,-0.0130649592836387,0.0100324231873266,0.0424403808444738,0.0019259732216596,-0.0001353211700916,3.75851959688e-05
0.978598876953125,-0.0041275830577127,0.0011556911074556,0.0496241548687219,0.0004673600196838,-0.0001244023442268,7.06083810655e-05
0.98857861328125,-0.00987867566403,0.0017813213256653,0.0406488212525844,-0.0005278500029817,0.0006875991821289,-0.0021013419609516
0.9985595703125,0.0018756394124589,0.0017984459904022,0.0457353307366371,0.002262876369059,-0.000929738394916,-0.0006264834082685
1.00853955078125,-0.0089562635894864,0.0036383656355086,0.0497767150819301,0.0007383221527561,-0.0006335610523819,0.0030782935209572
1.018519775390625,-0.0105984961048699,-0.0009322028161957,0.0472340448617935,-0.0036865200381726,0.0003020074218511,-0.002193167572841
1.028499755859375,-0.0023460516694933,0.0032643172918818,0.0387017788380384,0.0022791638039052,0.0002884259447455,-0.0022009222302585
1.038479736328125,-0.009200447608903,-0.0003206193896476,0.0451321041464805,0.0014112397329881,0.0007784478366374,-0.0025274257641285
1.048460693359375,0.003113620242197,0.0007873235859442,0.0473784217685461,-0.0017352985450997,-0.0008617341518402,0.0022223992273211
1.058440673828125,0.0060343665271066,0.0024752675397321,0.0375035089641809,-5.6708115153e-05,-0.0030053127557039,-0.0002231816324638
1.06842041015625,-0.0026691278777085,-0.0055394774159416,0.0409469274163246,0.0010307597694918,0.0006676064804196,-0.0003568209358491
1.07840087890625,-0.0061794375536032,-0.0006940101461485,0.0408002124220132,-0.0026870132423937,-0.0008099153637886,0.0027388373855501
1.088380859375,-0.0003066365300677,0.0011929635110776,0.0372106634974479,0.0008176300907507,-0.0008446248248219,-0.0016400192398577
1.09836181640625,0.0032341596156358,0.0043811194273643,0.0403548067420721,0.0002735462039709,-0.0020939130336046,0.0022231622133404
1.108341552734375,-0.0082151994312182,0.0018077161422464,0.0409580333322286,-0.0020178444683551,-0.0009248657152056,0.0006529568927362
1.118321533203125,0.0005103241423144,0.0024050335814245,0.0411059173703193,0.0014541186392307,-7.18552619218e-05,-0.0035748113878071
1.1283017578125,-0.004263539195992,-0.0013598079779651,0.0288327112525701,-0.001439461717382,0.0016001174226403,-0.0011885002022609
1.13828173828125,-0.0009667444066144,0.0060477100658696,0.0334726460129022,-0.0037119372282177,-0.0019677197560667,0.0009404308511875
1.1482626953125,-0.000951711234264,0.0049420503789093,0.0446960508167743,-0.0004954528412781,9.2894770205e-05,0.0006464683683589
1.15824267578125,0.0014714242594316,0.0037218609341885,0.0390092373520135,0.0015024505555629,-0.001510327681899,0.0012571311090141
1.16822265625,-0.0008674304842948,7.57047178689e-05,0.0345183556735515,0.0016356048872694,-0.0009058862924575,0.0013220896944403
1.178202392578125,-0.0007390548642724,0.0028655454989522,0.0419990668177604,0.00014583254233,0.0007948083803057,0.0010067713446915
1.1881826171875,0.0050157092701643,0.0083133169102948,0.0418470911264419,-0.0012565109645947,-0.0006171418353915,-0.0014931731857359
1.19816357421875,0.0005545834091491,0.0078015588627196,0.045136780321598,0.0001568285515531,0.0024510864168405,0.0004517333582043
1.208143798828125,-0.0019601941570639,0.0044015046282671,0.0394476287692785,-0.0016643041744828,-0.0009918324649333,-0.001506257802248
1.21812353515625,-0.0053046822793781,0.0067665897917933,0.0478267500579357,0.0021027370821684,0.0011080699041485,-0.0004428576212376
1.228103515625,-0.000786382871028,-0.0043330881677102,0.03944470615983,-0.0002715805312618,0.0003285575658082,0.0009938410948961
1.238083740234375,-0.0068225029638037,0.0030858097866643,0.0494680875241756,4.02756268158e-05,-0.0007889047265052,-0.0007984662079252
1.248064697265625,-0.007938592713233,0.0033747005974873,0.0394441216379404,0.0032937393989413,-0.0013475595042109,-0.0002036419027717
1.25804443359375,0.0142708644746802,0.00172646759958,0.0380973832041025,0.0001354964915663,-0.0005097296088933,-0.0010281566064804
1.268024658203125,0.0070824873405508,0.0075374463001266,0.0452799881845712,-0.0023745531216263,-0.00040387455374,-0.00158312311396
1.278004638671875,-0.0095568780974484,0.0091328896648716,0.0494733482211828,0.0026542940177023,-0.0010230597108602,6.5177300712e-06
1.28798486328125,0.0005309833378531,0.0046311121330596,0.0481260252654552,-0.0008947709575295,-0.0006436798721551,-0.002139916177839
1.297965576171875,-0.006746387253981,0.0122248186650685,0.0424386272788047,-0.0001962237874977,-0.001881250180304,-0.0005601291195489
1.307945556640625,-9.07470233738e-05,0.0033095081404782,0.0413935021400451,-0.0028155266772955,-1.50436535477e-05,0.000383666192647
1.317925537109375,-0.0012642295158468,-0.0050538219240028,0.0381032284229993,-0.0012996554141864,-0.0016438327729701,-0.0003180767816957
1.32790576171875,-0.0005993541326373,0.0056272287646308,0.0503776035845279,0.0007493110606446,-0.0015367837622761,-0.0021886776667088
1.3378857421875,-0.0015034816318191,0.0050770292696543,0.0393055899500846,-0.003911220934242,0.0001668408513069,0.0013911435380578
1.34786669921875,0.0077267583271488,0.004321059803199,0.0366162047356367,0.0002848444273695,0.0003739045932888,0.0004920574720017
1.3578466796875,-0.0026068214975297,0.0003695730979088,0.0367658423393964,-0.001216113101691,-0.0017723366618156,0.0014446702552959
1.36782666015625,-0.0031863201522268,0.006652288362896,0.0415565837472677,0.0005246818764135,0.0007366687059402,-0.0006099099409766
1.377806640625,-0.0113026988514699,-0.0011267755402252,0.0366126976042985,0.0013886112719774,0.0010325461626052,1.61992065841e-05
1.38778662109375,-0.0008389715747907,0.0095574991519562,0.0523252305209636,-3.45034059137e-05,-0.00095587503165,0.0002630942326504
1.397767822265625,0.001615052247513,0.0140763739490415,0.0428992305278778,0.0015311690513044,-0.0030493857339024,-0.0006498374277725
1.407747802734375,-0.0026430435883812,0.0074667465509381,0.0461918423324823,-0.0002823951654136,0.0013962527737021,2.18869681702e-05
1.4177275390625,-0.0098678985416889,-0.0013276044751051,0.0473842669874429,0.0014545185258612,0.0023347502574324,-0.0005552200600504
1.42770751953125,-0.001058788337931,0.0072507474463898,0.0425935255795717,0.0022015147842466,-0.0018632132560014,0.0001587041770108
1.437687744140625,-9.87659330479e-05,0.0030771972219459,0.0363128378748893,0.0031360178254544,-0.0027247462421655,-0.000597100937739
1.447668701171875,-0.0064976366573013,0.0085718582486268,0.0382575422018766,-0.0008716623415239,0.0023351432755589,-0.0004619478713721
1.457648681640625,-0.0069652359027415,-0.0006125606740824,0.0463385573267936,-0.0007595432689413,0.0021846750751137,-0.0014465185813605
1.467628662109375,-0.0068013871105387,-0.0027219083777163,0.0381090736418962,0.0024745764676481,0.0009227143600583,-0.0019463945645838
1.477608642578125,-0.0050972866063937,0.0021550500088836,0.0521767619609832,-0.0010687593603506,0.0003767665475606,-0.0008339921478182
1.48758837890625,0.0009009674277156,-0.0025365236071404,0.038709962144494,0.000200402108021,-0.0006119832396507,-0.0011126731988042
1.497569580078125,-0.0096770156120881,0.0052361836204305,0.0458937361687421,-0.0001423467183485,0.0004828423261642,-0.0007683264557272
1.5075498046875,-0.0044644868618808,0.0028756741673219,0.0376648370057344,-0.0014132796786725,0.0001954054459929,0.0011597939301282
1.51752978515625,-0.0024368169591762,0.0069119987450074,0.0367670113831758,-0.0012673384044319,0.0008060680702328,-0.0025470601394772
1.527509521484375,-0.0031584822972305,0.0066669379427563,0.0442506451368331,-0.0005316398455761,0.0017882194370031,0.0003084306954406
1.537489501953125,0.0087250121168792,0.0043168585521169,0.045146132671833,0.0020723990164697,-0.0014006504788994,-0.0009797404054552
1.547470703125,-0.0054222807770594,0.0032002299465704,0.0503822797596454,0.0032249921932816,-0.001758936792612,-1.64760713232e-05
1.55745068359375,0.0044109848426654,-0.003984713121457,0.0473918657720088,0.0019557299092411,0.0008661411702632,-0.000372540729586
1.5674306640625,-0.006055993837025,0.0026905999239999,0.0461935958981514,-0.0012574304128065,-0.001384106464684,0.0001788728986866
1.57741064453125,-0.0120158886221237,0.004660009433981,0.0361719680994749,-0.0049144830554723,0.0004542740061879,-0.0016491208225488
1.587390625,0.0096536164701916,-0.0034019082648213,0.038719314494729,-0.0007764822221361,-0.0004418157041072,6.21031358605e-05
1.597371826171875,0.0058645994507707,0.0015152634011581,0.0266015911996364,-0.0002177510177716,0.0004801712930202,0.0012498729629442
1.6073515625,0.0068031589425168,0.0004694624089635,0.0551782818645238,0.0003836491378024,-0.0001962287351489,-0.000983141362667
1.61733154296875,0.0007766103956848,-0.0005748224795795,0.0391693963497877,-0.0011724359355866,-0.0005501629784703,0.0027551378589123
1.627311767578125,-0.0003052482905797,0.0052839682849124,0.0430588050037622,0.0013957323972135,0.0010913936421275,-0.0001396945881424
1.637291748046875,-0.0010432985078543,0.0115133824600838,0.0496387679159641,-0.0002026967704296,0.0009276093915104,0.0031335966195911
1.64727294921875,-0.0027868177069351,-0.0050315735595766,0.039316111344099,-0.0011421481613069,-0.0015929071232676,0.0010686872992664
1.657252685546875,-0.0034923173614777,0.0017980806642211,0.0363262818783521,-0.0002641039900481,0.0005109906196594,-0.0019976762123405
1.667232666015625,-0.0012233129835687,0.0018467238452285,0.0357242243319749,0.0003246275009587,-0.0004640985280275,0.0022079383488744
1.677212646484375,0.0040882008953951,0.0004055485935881,0.0488935025066137,0.0003722980618476,0.0003878474235534,-0.0011745425872504
1.687192626953125,-0.0012960311599075,0.0002435355654451,0.0300391644328832,0.0014979655388742,0.0001113275066018,0.000338828889653
1.697173828125,-0.0039326815401203,0.0075800707323011,0.0436544328093528,0.0010905019007623,-9.56002622842e-05,6.825174205e-05
1.70715380859375,-0.001447312731482,0.0015844744461588,0.0358721083700656,0.0021313526667654,0.0006494531407952,0.0002600522420834
1.7171337890625,-0.0072597618699073,-0.002883848340623,0.0370692092001438,-0.0011792227160185,-0.0010315338149666,0.0002515301166567
1.727113525390625,-0.0005531038381159,0.0049958903248421,0.0387204835385084,-0.0038829348050057,-0.0005284817889332,0.0012283229734748
1.737093505859375,-0.0012534889261238,0.0010525777928531,0.0411176078081131,-0.001192076713778,-0.000336468219757,0.0010743922321125
1.74707470703125,-0.0033900442970916,0.0034707357173319,0.0484521884799003,-0.0025933850556612,-0.0008739419281482,-0.0014997678808867
1.757054931640625,-0.0006396496104076,0.0077647339836694,0.0426163219332694,0.0019600875675678,-8.4314495325e-05,0.0001114445476559
1.76703466796875,-0.0115866851583123,0.0004101060376968,0.0327414091289043,0.0008149880450218,-0.0015959711745381,-8.32470395835e-05
1.7770146484375,0.0011183730380609,-0.0050691564904525,0.0487532172530889,0.0010781083256006,0.0006461441516876,-0.0014419918879866
1.78699462890625,0.0047740642677061,-0.0030277411901857,0.037976971694827,0.0002200538292527,2.70530581474e-05,0.0011435814667493
1.796974609375,-0.0029324732553213,0.0019294702252373,0.0327373174756765,0.0003223192179575,-0.0001119645312428,-0.0004212920030113
1.80695556640625,9.95148517191e-05,-0.0007356847302522,0.0399205069780349,-0.0012407508911564,-0.0008973721414804,-0.0008376872865483
1.816935791015625,-0.0051642143627628,-0.0007718702884856,0.048902270334959,0.0013608911540359,-0.0017381319776177,-0.0001985286653507
1.826915771484375,-0.0059520037395879,0.0078336710340343,0.0393248791724443,-0.000110566150397,0.0021743457764387,-0.0005903706769458
1.8368955078125,0.001845847062394,0.0064311472923494,0.0366278951734304,0.0017808108823373,-0.0011729812249541,-0.000203413379495
1.84687548828125,-0.0021670418407768,-0.0014383439737372,0.0418652113050222,0.0008454085327684,-0.0004929332062602,-0.0003006999613717
1.856856201171875,-0.0053103631014935,-0.0047626204250846,0.0423176312476396,-0.0014957764651626,-0.0004276856780052,0.0022074650041759
1.86683642578125,-0.0027757483236491,-0.0025790932403877,0.0424678533732891,0.000226525706239,0.0006996570155024,0.0006727792788296
1.876816162109375,-0.0004627586735412,0.0031232831196859,0.0321405206263065,0.0009695477783679,0.0006583780050277,0.0006301687099039
1.88679638671875,-0.0011878946103155,0.0053062623151112,0.0457569580465555,-0.0028364353347569,0.0006311098113656,0.0013919172342866
1.8967763671875,0.0050815775806084,-0.0029239246226847,0.0408189171224832,0.0009612324647605,-6.98342919349e-05,-0.0038126984145492
1.90675732421875,0.002095748436544,0.0006226893424522,0.0433633409082889,-0.0013962981756776,-0.001557582989335,-0.0016253960784524
1.916737060546875,0.0098733419017866,0.0016034714075736,0.0388730437517166,0.0004873556317761,-0.0005431855097413,-0.0004645241424441
1.92671728515625,-0.0005449022653512,0.00082018467593,0.0448603014677762,-0.0011159491259604,0.0006983671337366,0.0013976908521726
1.936697509765625,-0.0107922833776101,0.0161768076938577,0.0421656555563211,-0.0014424526598304,-0.0029629468917846,-0.0015821200795471
1.946677490234375,-0.000645677492395,0.0053318716804031,0.0316916078150272,-0.00150936038699,0.0018833493813872,0.0016322674928233
1.956658203125,0.004028579662647,-0.0005825947940815,0.0391717344373464,0.0018235855968669,0.0018987962976098,-0.0006948026129975
1.96663818359375,0.0047396688077598,0.0074954337893053,0.0470984357833862,-0.0005513358628377,-4.81195747852e-05,-2.38284992519e-05
1.9766181640625,0.0023120398020371,0.0089059947069734,0.0482955366134643,-0.0003262987593188,-0.0001615695655345,-0.0009391569765284
1.986598388671875,-0.0084475103497505,-0.0014346541793085,0.0288467397779226,-0.0019667479209601,-0.0029216427356004,-0.0017437285277992
1.996578369140625,-0.008016918646451,0.004757752453722,0.0381248557329177,0.0001765640918165,-0.0002022888511419,-0.0017980569973587
2.006559326171875,0.0021053930477239,0.0089293573162518,0.0463537548959255,-0.0014155184617266,-0.0010709865018725,-6.74211551086e-05
2.016539306640625,0.0027565686991438,0.0043504868270829,0.0427647904932498,-0.0006685017724521,0.0001806989312171,0.0013861322076991
2.026519287109375,-0.0031970242093317,-0.0013044519283808,0.054584992146492,0.0009960308670997,-0.0004273485392332,0.0023728217929601
2.0364990234375,-0.0077488605611026,0.0084343129414599,0.0490501543730497,-0.0021877782419323,-0.0003634318709373,-0.0010269697522744
2.0464794921875,-0.0062484111365862,0.0025823903091717,0.0426139838457107,-0.0028269286267459,-0.0002841269597411,0.0013148761354386
2.05645947265625,-0.0021682656834833,-0.002169562591426,0.0417184963107109,-0.0003709616721607,0.0009648958221077,-0.0004468049737624
2.0664404296875,-0.0007125139172188,-0.0022806217504665,0.0399245986312627,-0.0026012943126261,-0.0011601680889725,0.0001953085447894
2.076420166015625,0.0038017486368305,0.0010564959161449,0.0435176546871662,-0.0002590442309156,-0.0006704134866595,-0.0004222785355523
2.086400146484375,-0.0071715173308737,0.0089910243756137,0.0435164856433868,0.0007597394287586,0.0002083424478769,-0.0012488275533542
2.09638037109375,-0.0061281822904013,0.000871631735377,0.0375315660148859,0.000206334516406,-0.0019666608422994,0.0005227072397246
2.1063603515625,-0.0053543849063105,-0.00307653963482,0.0535439586609601,-0.0006750259781256,-0.0028054872527718,0.002519468544051
2.11634130859375,-0.0043729361209087,-0.0014973258856683,0.041722003442049,-0.0003077760338783,0.0016728844493627,0.0003023868775926
2.1263212890625,-0.002593395760376,0.0057127333573065,0.0400748207569122,0.0011068459134548,-0.0008350303396582,0.0025466030929237
2.13630126953125,-0.0037857838827185,0.0092364961698185,0.0447147555172443,-0.0008026406867429,-0.0007868269458413,0.0006546934600919
2.14628125,-0.0054586855310015,0.0069304385839961,0.0382785849899053,0.000956860021688,-0.0002514943480491,-0.0020438903011381
2.156261474609375,-0.0059042921403422,-0.0009632464084308,0.0382785849899053,-0.0020146949682384,-0.0013279449194669,-0.0016737108817324
2.1662421875,-0.0003748429280705,-0.0051713473564479,0.0432177949577569,-0.001621791627258,0.0019413251429796,-0.0001560808595968
2.176222412109375,-0.0053616000983864,0.0035416272627655,0.0535451277047395,0.00102139567025,-0.0008741682395339,0.0016580645460635
2.1862021484375,0.002791987072397,0.0089035196220967,0.0288549230843782,2.32834136113e-05,-0.0016460549086332,0.0005753868026658
2.19618212890625,0.0021363909741863,0.0034727541444823,0.045763387787342,0.0001316741108894,-0.0003970330581068,0.000841702974867
2.206162353515625,-0.0009139913060702,-0.0012373415089212,0.0460650010824203,-0.001712346333079,-0.0002846615388989,0.0002001629181904
2.216143310546875,0.0019175057928077,0.0066491922235116,0.034845687931776,0.0013508215779438,-0.0027097361162304,-0.0027583427727222
2.226123291015625,0.0033422048336826,0.0069873290035407,0.0405336704403162,-0.0006189233972691,0.0001689633354544,-0.0010388910304754
2.236103271484375,0.0030023053548298,-0.0027356994410511,0.0378407780945301,0.0002002649707719,0.0002533858641982,0.0012239968637004
2.246083251953125,0.002854384784121,-0.0052339825301896,0.0385901351571083,-0.0015355765353888,-0.0008915103971958,-0.0005634458502754
2.2560634765625,0.0001368877200409,-0.0003032937955111,0.0367956529557704,-0.0003358224057592,0.0017285076901316,-0.0014273752458393
2.266043212890625,-0.0029620646759867,0.0059146217381116,0.0372463193327188,0.002279866952449,-0.0007968200370669,0.0012362508568912
2.276024169921875,-0.0027482027295976,-0.0037995201471261,0.0451782813757658,0.0024601630866527,0.0005579302087426,-0.0010617908556014
2.28600439453125,-0.004913710200414,0.0051778592956252,0.0382914444714784,0.0015053582610562,-0.0023218495771288,0.0003259643563069
2.295984375,-0.0008938618334941,0.0072231927191838,0.0393389076977968,-0.0018952321261167,0.0020214999094605,-0.0004082691739313
2.30596435546875,-0.0047913989949971,-0.001812584113609,0.0471177250057458,-0.0001306650228798,0.0001274216920137,-0.0003742279950529
2.3159443359375,-0.0010040624760091,-0.0016900354461744,0.0441261419743299,-0.0010228239698335,-0.0007194634526968,0.0004244539886713
2.32592529296875,-0.0044807256106287,-0.0033097364693414,0.0278162276864051,0.0006948563968762,-0.0017438475042581,-0.000417580071371
2.3359052734375,-0.0040045229336246,-0.0003930818376597,0.0369441215157508,-0.00028492056299,0.0010628579184412,0.0009478226420469
2.34588525390625,0.0046904776374809,0.0013951441528275,0.0477133528113365,0.0007278907578438,0.0018287496641278,-0.0009352532215416
2.355865478515625,0.0001137625727802,0.0022970705617684,0.0408282694727182,-0.001435927581042,0.0007331250235438,-0.001273208297789
2.365845458984375,-0.0092581874118186,0.0059511452230624,0.0290057297319173,-0.0014610585058107,-0.0003494834527373,-0.0003025752375833
2.375826416015625,-0.0061817756411619,0.0098873156282119,0.0396329222083091,-0.0004967279382981,0.0005876822397112,0.0018939999863505
2.38580615234375,-0.0046372678792104,0.0053905795976985,0.0387327584981918,-0.0005348099512048,0.0017723944038152,-0.0010439634788781
2.3957861328125,-0.00998125925567,-0.0004741568503901,0.0343915144234895,0.0003453647950664,0.0013273805379867,0.000192275896552
2.405766357421875,-0.0074240673198364,-0.0003401917397975,0.0424707759827375,0.0055723888799548,-0.0004349080845713,-0.0015594584401696
2.415746337890625,-0.0070192128459922,-0.0025170791211538,0.0487520482093095,0.000958728720434,0.000777362845838,0.0005367156700231
2.425727294921875,-0.0011562208304181,-0.0056623457437846,0.0385743530660867,0.0008459505625069,0.0005310075357556,-0.0007715319516137
2.435707275390625,0.002654770558793,0.0092964918619021,0.0351309346139431,-0.0013503582449629,-0.0008833967149257,-0.0026506583672016
2.445687255859375,-0.0131791237152181,-0.0015907123907003,0.0463537548959255,0.0030543978791683,0.0006830357015132,-0.0010315041290596
2.4556669921875,-0.006897467896156,-0.0009885909122414,0.0442605820089578,0.001132394419983,-0.0008336352184414,0.0013384429039433
2.4656474609375,-0.0028889994397759,0.0078646689604967,0.0382739088147878,0.0004162075929343,4.71677631139e-05,-0.0024920518044382
2.47562744140625,-0.0041338118690997,0.0007810125761665,0.0442605820089578,-0.0014527988387271,-0.0010013189166784,-0.0014696641592308
2.4856083984375,0.0024237382818944,0.0074885291244834,0.0433656789958477,0.0009812138741835,-0.0004123505204916,-0.0004133205511607
2.495588134765625,-0.0126988476512953,0.0060887270628474,0.0512935493856668,0.0016739020356908,-0.0004232693463563,0.0001680474815657
2.505568115234375,-0.007270721655339,0.0128929545844439,0.0420160179525613,-0.0017543205758556,-0.0001758243888616,-9.93118956102e-05
2.51554833984375,7.44169430807e-05,0.00647085824823,0.0358878904610872,0.0004521083319559,-0.0023540239781141,-0.0008785528480075
2.525528564453125,0.0019065460073761,-0.0013812526247929,0.0342465529948472,0.0004448333056643,-0.0027213171124458,0.0023822628427296
2.53550927734375,-0.0009721147014759,0.0042233624492306,0.0505588053703308,0.0007726683979853,0.0021085916087031,-0.0028820077423006
2.5454892578125,-0.0008545344701036,-0.0021606668989174,0.0529535915523767,0.0005972124636173,-0.0002869227901101,-0.0004457873874343
2.55546923828125,-0.001709653462097,0.0065107701335102,0.0454722958862781,0.0002233046106994,0.000945322215557,-0.0011411387240514
2.565449462890625,-0.0037950266350992,0.0032211905362084,0.0418780707865953,-0.001081271097064,-0.0008956994861364,-0.002673007780686
2.57542919921875,-0.0067199011058546,-0.0001406140470877,0.0409790761202573,-0.002668515080586,0.0009711766615509,-0.0022271946072578
2.58541015625,0.0011594539671204,0.0034024288546293,0.0387339275419712,-0.0004125904524698,0.0014974605292081,-0.0020724551286548
2.595390380859375,-0.0028146555619314,-0.0007200031039305,0.0420253703027963,-0.0002019343664869,0.0021624518558382,0.0012692792806774
2.605370361328125,-0.0063833443615585,0.002655117618665,0.0483066425293684,0.0010840286267921,-0.000632420182228,-0.0005827599670737
2.615350341796875,-0.0078916117663495,-0.002421180998627,0.0355868616878986,0.0005982680013403,-0.0003402708098292,0.0004675907548516
2.625330322265625,-0.0102030487801879,0.0102622955536004,0.0483130722701549,-0.0014418693026527,-0.0039510056376457,-0.0003596604219637
2.635310546875,-0.0054420449234545,0.0061774008601438,0.0409808296859264,0.0019019957398995,0.0008567990735173,-2.64989794231e-05
2.645291015625,0.0045857751539908,0.0014063231339678,0.0367903922587633,-0.0002693624119274,7.9283490777e-05,0.0003303696285001
2.655271240234375,0.0083887293672189,0.0013206815439742,0.0478647439807653,0.0014529039617627,-0.0006269868463277,-0.0008613949758
2.665251220703125,-0.0017615480461157,0.0066056453427299,0.051904959282279,0.0023132306523621,-0.0004163235425949,0.0014903913252055
2.6752314453125,0.002924746606592,0.0008597312350291,0.0442734414905309,-0.0008194458205252,-0.0011564157903194,0.001068013953045
2.685211181640625,-0.0010940240480937,-0.0024436120261438,0.0391863474845886,0.0005150842480361,-8.72332602739e-05,0.0006744364509359
2.695192138671875,0.0017784991809166,0.0028740301995072,0.0314063611328601,-0.0003104956704191,0.0009074574336409,-0.0005604713223874
2.70517236328125,0.0011050020998343,0.0081717895477544,0.036790976780653,0.0004709160421043,0.0014591496437788,-0.0004912291187793
2.71515234375,0.0052707069445401,-0.0007565631214994,0.0332002588123083,-0.0013232555938884,0.000377107411623,-8.27002295409e-05
2.72513232421875,0.0015854242942295,0.0056349828128237,0.0430751716166734,-0.0025663829874247,0.0013534519821405,-3.62509454134e-05
2.7351123046875,0.0005961392622441,-0.004966719029285,0.0391869320064783,-0.0020009940490126,-0.0005736108869314,0.0018154449062421
2.74509326171875,0.0023946217852644,0.0035143739296589,0.0438262822449207,-0.0001423102803528,0.0004930235445499,0.0013170273741707
2.7550732421875,0.0013678725534118,0.005673561257543,0.0418774862647056,-0.0017884101253002,0.0026773484423756,0.0006019686697982
2.76505322265625,0.0114206809416413,-0.0092280206024181,0.0376876333594322,0.0024615197908133,-0.0005129119381308,-0.002064918866381
2.775033447265625,-0.0016257015056908,0.0065369366212282,0.0438216060698032,0.0002255296567454,-0.000313707627356,0.0010738826822489
2.785013427734375,-0.0019733824322,0.0040445444167591,0.051602761465311,-0.0007173491758294,-6.99749216437e-05,9.58895398071e-05
2.7949931640625,-0.0027325485027395,-0.0019461656317114,0.0508557424902915,0.000822224188596,0.0015106108039617,-3.91327193938e-05
2.80497412109375,-0.0059677858306095,0.0019560842375271,0.037986324045062,-0.000491171143949,-6.43553212285e-05,0.0002106568135786
2.8149541015625,0.0006842011381871,-0.0021224446472246,0.0444230790942907,-0.0006533576524816,-0.000878750346601,0.0004977455828338
2.8249345703125,-0.0052488604389131,0.007945497378055,0.0441261419743299,-0.0016981157241389,0.0006256690248847,0.0001177125086542
2.83491455078125,0.0033371998650021,0.0019544128702487,0.0349994171887636,0.0009218355407938,-0.0026596887037158,-0.0001657671964494
2.844894287109375,0.0090784103981219,0.0042646808403078,0.047270285218954,0.0001249489141628,0.0008541848510503,-0.0004301518201828
2.8548759765625,-0.0040761999303475,-0.0005232658222783,0.0471206476151943,0.0013907494721934,-0.0018297489732503,-4.77219000458e-05
2.86485595703125,-0.0094259269278496,-0.0031732871407177,0.0433767849117517,-0.0004017269238829,0.0016055339947342,-0.0002092283393722
2.8748359375,0.0002810088984668,0.0024355565838515,0.0358954892456531,-0.0023266598582267,-0.000813415274024,-0.0024665237870067
2.884815673828125,-0.0022088899548165,1.6896335873e-06,0.0481640191882848,-0.0011731090489774,-0.000683263875544,-2.74413760052e-05
2.8947958984375,-0.0039170090469531,0.000643960459344,0.0481622656226158,0.0010495652677491,0.0002805348485708,-0.0006343757850117
2.904776123046875,-0.005287639813032,0.00413756559561,0.0478600678056478,-6.54183095321e-05,-0.0017235185950994,-0.0001351100218016
2.914757080078125,-0.004494370543491,-0.0010572083021979,0.041126960158348,-0.0003288049483671,-0.0006649121642112,0.0004641012055799
2.92473681640625,0.0041326062927022,-0.0050737687334883,0.0466670586287975,-0.001224854378961,-0.0031245052814483,-0.0012564320350065
2.934716796875,-0.0045583026251755,0.0093355360975023,0.0478682511121034,0.0003011369844898,0.0002473229542374,0.0002237528533441
2.944697021484375,-0.0035222741083241,0.0019310502609703,0.0469745171427726,0.0002306514652445,-0.0010989177972078,-6.58851058688e-05
2.954677001953125,0.0017423866879194,0.002832364748558,0.0320113412886857,0.0016900637419894,-0.0020573893561959,0.0006560978363268
2.964657958984375,-0.0014118030266836,0.0028007549007423,0.0430845239669084,-8.7558873929e-05,-0.0001225695013999,-0.0013236991362646
2.974637939453125,-0.0040483986079692,0.0036513895138632,0.0477232896834611,0.0037873405963182,0.0014455001801252,0.0001226636522915
2.984617919921875,0.0018788360165432,0.0075035257642157,0.0447299530863761,-0.0004257639520801,0.0006319796666502,-0.0006403606384992
2.99459765625,0.0054759471930563,-0.0036225378787145,0.0415881479293107,-0.0006473389803431,-0.0007816264405846,-0.0008661966421641
3.004577880859375,0.0001870835373178,-0.0054642567552626,0.039043724143505,-0.0037205051630735,0.0007618777453899,-0.0023065856657922
3.01455810546875,0.0042880891153588,-0.0026336638386826,0.0364993003576993,-0.0013846468646079,0.0005770539864897,-0.0003925718483515
3.0245390625,-0.0036060068690218,-0.0059786725508049,0.0405412692248821,0.0015923669561743,-0.0010086633265018,-0.0015745770651847
3.034518798828125,-0.0045257155298255,-0.0050410263745114,0.0501204139530658,-0.002596252830699,-0.0008174488320946,0.0011663483455777
3.044498779296875,-0.0056178033491596,-0.0003018416239414,0.0447328756958246,-0.0002285477821715,-0.0004873014986515,0.0013515289174392
3.054478759765625,-0.0026050679318606,0.0052425859617535,0.0417401236206293,0.0012617572210729,-0.0010385755449533,0.0005499175167642
3.064459228515625,-0.0077098985238932,0.0084145122624468,0.0432359151363372,-0.0003429656499065,0.0007614782080054,0.0004247443284839
3.074440185546875,-0.00854508897271,0.0064889784268103,0.0492243418961763,0.0001617033267393,-0.0003016563132405,-0.0009102983167394
3.084419921875,-0.0082103588593192,0.0014850965917576,0.0396457816898822,0.0002466369187459,0.0007952991873025,-0.0006630002753809
3.09439990234375,-0.003919054873567,0.0017413272419944,0.0406926603943109,0.0005294645670801,-0.0009589251130819,0.0002278271422255
3.1043798828125,-0.0005352941867895,-7.12203389964e-05,0.0374012176334857,-0.0003755609504878,-0.0007163677364587,-0.0001180415711132
3.11435986328125,0.0150269070063717,0.0017118454191833,0.0426385337650775,0.000962677411735,5.6149438023e-06,-0.0013889020774513
3.124340087890625,0.0028355156868696,0.0044865799626801,0.0369517203003168,-0.000555555394385,0.0019658943638205,-0.0010393655393272
3.134321044921875,-0.0093957144526764,0.0009678495183121,0.0409901820361614,-0.0001483580563217,-0.0015023397281765,-4.84033080283e-05
3.144301025390625,-0.003337492125947,0.0023725195513106,0.0294710091561079,-0.0006278214277699,-0.000519405119121,-0.0019594465848058
3.15428076171875,-0.0044476635912433,0.0079055124275386,0.0320166019856929,-0.0009974682470783,1.24275684356e-05,0.0002813370956573
3.164260986328125,-6.43339404836e-05,-0.0039685291716363,0.0408463896512985,-0.0010823314078152,0.000750720500946,0.000324775755871
3.174240966796875,-0.0035439014182426,0.0035670722312759,0.0444382766634225,-0.0023822202347218,0.0008082445710897,0.0022465127985924
3.184221923828125,-0.0016387984492816,0.0030624471773859,0.0447404744803905,0.0008670730749145,0.0013982746750116,-0.001193645526655
3.194201904296875,-0.0103952468840405,0.0050414921653922,0.0390519074499607,-0.0006448035128414,-0.0002393033355474,0.0002473909407854
3.204181884765625,4.2633565329e-05,0.0107614224484656,0.0441419240653514,0.0003051448147743,0.0002534501254558,-0.0031657337676733
3.214161865234375,-0.0051835035851225,0.0042561230745166,0.0432435139209032,-0.0016573385801166,-7.65156000852e-05,0.0005658873706124
3.224141845703125,-0.003327810982149,-0.0062394789114594,0.0377080916255712,0.0005747096147388,-0.0017099119722843,-0.0038785231299698
3.234121826171875,-0.0024740254307165,0.0007944657127838,0.0383078110843896,-0.0021507693454623,0.0020898869261145,-0.0019269585609436
3.244102783203125,-0.0084724621279165,0.0008193900914862,0.0466869323730468,0.0010657442035153,-0.001936194486916,-0.0021611007396131
3.2540830078125,0.0007416121475398,-0.0008913228165358,0.0553664979130029,0.0012119518360123,-0.0019971802830696,0.0005207023932598
3.264062744140625,-0.0025334274677559,0.0005045245891902,0.0405523751407861,0.0032108463346958,-0.0002162512391805,-0.0005226000212132
3.27404296875,-0.0040033721561543,0.0015077742144465,0.045938744354248,0.000918929814361,0.001612807624042,7.98069813754e-05
3.28402294921875,0.0019469328166916,-0.0039661271519958,0.0459375753104686,-0.0003015472902916,0.0019874973222613,0.0018904192838817
3.29400390625,-0.0015395393258891,0.0016570008262526,0.0418967754870653,-0.0010373786790296,-0.0003363769501447,0.0011436690110713
3.303983642578125,-0.0052869822259061,0.0043545784803107,0.029925767186284,0.0002670546527951,0.0008377339690923,0.0001555380586069
3.3139638671875,-0.0059049497274681,-0.0021171291512902,0.0368090969592332,-0.0021337850484997,-0.0009343335404992,0.0024133659899234
3.323944091796875,-0.0012625124827958,0.0041768746926914,0.0496779308825731,-0.0023311299737542,4.18182462453e-05,-0.0010788560612127
3.333924072265625,-0.0049004488600417,0.0044146929034031,0.0466863478511571,-0.0003625213284976,-0.0007821638137102,-0.0015305281849578
3.34390380859375,-0.0030501265519298,0.0025375465204473,0.0466881014168262,-0.0008182680467143,0.0015130285173654,0.0008201473392546
3.353884765625,0.0036912557333707,-0.002359824466519,0.0348632235884666,-0.0012451726943254,-0.0004896689206361,0.0008531705243512
3.363864990234375,-0.0032339404199272,-0.0031536051927134,0.0396527959525585,0.0033163926564157,-0.0031023621559143,0.0013957787305116
3.37384521484375,-0.0023782917049713,0.004653415296413,0.0516261423408985,0.0002913082716986,-0.0009542563930153,0.0014117576647549
3.383824951171875,0.0012252674786373,-0.0003176511144265,0.0514770892590284,-0.0002605301560834,-0.001067703589797,-0.0004015213926322
3.393804931640625,0.0043331155671738,0.0025320666277315,0.0510322681009769,-0.0001641237176954,-0.0013702381402254,0.001093311002478
3.403785888671875,-0.0073358045144937,0.0073269818872213,0.045196401554346,-0.0016973640304058,-0.0003086291253566,0.0008665376226417
3.413765869140625,-0.0094498009937815,-0.0066244231084361,0.0402583606302738,0.0030784825794398,0.00065703317523,-0.000470635597594
3.423745849609375,-0.0081431388420052,-0.0025139829817693,0.0417529831022024,0.0011743003269657,-0.0008248053491115,0.0012468857457861
3.43372607421875,-0.0083178560880944,0.0053941049953456,0.0411544326871633,-0.0010635540820658,-0.0012469161301851,-0.0009371726773679
3.4437060546875,-0.0002027925631031,-0.005355243422836,0.0411532636433839,0.0011523205321282,0.0008253930136561,-0.0012537371367216
3.453685791015625,-0.0021800474528223,-1.29782125819e-05,0.0377098451912403,0.0004479144699871,-0.0001402692869305,0.0004389679816085
3.463666748046875,0.0002986358867026,0.0034500582554843,0.0339689050972461,0.0003210656577721,-0.0006340267136693,-0.0004317093407735
3.473646728515625,0.0081843841678462,0.0024111893275752,0.0357663099080324,0.0002571498043835,-0.0030836025252938,-0.0007108086138032
3.483627197265625,-0.003876055982057,0.0044189946191851,0.0483382067114114,-6.29009446129e-05,0.0018062060698866,-0.0016180402599275
3.49360693359375,0.0016004026676528,0.0078507956987712,0.0504302105545997,0.0017477822257205,-0.0004289848729968,-3.0993687687e-06
3.5035869140625,0.0042427156036719,0.0073550846036989,0.0417523985803127,0.0010940798092633,-0.0021417755633592,0.0005209563532844
3.51356689453125,0.0085553363720886,0.0012068276396486,0.0351712666243314,0.002280251821503,-0.0006477423012256,0.0005241520702838
3.5235478515625,0.0052799679632298,0.0050280116293113,0.0357721551269292,0.0007922089425846,-0.0003391904756426,-0.0006267130956985
3.53352783203125,-0.0063934273641556,0.0100689284059684,0.0463923333406448,0.0009008661145344,0.0030310396105051,-0.0023942529223859
3.543508056640625,-0.0047446920427493,-0.0090750767967198,0.0438484940767288,0.000780246220529,-0.0006408849731087,-0.0011945727746933
3.553488037109375,0.0074380227799527,-0.0034286684075836,0.0401093075484037,0.0008010190213099,-0.0020909765735268,-0.0016339943977072
3.563468017578125,-0.0012536715892143,0.0006853245161939,0.0351700975805521,-0.0012003500014543,0.0020394977182149,2.02910014195e-05
3.57344873046875,-0.0114403902891092,-0.0020528774091973,0.0341197117447853,-0.0022997029591351,-0.0007288577035069,0.0006099148886278
3.583428955078125,-0.0033536030105315,0.0055251292301807,0.0426496396809816,-0.0019931395072489,-0.0002030478790402,-0.0025240150280296
3.593408935546875,-0.0047888782443478,0.0098409283363725,0.0336748905867338,-0.0036874427460134,-0.0006563179194927,-0.0004155904753133
3.60338916015625,0.0039341245785355,0.0101944544817786,0.0366693962275981,-0.0009958397131413,-0.0004151295870542,-0.0006839560810476
3.613368896484375,0.0059853762862272,0.0104851262577343,0.0478916319876909,-0.0016717499820515,0.0025838557630777,0.0016036992892622
3.623348876953125,0.0038547574657015,-0.0058713305856566,0.0463946714282035,-0.0028174370527267,0.0010956386104226,0.0013085771352052
3.633330078125,-0.0032017369170673,0.0060835759636946,0.0435509724348783,0.0015815722290426,0.0008993642404675,-0.0001199423932121
3.64331005859375,0.0001989749045111,0.0038985052758827,0.0498345827490091,-0.0008789615239948,-0.0008264649659395,-0.0001597299997229
3.653289794921875,-0.0005181786552071,0.0091969496107194,0.0436994409948587,0.0021373345516622,-0.0015889285132288,-0.0008952950593084
3.66327001953125,0.0024231720263138,0.0051404772941488,0.0459445895731449,0.0023487918078899,0.000566316768527,-0.0002565652539487
3.67325,-0.0060870100297965,0.0021262805721256,0.0308317761152982,-0.0019924268126487,0.0012073395773768,-0.002115718089044
3.683229736328125,-0.0052240365249104,-0.001601014589006,0.0438496631205081,0.0016801267629489,-0.0001181177794933,-0.001826666528359
3.6932109375,-0.001413337396644,0.0093729454984422,0.0432487746179103,3.74889932572e-05,0.0008171843364834,-0.0017182759474962
3.70319091796875,-0.0014391294250264,0.0089771419807337,0.0405541287064552,0.0006215248722583,-0.0010393764823675,-0.002831773366779
3.7131708984375,-0.0021636260409839,0.0016357114430516,0.0330710794746875,0.0019182179821655,0.0014496138319373,0.0028402269817888
3.72315087890625,-0.0072715984381735,3.77016618847e-05,0.0430962144047021,0.0009329736931249,-0.0018178839236497,0.0010173832997679
3.733130859375,-0.0079134217393584,0.0025196272712666,0.0510299300134181,-0.0019845191854983,0.0004889462143182,-0.0021826711017638
3.743112060546875,0.0028215967593714,0.0056918732323683,0.0324766207128763,-0.0004842559574171,-0.001137820072472,0.0006968167144805
3.753092041015625,0.0071306007985956,-0.0007299856418278,0.0351741892337799,-0.0014507170999422,0.0007303869351744,-0.0005242426414042
3.76307177734375,-0.0025437113997526,0.0037310945534147,0.0399590854227542,0.0013750210637226,-0.0001406921073794,0.0011560225393623
3.773052001953125,0.0015888400940224,0.005322327533923,0.0380132120519876,0.0003805967280641,5.42514026165e-05,-4.16010443586e-05
3.783031982421875,-0.0001406505797058,0.0067208235544618,0.0457937829256057,0.0009323210688307,-0.0006824005395174,0.0017343509243801
3.79301171875,0.0038599450974725,0.0021160423059016,0.0387608155488967,-0.0002045824658125,4.75719571113e-05,0.0013601767132058
3.802992919921875,0.0027562764381989,0.0004930533471051,0.0396621483027935,-0.0001542285317555,-8.00071284174e-05,0.0010769444052129
3.812972900390625,0.0010770911796018,-0.0004313954208977,0.0371212316483259,0.0017992001958191,-0.0009117126464843,0.0001914433669298
3.822952880859375,-0.0032433110364712,0.0038557803790085,0.0353267494469881,-0.0011835310142487,0.0019654436036944,-0.0001644922595005
3.83293310546875,-0.0100198742330074,0.0056176572186872,0.0314367562711238,-0.0016929936828091,-0.0008513825014233,0.002453927649185
3.842912841796875,0.0013140417406335,-6.60966393072e-05,0.0360796136409044,-0.0003462104359641,-0.0007527116686105,-0.0006928115617483
3.85289404296875,-0.0008856419944204,-0.0027313337931875,0.0369780237853527,0.0006024074973538,-0.0009591067209839,-0.0011418205685913
3.8628740234375,-0.0019375622001476,0.0028065544538665,0.0447591791808605,-0.0018084127223119,0.0004049455747008,0.0020337325986474
3.87285400390625,-0.004952854900714,0.0007901639970019,0.0417670116275548,5.81969507038e-05,5.20767644047e-05,-0.0018044151365756
3.882833740234375,-0.0013451309986412,0.004251739160344,0.0535883823245763,-0.0001132275210693,0.0003188839182257,0.0005195560515858
3.89281396484375,0.0030185075709596,0.0030596615652553,0.0477560229092836,-0.0016658505192026,-0.0018800878897309,-0.0017502561677247
3.902794189453125,-0.0068723882538266,0.0025969211580231,0.0482049357205629,-0.0003730101743713,0.0010287119075655,0.0012302484828978
3.912775146484375,-0.0074491104295477,-0.0005376140080392,0.035783845564723,-0.0014654388651251,0.0008596004918217,0.0004885580856353
3.9227548828125,-0.0064113100807182,-0.0041519959797617,0.0422211851358413,-0.0038578398525714,-0.0024154409766197,-0.0022562746889889
3.93273486328125,-0.0061386123528704,-5.36207502242e-05,0.040578678625822,-0.0002900030813179,-0.0004489626735448,0.0003072840627282
3.94271484375,-0.0014215937683358,-0.0001503043240401,0.0411783980846405,0.0002477564848959,-0.0006573665887117,-0.0016012020641937
3.952695068359375,-0.0043422669880092,0.0021734715815633,0.0467161584675312,-4.09301137551e-05,-0.0019093183800578,0.0023922079708427
3.962675048828125,-0.0003626592999324,0.0014289550908841,0.0377396558076143,0.003275908762589,-0.0001497855409979,0.001088795135729
3.972656005859375,0.0059713294945657,0.0013598353774286,0.0594371083527803,-0.0008312183781526,-0.000813977792859,-0.0014537248061969
3.982635986328125,0.001534991014935,0.0005884765455964,0.0374433032095432,-0.0021648549009114,2.65724956989e-05,-0.0023494395427405
3.99261572265625,0.0035797947155311,0.00069021988702,0.0413332963854074,0.0024197767488658,-0.0006243037059903,-0.0002524664159864
4.002595947265625,0.0068616293977946,0.0100637955731246,0.0371457815676927,0.0009791690390557,-0.0012020133435726,0.0023948494344949
4.012576171875,-0.0035503859579563,0.0072579443721566,0.0437274980455636,6.4107007347e-05,0.0028257519006729,-0.0002070589544018
4.02255615234375,0.0020201441833749,0.0006628295565955,0.0401350265115499,-0.0019433815032243,-0.0006169201806187,4.93377592647e-05
4.032535888671875,0.0081928597352467,0.00408627379979,0.0310083017259836,0.0002635800046846,9.331852197647096e-07,-8.96792480489e-05
4.042515869140625,0.0047652051078155,-0.0035402207569684,0.0378904624551534,0.0026822169311344,-0.0009853756055235,-0.0015221608337014
4.05249609375,0.0035892018646933,0.0015306984323076,0.0458218399763107,-0.0017796428874135,0.0023286622017621,0.0002813318569678
4.062476806640625,-0.0032622714652679,-0.0026742241779342,0.0465694434732198,-0.0007330598309636,0.0001516155898571,0.0011837296187877
4.07245703125,0.0048587103438563,0.0047700091470964,0.0515086534410715,-0.0002752624568529,-0.001977315172553,0.0013131592422723
4.08243701171875,-0.0055875178087502,0.0071811710752081,0.0362473714232444,0.0035800626501441,-0.000113203190267,-0.0003248388238716
4.0924169921875,-0.0049382783860899,-0.0008842902875505,0.0426829574286937,0.0001576346112415,-0.0004687346518039,0.0003018029674421
4.102396728515625,-0.0055036571838892,0.0031178580258972,0.0483715244591236,-0.000177968875505,-0.0004633385688066,-0.0018938245484605
4.1123779296875,0.0007526632645167,0.0043851654148194,0.0477735585659742,0.0009221829241141,-0.0003525512292981,-0.0025755937676876
4.122358154296875,0.0093095705391839,0.0021301895622629,0.03744914842844,-0.0002498344983905,-0.0001901742070913,0.0012146538356319
4.132338134765625,0.0028549875723198,-0.005369628141215,0.0446317534089088,0.0005461843684315,0.0017707115039229,-0.000615470460616
4.14231787109375,-0.0043874943692237,-0.0072926686256658,0.042535073390603,-0.0021336881909519,-0.0010835984721779,-0.0006804855074733
4.1522978515625,-0.0021152020556852,-0.0002176978712901,0.0352028308063745,-0.000829271855764,0.0012008612975478,-0.0004365399945527
4.16227783203125,0.0004929894150234,0.0093168313970323,0.031460721668601,0.0018187584355473,0.0015759794041514,-0.0004413307760842
4.172259033203125,-0.0043263935654424,0.0084416103319264,0.043130116674304,0.002399860182777,-0.0001217862591147,-0.0004602392436936
4.182239013671875,-0.0017214717640541,0.0033112160403747,0.0506102432966232,-0.0001805247738957,1.4180317521e-05,-8.27531766844e-05
4.192218994140625,0.0086365301158279,0.0028431510040536,0.0387900416433811,0.001065302058123,0.0021630842238664,-0.0007978119538165
4.202198974609375,-0.0061550154983997,-0.0002707888985518,0.0268161107331514,-0.0009180387714877,-0.0007761102169752,7.01925600878e-05
4.2121787109375,-0.0033401590070687,0.0044700854856055,0.0405821857571601,-0.0016197817167267,-0.0013923663645982,0.0017551744822412
4.222158935546875,-0.006889174991846,0.0086568787841126,0.0453735116869211,0.0005124046001583,0.0007688477635383,-0.0011425194097682
4.232139892578125,0.0004433781196363,-0.001337961472338,0.0443225413292646,0.0006796510424464,-0.000789102166891,-0.0006032293895259
4.2421201171875,0.0048063225694932,1.09597854316e-05,0.0518014989078044,-0.0002272023120895,0.002263780683279,6.61573285469e-05
4.252099853515625,-0.0058875236686319,0.0005321067158598,0.0464139606505632,0.0011765499366447,-0.0019645197317004,0.0005167642375454
4.262079833984375,-0.0043397279710508,-0.0004679463053122,0.0435714307010173,-0.0017435853369534,-0.0012877313420176,0.001401322428137
4.272059814453125,-0.0039231830594129,0.0015903470645193,0.0486585247069597,-8.94960248842e-05,-0.0013838708400726,-0.0009230845607817
4.2820400390625,-0.0040283056680113,0.0024548549393657,0.0498556255370378,0.0009021452860906,0.0008056890219449,-0.0015769344754517
4.292020751953125,0.0007768843903206,-0.0089510302919428,0.038034839361906,-0.0009828400798141,-0.0005240272730588,-0.0006882376037538
4.3020009765625,-0.0029135676254518,0.0020719474358484,0.0359381593436002,-0.0005712801357731,0.0013202037662267,5.81853528274e-05
4.31198095703125,-0.0020431962653994,0.0059566342489328,0.0432698174059391,-0.0003720756503753,-0.0009357603266835,0.0031133636366575
4.3219609375,-0.0051471901627257,-0.003374417469697,0.0392296021044254,-0.0003816478420048,0.0009329235181212,-0.0011252732947468
4.33194091796875,-0.0012587130905129,0.0018911475088447,0.0422235232234001,-0.0014642227906733,-0.0003456603735685,0.0023562770802527
4.341921142578125,-0.0039412667053751,-0.0003934380306862,0.040129181292653,-0.0017816177569329,0.0020633861422538,-0.0012422257568687
4.35190185546875,0.0018692644705995,0.0032973793112672,0.0336918417215347,0.0002754078013822,0.000949652865529,0.0002741781645454
4.361882080078125,-0.0023961378889158,0.0034151148062665,0.0546428598135709,-0.0012155921431258,-0.0021942351013422,-0.0014999333070591
4.37186181640625,-0.0060679400031454,-0.0018519845422357,0.0440156673371791,0.0023051067255437,-0.0003230981528759,-0.0003518446173984
4.381842041015625,-0.0072562730048783,-0.0045510326341725,0.0443137735009193,0.0008004194824025,-0.0005692681297659,0.0004586660652421
4.391822021484375,0.0022245989806018,-0.0064087619306053,0.0456575893253088,0.0013740643626078,0.0015162536874413,-9.84671860351e-05
4.401802978515625,0.0089904763863421,-0.0012917568435892,0.0386246219485998,0.0005758767947554,-0.0003050528466701,0.0016276824753731
4.411782958984375,0.0090942107554525,0.0048029433023184,0.0529880783438682,-0.0008880627574399,-0.0013402234762907,-0.0004945906694047
4.421762939453125,-0.0016288067782297,-0.0009166764535009,0.0525368274450302,0.0021415292285382,0.0028448272496461,-0.0006524707423523
4.4317431640625,0.0012816007757559,-0.0005459708444308,0.0447533339619636,0.0008584182942286,-0.0015959935262799,0.0012010892387479
4.441722900390625,0.0044622766384854,-0.0094980879817623,0.0444581504076719,-0.0019323772285133,-0.0020808381959795,-0.0002424416306894
4.451702880859375,-0.0027536643560044,-0.0074686645133886,0.0444581504076719,-0.0016029442194849,0.0020545180886983,-0.0013045102823525
4.461683837890625,-0.006301730492711,-0.0032865382568445,0.0507435142874717,-0.0015215191524475,0.000445851124823,-0.0005335649475455
4.4716640625,0.0007978906457312,0.0017134071886073,0.0302408244848251,-0.0008887520525604,-0.0006548333913087,0.0017511609476059
4.481643798828125,-0.0003164820706471,-0.0028925796363502,0.048199090501666,-0.0003226607223041,0.0007656523957848,-0.0020030564628541
4.4916240234375,-0.0091555672875605,0.0041328072221018,0.0363759662389755,0.0014062635600566,0.0010426212102174,5.13059057993e-05
4.50160400390625,0.0066987121873535,0.0024052253776695,0.0450555317789316,-0.0020461487583816,-0.0011985069140791,-5.62348868697e-05
4.511583984375,0.0035396453682333,0.0061574449175037,0.0514922868281602,0.0001735960831865,-0.0015247445553541,0.0009477767744101
4.521564697265625,-0.0006083411566913,0.0065839175681117,0.0405699107974767,0.0002314918674528,0.0001283148303627,0.0009036782430484
4.531544921875,0.0004857924892567,-0.0066719611777458,0.0513408956587314,0.0005787680856883,0.0031800307333469,-0.0012308454606682
4.541525146484375,0.001732869940903,-0.0012578271745238,0.0396668244779109,0.0013219963293522,0.0009882636368274,0.0014456734061241
4.551505126953125,-0.0012124993286095,0.006533411223581,0.0435550640881061,-0.0007619272219017,-0.0008815415203571,0.0011689709499478
4.56148486328125,0.0032894334668293,-0.0017407427201047,0.0504395629048347,-0.0007344066980294,0.0010639633983373,0.0002630703966133
4.57146484375,0.0038136582703329,-0.0078100252969656,0.0496890367984771,0.0007931825239211,-0.0004007760435342,0.0003600094933062
4.58144580078125,-0.0016640059557743,-0.0017358564824331,0.0390665204972028,-0.001251102425158,-0.0009114267304539,0.0002513264480512
4.59142626953125,-0.0080421626855619,-0.0046904502380173,0.0416109442830085,0.0011390846921131,0.0001120259985327,0.0009038009447976
4.601406005859375,-0.0053710072475485,0.0046751430710311,0.0314344181835651,-0.0021795853972434,0.0018567657098174,0.0004149574961047
4.611385986328125,-0.0025493556892499,0.0043502036992926,0.049989481049776,-3.12132760882e-05,-0.0013821711763739,-0.0014623047318309
4.621365966796875,-0.0043310697405599,0.0042099732446949,0.046847091370821,0.0023761871270835,-0.0002805795520544,0.0003737630904652
4.631345947265625,-0.0001764525454491,0.0063739463455509,0.0487894576102495,0.0001013148576021,-9.9484808743e-05,-0.0006198623450472
4.641326904296875,-0.0080957377700135,-0.0002175791402813,0.0435521414786577,-0.0015115176793187,0.001085901632905,0.0001148521550931
4.65130712890625,-0.0008198102165944,-0.0019258078302722,0.0419055433154106,-7.52749620005e-05,-0.0006337007507681,-0.0018399080727249
4.661287109375,0.0042151700096204,0.0004841119888238,0.0410112248241901,-0.0005285366205498,-0.0010230122134089,0.0008273818530142
4.671266845703125,-0.005450538757164,0.0025219836251344,0.0455056136339902,-0.0010281456634402,-0.0013599023222923,-0.0011289762333035
4.681246826171875,-0.0011558920368552,0.0020840579987503,0.0389250661998987,-0.0026026223786175,-0.0005652355030179,0.0008505077566951
4.69122705078125,-0.0058441229183226,-0.0029885782235767,0.0309931041568517,0.0011332600843161,0.0006531607359647,0.0003572903515305
4.7012080078125,-0.0035134880136698,0.0049671117549296,0.0383241776973009,0.0014414467150345,0.0005911327898502,-0.0009723871480673
4.71118798828125,0.0045561289343982,0.0004326192636042,0.049099838733673,-0.0014568713959306,-0.0004749298095703,-2.197586582e-06
4.72116796875,0.0006679075905121,0.006830074348906,0.0420639487475156,0.0022431067191064,0.0030666776001453,0.0015902842860668
4.73114794921875,-0.0059975781806744,0.0057076096576172,0.0392149890571832,-0.0020317994058132,0.002133771777153,-0.0017629017820581
4.7411279296875,-0.0021141791423782,0.002466746306559,0.038318332478404,-0.000275123398751,-0.0014732982963323,-0.0024505141191184
4.75110791015625,0.0044585320451296,-0.0009080638887826,0.0354740489631891,0.0010921434732154,-0.0018722396343946,-0.0016068248078227
4.7610888671875,-0.0020803499380126,0.0026577844997867,0.0297889890640974,-9.53951384872e-05,-0.0017229858785867,-0.00093226833269
4.771069091796875,-7.56407857872e-05,0.0046208008015993,0.0359223772525787,-0.000515908235684,0.00299640186131,0.0007039778283797
4.781049072265625,-0.001370375037752,-0.0009070227091666,0.0417559057116508,-0.0012363309506326,0.0013909498229622,-0.0015854897210374
4.79102880859375,-0.0029319435323588,-0.0013231383625417,0.0511795676171779,-0.0021508603822439,0.0009451368823647,0.0004891127464361
4.8010087890625,0.0054065900175832,0.0024605448946356,0.0484860907495021,0.0019011351978406,0.0009784372523427,-5.63457651878e-05
4.8109892578125,-0.0108741347084753,-0.0062381546040531,0.0327753113985061,-0.0004701435100287,0.0001717656850814,-0.0002214617561548
4.82097021484375,-0.0002872925087809,0.0045762401406653,0.0384650474727153,-0.0004839699831791,0.0009573074057698,-0.0012087317882105
4.830949951171875,0.0002515088093467,-0.0022469569428823,0.0474415501326322,0.0022159428335726,0.004266551695764,0.0012975690187886
4.840929931640625,-0.0113874545254744,-0.0026665431949775,0.0375625456750392,-0.0012714972253888,0.0001446679234504,-0.0017015784978866
4.850909912109375,-0.0045703583891503,0.0013403178262058,0.0553711740881204,-0.0017772314604371,-0.0028404695913195,0.001251600915566
4.86089013671875,0.0020560740132816,-0.0067128503105603,0.0399625925540924,0.0009449652861803,-0.0009216796606779,0.0002670909161679
4.870870361328125,0.0075290985968895,-0.0048957909512333,0.0422071566104888,0.0020717487204819,0.0013715690001845,0.0014316912274807
4.880851318359375,0.0068221011050045,-0.0079820117298513,0.0389157138496637,-0.0017078190576285,-0.0014902874827384,-0.0014822769444435
4.89083154296875,-0.0046157319008372,-0.0028607414596714,0.0444534742325544,0.0013481583446264,-0.001528370194137,0.0001302669988945
4.900811279296875,-0.0058643071898259,-0.0027101996736135,0.0437076243013143,0.0011675327550619,-0.000227085314691,0.0011483517009764
4.910791259765625,0.0013644202210009,-0.0029016579919494,0.0384714772135019,-0.0005233081756159,-0.0003522541373968,0.0008085322333499
4.920771240234375,0.0024188977099955,0.001635821040906,0.0462526326090097,0.0013671829365193,-0.0002675140276551,-0.0001490607392042
4.93075146484375,0.0038849516745656,-0.002305582661787,0.038025487011671,-0.0004299182328395,0.0001937448978424,0.0009465637267567
4.940732177734375,0.0005097396204248,0.0014614873873069,0.0410194081306457,0.0009321775287389,-0.0020644254982471,-0.0007000428740866
4.95071240234375,0.0111344478787854,0.0006175656427629,0.0291992064774036,0.0016496332827955,0.0002107135951519,-0.0001040274219121
4.9606923828125,0.0083361223971471,0.0022231650753412,0.0378746803641319,-0.0016520000062882,0.0008494360372424,-0.0009358858806081
4.97067236328125,0.0092225498428568,0.0011134411346167,0.0431125810176134,0.0005424447590485,0.0020622396841645,0.0012359219836071
4.980652099609375,0.0009323854792863,-0.009150023462763,0.0333837986856698,0.0032355044968426,0.001352441497147,0.0025919403415173
4.990633056640625,-0.0060628619692288,0.0015461151971481,0.0437023636043071,-0.0012593787396326,0.0007015652954578,-0.0006166361854411
5.000613525390625,-0.0009109042998403,0.0015154734637122,0.0463946714282035,-0.0020589472260326,0.0020536119118332,-0.0002075126394629
5.010593505859375,-0.0036136421862058,-0.0049655499855056,0.0377156904101371,-0.0025979708880186,0.0012389505282044,0.000520062923897
5.0205732421875,0.0037201347679831,-0.0024219299172982,0.037115386429429,-0.0008606469491496,0.0005851658061146,0.0003905557096004
5.03055322265625,-0.0081218951245769,0.0005014284498058,0.040108723026514,-0.0005234907148405,-0.0016111424192786,0.0009498195722699
5.040533203125,-0.0053603579893708,-0.0089377872178796,0.0405593894034624,-0.0007615077774971,-0.0022585010156035,-0.0044559547677636
5.050514404296875,0.0084626348536461,0.0035192601673305,0.0462462028682231,5.71479322388e-05,-0.0015224032104015,-0.0009096894063986
5.060494384765625,0.0018127667766995,-0.0038613150706514,0.0434054264843463,-0.0016417177394032,-0.0014851028099656,-0.0012412950163707
5.070474365234375,-0.0025156726153567,-0.0042122839327901,0.0432552043586969,0.0011561993742361,0.0003141285851597,-0.0024847250897437
5.080454345703125,-0.0027033954734914,0.0001817680413834,0.0435527260005474,-0.0011015940690413,0.001529068686068,0.0002380698424531
5.09043408203125,-0.0080243165016174,0.0091243866980075,0.0431055667549371,0.0003178708720952,-0.0022483589127659,-0.0003712613834068
5.100414306640625,-0.0094124281254597,-0.0082246979119256,0.0446013582706451,-4.26294282078e-05,-0.000390063971281,0.0005087390891276
5.11039453125,-0.0028934929518029,-0.0036398543396964,0.0369721785664558,0.0020990846678614,0.0009239399805665,-0.0026194099336862
5.12037548828125,0.0053631527346558,-0.0061128659902606,0.0474479798734188,-0.0016636867076158,-0.001337313093245,0.0002427566068945
5.130355224609375,-0.0032374292849563,0.0092720606735441,0.0356254401326179,-0.0006250538863241,-0.001458752900362,0.0014739360194653
5.140335205078125,0.0065872329032048,0.0102187486728187,0.0338297888875007,-0.001025655423291,0.0011782674118876,0.0003548242384567
5.150315185546875,0.0011236520013771,0.0020176234327256,0.0450508556038141,0.000848943600431,0.0016014436259865,-0.0002185543562518
5.16029541015625,-0.005675123026967,0.0041688009840901,0.0354752180069685,-0.000285628135316,-0.0012268852442502,0.0006376291858032
5.170275390625,-0.0020349216273985,-0.0034560313385445,0.0357721551269292,-0.0002656544093042,0.0017100479453802,-0.000530965917278
5.18025634765625,0.0042135991070419,-0.0006811323982663,0.0486409890502691,0.0001965821720659,0.0007133027538657,0.0030317467171698
5.190236328125,-0.001076470125094,0.004095954943588,0.0437017790824174,0.0007579765515401,0.0015836236998438,-0.0008577999542467
5.20021630859375,-0.0076843074249103,0.0022054741550236,0.0466951156795024,-0.0015457804547622,0.0006660809740424,-0.0010613813064992
5.210196044921875,0.0007295929161831,-0.001051691876864,0.044452305188775,0.0003930008970201,-0.0011829519644379,-0.0008408715948462
5.220176513671875,-0.0109832576387561,0.0032177930027246,0.046996144452691,0.0009428632911294,7.42655247449e-05,-0.0017484375275671
5.230156494140625,-0.0047583552419207,0.0047653329719789,0.0489443559110164,0.0024571367539465,-0.003990517463535,0.0009807699825614
5.240137451171875,-0.0088288926164619,-0.002010134246014,0.0347270299881696,0.0014296496519818,0.0020741932094097,-0.0015559144085273
5.2501171875,0.0038680553386919,-0.0042507436465006,0.0457996281445026,-0.0015152738196775,-0.0008371751755475,-0.0020504635758697
5.26009716796875,0.0022879282740876,-0.003205289714178,0.0453518843770027,0.0021108766086399,-0.0004826104268431,-0.0012836965033784
5.270077392578125,-0.0086911646462045,-0.0005194755631498,0.0413140071630477,-2.49786535277e-05,0.0003032879903912,0.0006257900386117
5.280057373046875,-0.0011462656919844,0.0006224975462071,0.0450537782132625,-0.001005933387205,0.0015089642256498,-0.0003696871281135
5.290037353515625,-0.0078413794164545,0.0001551174964755,0.0495440753698349,-0.0021186019293963,-1.54292210936e-05,0.0039616776630282
5.300018310546875,-0.0046319889158941,-0.004059047866147,0.0375748206347227,0.0005715343868359,-0.0002918960526585,9.08785877982e-05
5.309998291015625,0.0001418926887214,0.001761639377661,0.0499929881811141,-0.0001605685683898,0.0032242750748991,3.52185161318e-05
5.319978271484375,-0.0002704875044524,0.0003868986920453,0.0387660762459039,-0.000443194527179,7.5046904385e-05,-0.0023654156830161
5.329958251953125,0.0023289544042199,0.0016357114430516,0.0407137031823396,-0.0010253615910187,-0.0003198999911546,0.0001691145007498
5.3399384765625,0.0039626200206577,0.001408652088372,0.0414607221573591,0.0022680640686303,-5.86565583944e-05,-0.0023417549673467
5.34991845703125,0.0026657851431518,-0.0005141326677519,0.0327794030517339,-0.0005903068231418,0.0012633362784981,0.0004777334397658
5.359899169921875,-0.0033074257812462,0.0051674474994651,0.0442985759317874,0.0009392893407493,0.0029344828799366,-0.0001715995604172
5.36987939453125,-0.0010113872659392,-0.0063031552648171,0.0353179816186428,0.0019361104350537,-0.0003068502992391,0.0001029723498504
5.379859375,0.0035826807923614,-0.0053740394548513,0.0336719679772853,0.0023816572502255,0.0016977107152342,-0.0008467108709737
5.389839111328125,0.0052764973645098,0.002924728340283,0.0344172333866357,0.003031657077372,-0.0014687506482005,-0.0003668025019578
5.3998193359375,-0.0016840623631142,0.0024472835542634,0.0363595996260643,0.0011718267342075,0.0014815013855695,-0.0001921116490848
5.40979931640625,-0.0029865963290445,-0.0021277236105408,0.0417483069270849,0.0001827287487685,0.0003432668745517,-0.001064030569978
5.4197802734375,-0.0024306429467163,-0.0029169468926265,0.0558171642899513,-0.0009970292448997,-0.0013068700209259,-1.9087237888e-05
5.429760498046875,0.0014773608098737,-0.0032005313406698,0.0363642758011817,0.0017076770309358,0.0018604276701807,0.0010357908904552
5.439740234375,-0.0038699550348334,-0.0013989618114195,0.0353162280529737,0.0025168396532535,-0.0024916846305131,-0.0001491363946115
5.44972021484375,-0.0052797122349031,-0.0028477541139349,0.045341947504878,0.0010049631819128,-0.0028296401724219,0.0025265414733439
5.459700439453125,-0.000505647967197,0.004085753209982,0.0480360088944435,0.0002909295726567,-7.6033174991e-06,-0.0001495102624176
5.46968017578125,0.0026736579223535,-0.0010034231551922,0.0393576123982667,-0.0004941702936775,0.0006909435614943,0.0018180331680923
5.479661376953125,0.0064560808042064,0.0053045544152148,0.0495353075414896,-6.79973745718e-05,0.0007469356060028,0.0004542872193269
5.489641357421875,0.0025848288614302,0.0062630789827555,0.0431026441454887,0.0009493300458416,-0.0003713257610797,0.0025640435051172
5.499621337890625,-0.0030028168114833,0.0017365414690226,0.0374152461588382,0.0002047981834039,0.0015046345070004,0.0001205264998134
5.509601318359375,0.0020826514929533,0.0005859283954836,0.0410030415177345,0.0035220317076891,0.0004095425829291,0.0009407801553606
5.519581298828125,-0.0014700725525617,-0.0054294777028262,0.0374111545056104,0.0022295336239039,3.05455178022e-05,0.0011399214854463
5.529561279296875,-0.0082339589306153,-0.0058498676725197,0.032771804267168,0.0010268500773236,-0.0019596349447965,-0.000537603686098
5.53954248046875,-0.0091161303263157,0.0024958719363436,0.0350169528454542,0.0010225526057183,0.00150943454355,0.0004478027694858
5.549522216796875,0.0067178004803135,0.0095312869984656,0.037859482795,0.0025709145702421,-0.0012956727296113,-0.0004235834931023
5.559502197265625,-0.0028441739173606,0.003477868711017,0.0423544561266899,-0.0032203160226345,0.000580571591854,-0.0013649386819452
5.569482421875,-0.0064204432352446,-0.00025250432319,0.0366664736181497,7.26825091987e-05,0.0007350351661443,0.0002561274159234
5.579462158203125,-0.0027173874662257,-0.0013855634737294,0.0425011711210012,-0.001594960456714,5.1073729991e-06,-3.25025612255e-05
5.589442138671875,-0.011353680120036,-0.0017143935692962,0.0369622416943311,-0.0013094695750623,0.0006051175296306,0.0005251633701846
5.59942236328125,-0.0073537420299835,-0.0025623795676045,0.0309755685001611,-0.0033517284318804,9.82610508799e-05,-0.0002593812532722
5.6094033203125,0.0003793364400975,0.0004609594420995,0.0414484471976757,0.0003913445398211,0.0011558020487427,0.0007350430823862
5.619383056640625,0.0042985009115189,-0.006613280659914,0.0332183789908885,0.0023651802912354,-0.0008659278973937,-0.0001832797279348
5.62936328125,-0.0039683921743184,0.0026674747767392,0.0412976405501365,-0.0011264901841059,0.0009364997968077,-0.0001758228754624
5.63934326171875,-0.005954798484873,0.0015414938209578,0.0389005162805318,4.48360806331e-05,0.0009342767298221,0.002525906311348
5.649323486328125,-0.0035651086030527,0.0011901231000199,0.0320171865075826,0.0003492354881018,0.000336131080985,0.0003647510893642
5.65930322265625,-0.0107122221450321,-0.0016139471358153,0.0439887793302536,0.0001898391637951,-0.0008053416386246,0.0012533572735264
5.6692841796875,-0.0030863851753994,0.0113546756338793,0.032018355551362,-0.0014695764984935,-0.000300140120089,0.0005990185309201
5.67926416015625,-0.006978241514787,-0.004050234372029,0.0356096580415964,-0.0008154735551215,0.0021372828632593,-0.0013847071677446
5.689244384765625,0.0013570588984526,0.0002586966019589,0.0514700749963521,0.0019329087808728,0.0009676227346062,-0.0034350748173892
5.699224365234375,-0.0053750623681582,0.004868820745917,0.0356055663883686,-0.002684021834284,0.0009409403428435,-0.0013458706671372
5.709204345703125,-0.0069291964749805,-0.0049593211741186,0.043090953707695,-0.0009673483436927,-0.0006969040259718,-0.0015842235879972
5.719184326171875,-0.0005522635878995,-0.0029564660522621,0.0383007968217134,0.0004692482762038,-0.000637050718069,0.0002785781980492
5.729165283203125,0.0016219934449531,0.0044524036984425,0.0257289000183343,-0.0015182688366621,9.10572707653e-05,0.0013169447192922
5.73914501953125,-0.0033665903562679,0.0047203521859366,0.0438373881608247,0.0003096273867413,-0.0004193782806396,-0.0028123576194047
5.74912548828125,0.0015324337316676,-0.0016484339273069,0.0486287140905857,0.0013040517223998,-1.64415687322e-05,-0.0020533567294478
5.75910546875,-0.0031229360598139,-0.0013938015791121,0.047581835386157,-0.0007203399436548,0.0014180438593029,-0.0015409726183861
5.769085205078125,-0.0138931172034703,-0.0015844927124679,0.0453361022859811,-0.001150706782937,-0.0016059754416346,9.60724428296e-05
5.779065185546875,0.0001865720806643,-0.0022605470768176,0.0401046313732862,-0.0023376117460429,-0.0015024747699499,-0.0015153333079069
5.78904541015625,0.0051832661231048,-0.0005630041776224,0.0472924970507621,0.0001665585441514,-0.0017490833997726,-4.26052283728e-05
5.7990263671875,0.0009840974002145,0.0068089128298684,0.0453483772456645,-0.0006349228788167,0.0006068488582968,0.0003272292669862
5.80900634765625,-0.0057893239911645,0.0015900182709563,0.0401098920702934,0.0008809483842924,0.0012484043836593,-0.0008991563809104
5.818986328125,-0.0015910868500359,-0.0027274248030502,0.0347211847692728,0.0036482668947428,-0.0002078851684927,-0.0023122325073927
5.82896630859375,0.0053518824219703,-0.0021770791776012,0.0422018959134817,0.0033113767858594,-0.0010148230940103,-0.0016837264411151
5.8389462890625,0.0005050634453073,0.0047726942945271,0.0392091438382864,0.0002425827551633,-0.0004685912281274,0.0008863329421728
5.84892626953125,0.0013891893360763,-0.0078039152165874,0.0459422514855861,-0.0023289655800908,0.0014297105371952,-0.0001416472659911
5.85891015625,0.0046407750105485,0.0063756085796747,0.0460913045674562,0.0009408534970134,0.0002633361145853,0.0012563548516482
5.868889892578125,0.0037167920334264,0.0007478957578539,0.0344184024304151,-0.0011838164646178,0.0003309799358248,0.0029000577051192
5.878869873046875,-0.003372490374092,-0.0062328665075823,0.0351619142740964,-0.0001547189312987,-0.0007236152887344,0.0012616299791261
5.888849853515625,-0.0056030807040631,-0.0030888876597397,0.0429401470601558,-0.0002537885447964,0.0024894885718822,8.34475213196e-05
5.898829833984375,-0.003015895488765,0.0008679054083302,0.0439893638521432,-0.0015136795118451,-0.0018429737538099,0.0004154466441832
5.908809814453125,-0.0013331117672845,0.00278489061133,0.0459358217447996,-0.0009906347841024,0.0005735782906413,-2.18444183701e-05
5.918791015625,-0.0005513685387559,-0.0008733396352734,0.0399497330725193,0.0017830886645242,-0.0011182697489857,-0.0005520487320609
5.92877099609375,-0.0062228748365305,0.0106204065425787,0.0469838694930076,0.0005894597852602,-0.0016612876206636,0.0001893752923933
5.938750732421875,1.06127255596e-05,0.0012239705706946,0.0426461325496435,0.0005192726384848,-0.0006998153403401,0.0020010787993669
5.94873095703125,3.2148703932e-06,0.0048651583509519,0.045938744354248,-0.0024749194271862,-0.0001914175227284,4.01933357352e-05
5.9587109375,0.0042175080971792,-0.0022091548162978,0.0436953493416309,0.0013236837694421,-0.0011000661179423,2.71926546702e-05
5.96869091796875,-0.0049703540247865,-0.0002202186219394,0.0422001423478126,0.0002453697379678,0.0010626874864101,-0.0026511482428759
5.978672119140625,-0.0072118858738802,-0.0058247788970358,0.0395078345239162,0.0001496779732406,0.0006190845742821,0.0011811848962679
5.98865185546875,-0.0036975028110668,-0.0012283179522491,0.0354676192224025,0.0012785920407623,-0.0008238162845373,0.0004522777744568
5.9986318359375,-0.0072248732196167,0.000522982694488,0.0425011711210012,0.0044816425070166,-0.0011163419112563,4.75496635772e-05
6.008612060546875,-0.0043409152811393,0.00215984491501,0.0489350035607814,-0.0012215166352689,0.00102776940912,0.0013828586088493
6.018591796875,0.0067949573697522,0.0072280332910828,0.0475865115612745,0.0012060850858688,0.0006028870120644,-0.0005140287103131
6.028572021484375,0.009093352238927,-0.004453106951341,0.0371083721667528,0.0011501586996018,0.0001562749966979,-0.0001433167199138
6.038552001953125,0.0009935776146128,-0.0015388817387633,0.0389046079337596,-0.0015617281896993,-0.0003120694309473,0.0008077392121776
6.048532958984375,0.0140900828139856,-0.008186566991778,0.037260932379961,0.0007613472407683,0.0009566601365804,-0.0024676825851202
6.0585126953125,-0.004958407858666,-0.0048413573502562,0.0490823030769825,0.000380199868232,0.0002630492672324,-0.0005862438119947
6.068492919921875,-0.0086216248076409,-0.0029999764004256,0.047583588951826,-0.001550059299916,0.0018478967249393,0.0013639889657497
6.07847314453125,-0.0159709829234518,0.0049168794050347,0.039952071160078,0.001882831682451,0.0022380705922842,-0.0012682578526437
6.088452880859375,-0.0179657552035525,0.0065910779612604,0.0366582903116941,0.0003400624264031,0.0027741650119423,0.000103802740341
6.098432861328125,-0.006482292957697,-0.002194496103283,0.0368050053060054,-0.0007196317892521,-0.0001374492421746,0.0003597651375457
6.108413818359375,0.0014147987013682,-0.0002877948322799,0.0427905094563961,0.0018537808209657,0.0023195836693048,-0.0014554455410689
6.118393798828125,0.0039461438098922,-0.0028557547573,0.0384510189473629,-0.0021749925799667,-0.0020107757300138,-0.001701773609966
6.1283740234375,-0.0043008755316957,0.0002227941715158,0.0399509021162986,-8.57425620779e-05,0.0004425281658768,-0.0018567696679383
6.13835400390625,-0.0052160176152363,-0.0031180224226787,0.0314198051363229,0.0003415298415347,-0.0009430292993783,-0.0006708462024107
6.148333984375,-0.0024854966728016,0.0015194463859312,0.0296235693693161,0.0009535243734717,-0.0007579391822218,-0.0008812359301373
6.15831396484375,-0.0013253668522462,0.0023461886668112,0.0408446360856294,-0.0003174205776304,0.0002995561808347,0.00119679805357
6.1682939453125,-0.0068303574766963,0.0018760960701853,0.0417389545768499,0.0028227125294506,0.0025983965024352,-0.0002556901017669
6.17827490234375,-0.0062064534246921,0.0059198641688097,0.0421831912130117,0.0005892973858863,0.0029893387109041,0.0003000557189807
6.188255126953125,0.0038640732833184,0.0035592177183832,0.0403852018803358,0.0015096858842298,-0.0005151154473423,-0.0017899931408464
6.198235107421875,0.0007423975988291,-0.002568982838327,0.0366442617863416,0.0011356360046193,0.0010777665302157,-0.000413465197198
6.20821484375,0.001286496146582,-0.0011430234221275,0.0516062685966491,0.0012562772026285,0.0003690999001264,0.0022462338674813
6.21819482421875,-0.0090683273955248,0.0042951581769622,0.0511561867415905,-0.000304403482005,0.0003731744363903,-0.001275947317481
6.228175048828125,0.0019172683307901,0.0072918466417584,0.038887072277069,-0.0011235917918384,-0.0029043778777122,0.0011821504449471
6.238156005859375,-0.0097082692668773,-5.22051112726e-05,0.0323041867554187,0.0014110115589573,-0.001031463034451,0.0015880782157182
6.248135986328125,-0.003462598076649,-0.0001136621080804,0.0408335301697254,0.0003276375355198,0.00134620629251,-0.0002809282159432
6.258115966796875,0.0016544161435216,-0.0027829452494159,0.0442751950562,0.0001954205799847,-0.000509469769895,0.0003356223169248
6.268095947265625,0.0021119506526738,-0.0045028735103551,0.0444260017037391,0.0001959531800821,0.0019214637577533,-0.0001685140596237
6.27807568359375,-0.0051450164719484,-0.0054396520369686,0.0429302101880311,-0.0012211576104164,-0.0010282546281814,0.0005801715306006
6.288055908203125,0.0053525948080234,0.0024079653240274,0.0448766680806875,-0.0028403596952557,0.0004804255440831,0.0007998823421075
6.2980361328125,-0.0004034845006652,0.0014707575391512,0.0429354708850383,-0.0003609216073527,-0.0010893158614635,-0.0002800055663101
6.30801708984375,-0.0025436018018983,-0.0065695967818144,0.0417401236206293,-0.0010365655180066,-0.000772931613028,-0.0005921280244365
6.317996826171875,-0.0065171816079877,0.004205132672796,0.0418909302681684,-0.0008648369694128,0.0006599482148885,-0.0011316556483507
6.327976806640625,-0.005759348978009,-0.0014524090317077,0.0453290880233049,0.0005056257359683,0.0007132114842534,-0.0001074039682862
6.337956787109375,0.0010093231730163,0.0081282152675092,0.0368009136527776,-0.0008745839586481,-0.0011266078799962,-0.0002292299614055
6.347937255859375,0.0021280250046402,-0.0002945259671658,0.0418903457462787,-0.0003299674717709,-0.0016328748315572,0.0023082299157977
6.3579169921875,0.0017927651682868,0.0011935388998128,0.0409919356018304,0.0001337407156825,-0.0001305462792515,-0.0003871856606565
6.36789794921875,-0.0037704036504961,0.0031226803314872,0.0330640652120113,0.0023742581252008,0.0008188709616661,0.0022506753448396
6.3778779296875,-0.0007470920402556,0.0039831970178056,0.0415945776700973,-0.0008426501881331,-0.0017375312745571,-0.0005115020321682
6.38785791015625,-0.0042464236644096,-0.0030378333259373,0.0483300234049558,0.0003445870243012,-0.0024398062378168,-0.0004001819179393
6.397837646484375,-0.0050754035681486,-0.0007184778671246,0.0405494525313377,0.0019914740696549,0.0007302360609173,0.0007351767853833
6.407818115234375,0.0015469006484374,-0.0034591274779289,0.0387549703299999,-0.0013113780878484,-0.0012522209435701,0.0006832451326772
6.417798095703125,0.0067204673614352,0.0058500868682283,0.0456418072342872,-0.0016989973373711,0.0011291345581412,-0.0020421626977622
6.42777783203125,0.0013179141981527,0.0031925672299228,0.0544710103780031,-0.0013306820765137,0.0009070271626114,0.0008066206937655
6.4377587890625,0.0006537329346872,0.0037957572874613,0.0401058004170656,0.0007945379475131,0.0020594438537955,0.0003310731844976
6.44773876953125,-0.0073680810825899,0.0065531297042034,0.0333697701603174,0.0006736305076628,0.0014956528320908,-0.0002969001652672
6.457718994140625,-0.0068739956890232,0.0033375469248741,0.0450415032535791,0.0007926028920337,0.0002648951485753,0.0002835364430211
6.467698974609375,-0.0069774195308797,-0.0025925555101595,0.0418979445308446,0.0022530804853886,0.000429212115705,0.0009131077094934
6.477678955078125,0.0046120603727176,0.0009087580085266,0.042046413090825,-0.0001338823349215,0.0007477877661585,0.0012695416808128
6.487658935546875,-0.001107997774519,0.0036306937857065,0.0478846177250146,0.0015279302606359,-0.003592099994421,0.0011033604387193
6.497639892578125,-0.0027311054643243,-0.0074497314840555,0.0442974068880081,0.0005502488929778,0.0016131326556205,-0.0003913424443453
6.507619873046875,0.0059474919612519,-0.0012642112495377,0.0398076942533254,0.0035180752165615,0.0007822271436452,-0.0017434293404221
6.517599853515625,-0.0066488999625667,0.003502646959247,0.0378606518387794,0.0017571466742083,0.0005640061572194,-0.0013520201900973
6.527580078125,-0.0114030722197145,0.0064573777121491,0.0438502476423978,3.43478750437e-05,-0.0026469668373465,0.0013034177245572
6.537559814453125,0.000278652544599,0.0003169113289099,0.0422042340010404,0.0023934068158268,0.000815805979073,-0.0004903544904664
6.547539794921875,-0.0031634142006747,-0.0055951257264707,0.0372656085550785,0.0005070896586403,-0.0014215158298611,0.0002492053317837
6.557519775390625,-0.0137733267487026,0.0048130811038427,0.0471411058813333,-0.0015840388368815,0.00117361638695,-0.0025820571463555
6.5675009765625,-0.0027701223004609,-0.0007596683940384,0.040705519875884,-8.62770830281e-05,-0.0028062118217349,-0.0014033420011401
6.577481201171875,-0.0023170813033357,-0.001047006568592,0.047141690403223,-0.0005695325089618,0.0025378391146659,0.0006195054156705
6.5874609375,0.0066647916514426,-0.0011369133417494,0.0380114584863185,-0.000475789187476,0.0005577793344855,0.0019769184291362
6.59744091796875,0.0081642181626521,-9.43546194117e-05,0.0472907434850931,-0.0003340042312629,-0.0026742434129118,-0.0001230944908456
6.6074208984375,-0.0057352557163685,-0.0005408197452779,0.0431043977111577,0.0004313882673159,0.0010848082602024,0.0014127505710348
6.617400634765625,-0.0009297368644736,0.0012321356108412,0.0386158541202545,0.000588076072745,-0.0002424605190753,-0.0008163870661519
6.6273818359375,-0.0061884245776571,0.0010713372922502,0.0472977577477693,-0.0004135388298891,-0.0013402160257101,-0.0007745754555799
6.637362060546875,-0.0010961977388709,0.0055418337698094,0.041762919974327,-0.001399940229021,-0.0016059726476669,0.0007580713718198
6.647342041015625,0.0004559818728826,-0.0034550997567828,0.0465530768603086,-0.0014409528812393,0.0004473244771361,-0.0012973564444109
6.65732177734375,-0.0032360775780864,-0.0019053495641332,0.0508913983255624,-0.0003041545278392,0.0008881781250238,-0.000493042927701
6.6673017578125,0.0066252268260344,-0.0099399773972108,0.0398188001692295,-0.00044636731036,0.0008375784382224,0.000204705283977
6.677281982421875,-0.0039311289038509,-0.0042757410904392,0.0422112482637166,-7.36459624022e-05,-0.00023746304214,2.94037308776e-05
6.687261962890625,-0.0112449042496271,-0.0015779442406725,0.0461024104833602,0.0008416824275627,0.0008970433846116,0.000245652423473
6.697242919921875,0.0051596477854996,0.0076869469065684,0.0392179116666316,-0.0033334360923618,-3.54349613189e-05,0.000974801427219
6.707222900390625,-0.0005419979222118,0.0024445892736781,0.0363747971951961,0.0021715841721743,0.0026471670717,-0.0014585288008674
6.717202880859375,-0.0032849947537295,0.001797350011859,0.0417594128429889,-0.0015672980807721,-0.0004548756405711,-0.0011287444503977
6.727182861328125,0.0010288681237027,0.0046417887907009,0.0392149890571832,0.001602396252565,0.0001730974763631,-0.0015761555405333
6.737162841796875,-0.0010842333064414,-0.0055780832601245,0.0360725993782281,-0.0007396292057819,-0.0007916176691651,0.0002943223516922
6.74714306640625,0.0074891501789912,-0.0054170474795158,0.0327799875736236,0.0040796268731355,0.0008169319480657,0.0028070148546248
6.757123046875,2.17186414636e-05,0.0056198765752371,0.0330780937373638,0.0011999607086181,0.0008886121213436,0.0009238721104338
6.767103759765625,-0.003869845436979,0.0042400304562412,0.0450496865600347,3.6159181036e-05,0.0008734315633773,-6.20300997979e-05
6.777083740234375,-0.0094076058198697,0.0003416987102944,0.0372685311645269,0.0009198008337989,-0.0001014387235045,-0.0035440160427242
6.78706396484375,0.0014100677273236,0.0062298434334341,0.0540285273075103,0.0028857463039457,-0.0006609689444303,0.0001966598647413
6.797044189453125,-0.0012361724651418,0.0028522019601892,0.0395107571333646,2.01531220227e-05,0.0041185533627867,-0.0018042620504274
6.80702392578125,0.0003078238401561,-0.0016841902272775,0.039209728360176,0.0002569081261754,0.0007917322218418,-0.0014173047384247
6.81700390625,0.0006045965633355,0.0001228043957613,0.0399579163789749,0.0005768175469711,-0.0020887413993477,-0.0013447960373014
6.82698486328125,-0.0055022872107103,-0.0084468801620881,0.0445960975736379,0.0008247578516602,-0.0011433195322751,-0.0012164316140115
6.836965087890625,0.0029579547564499,0.0030842023514676,0.0416015919327735,0.0006382385035976,0.0015749335289001,-0.0005877390503883
6.84694482421875,-0.0124786290293559,-0.0019009199841879,0.0347200157254934,-0.00178390648216,0.0003469502553343,0.0001299828290939
6.856921630859375,-0.0133562338477931,-0.0023424532066099,0.0441442621529102,0.000157686881721,0.0021743262186646,-0.0028110996354371
6.86690185546875,-0.0058303501212969,0.0044452250389847,0.0419014516621828,-0.0021723126992583,-0.0010678060352802,-0.0004363589687272
6.8768818359375,-0.0021045710638165,-0.0029966610653325,0.0362128846317529,-0.0014749788679182,0.0020156744867563,0.000339397432981
6.88686181640625,-0.0055981670669279,-0.0001537566564511,0.0424964949458837,0.0005141360452398,-0.0009071454405784,-0.0026044608093798
6.8968427734375,-0.0041982188748195,0.010117315858649,0.0323193843245506,-0.0004468836123123,0.0007858872413635,-0.0034550796262919
6.90682275390625,0.0018315993413329,0.0044234515985939,0.0441407550215721,-0.0008655325509607,-0.0002788444980978,-0.0006667498964816
6.916802978515625,-0.0088584475045092,-0.0022967874339781,0.0450385806441307,-0.0012232392327859,-0.0011458992958068,0.0014861867530271
6.926782958984375,-0.0073606284284964,0.0031005598312243,0.0445890833109617,0.0008843864197842,-0.0003091339021921,0.0006723247352056
6.9367626953125,0.0081327453121542,-0.0035360743048135,0.0339642289221286,-0.0007054242305457,0.0003620432689785,-0.0020704308990389
6.94674267578125,-0.0076799052444286,-0.0114710685551632,0.0381534973055124,0.0019193873740732,-0.0002680597826838,-0.0024073207750916
6.956722900390625,-0.0133698787806555,-0.0034891481568571,0.0396492888212203,-0.0010375472484156,0.0013242838904261,0.0011897988151758
6.966703857421875,0.0046241709356196,-0.0003054309536702,0.0456353774935007,0.0002026868751272,-0.0007098391652107,0.0013024504296481
6.976683837890625,-0.0036520379678346,-0.0040198027011472,0.0323158771932125,-0.0010592646431177,0.0006562042981386,1.4158358681e-05
6.986663818359375,0.0006237944541499,-0.0021006712068337,0.0418950219213962,0.0015274637844413,0.0004026712849736,0.0002152270171791
6.996643798828125,-0.0098036194001324,0.001341066744877,0.0414426019787788,-0.0006563737988471,0.0008296556770801,0.0019008908420801
7.006623779296875,-0.0035955402739346,0.0064858274884987,0.0435351903438568,-3.71888745576e-05,0.0009188707917928,0.001057201414369
7.016603759765625,0.0037149654025211,0.0073974898401647,0.0382972896903753,-0.0032526641152799,-0.0015296898782253,0.0023566929157823
7.026584716796875,0.0013977745013311,0.0045765963336918,0.0359060106396675,-0.0021525123156607,0.0020080534741282,0.0002575893886387
7.03656494140625,-0.0024402692915871,-0.0027794746506959,0.0381488211303949,0.0012054843828082,0.0013679983094334,0.0012974024284631
7.046544677734375,-0.0025838424807414,0.0017062833280768,0.0360538946777582,0.0002123914891853,-0.0018893145024776,-0.0015348693123087
7.056524658203125,-0.0056442346983589,-0.0040003582151606,0.0498223077893257,0.0001093965256586,0.0010667582973837,7.53114291001e-05
7.0665048828125,-0.004672138263192,0.0037768516575917,0.0418915147900581,-0.0010797049617394,0.0017525227740406,0.0002015452773775
7.076484619140625,0.0068346683256328,0.0033673758075572,0.036350831797719,0.0017978537362068,0.0006965631619095,0.001103273127228
7.08646484375,-0.0006096563309431,0.000619511004677,0.0342559053450822,0.0027629833202809,-0.0001812148839235,0.0007256368990056
7.09644580078125,-0.0085545874534174,0.0045155868614558,0.040090018326044,0.0009338944801129,0.0016834856942296,0.0013114197645336
7.10642578125,-0.0105115484737791,-0.0007048694668803,0.0504115058541297,-0.0006533494452014,0.0027183908969163,0.0002296437160111
7.116406005859375,-0.0050898522186093,0.0022451851109042,0.0397866514652967,-0.0006892211968079,-0.0002455599606037,-0.0002469387254677
7.1263857421875,-0.0049702261606231,-0.0027008929891511,0.0382896909058094,-0.0022237345110625,-0.0011462410911917,0.0001786344073479
7.136365966796875,-0.0148118212172761,0.0063066441298462,0.0508563270121812,0.0001511649461463,0.0028952602297067,-0.0021629063412547
7.146345947265625,-0.0062057593049481,-0.0018004735507071,0.0417272641390562,-0.002244348404929,0.0012014899402856,-0.00053704646416
7.15632568359375,-0.0109074159235693,0.0036076965026091,0.0442693498373031,-0.0007067096885293,0.0004499945789575,-0.000639054516796
7.166306884765625,0.0010290325204841,0.003772084150929,0.042924949491024,0.0023822907824069,-0.0019471161067485,-0.0002430424210615
7.176286865234375,0.0047511217835359,0.0060845623443834,0.0317009601652622,0.0010196255752816,0.001833745278418,0.0005604063626378
7.186266845703125,0.0023241868975572,-0.0017714301193132,0.0269078806698322,7.87306344136e-05,0.0015051113441586,0.0014917138032615
7.196246826171875,0.0009348331646993,0.0031437505189795,0.0354395621716976,-0.0014038553927093,-0.0002718521282076,-0.000279241183307
7.206226806640625,-0.0019171952655538,-0.002720255276747,0.0375379957556724,0.0012851383071392,-0.0026236893609166,-0.0012952371034771
7.216206787109375,-0.0123006055813282,0.0004742116493172,0.0400847576290369,-5.51082193851e-05,0.0004187347367405,-0.0007732596131972
7.2261865234375,-0.012822474030964,-0.0001479297038633,0.0498100328296422,0.000561679888051,0.001091981306672,-0.0020944536663591
7.236167724609375,-0.0031467553268186,-0.0034202567722648,0.0457715710937976,0.0011752726277336,-0.0009693801403045,-0.0005506887682713
7.246147705078125,-0.0002157251099124,0.0038364546240307,0.0367915613025426,0.0001251882640644,0.0012333206832408,0.0002056489902315
7.2561279296875,-0.0029875827097333,0.0043726347268093,0.0400859266728162,-0.0036827356088906,-0.0003603026270866,0.0008716939482837
7.266107666015625,-0.005178827410005,-0.0072687854265794,0.0432306544393301,0.0017272098921239,-0.0010956013575196,0.0008951297495514
7.276087646484375,-0.003054711395502,-0.0038453503165394,0.0481675263196229,0.0014127423055469,0.000206122174859,-0.0025604947004467
7.28606787109375,0.0019453801804222,0.0001945727240294,0.0427805725842714,-0.0026831994764506,-0.0004847012460231,-0.000210787722608
7.2960478515625,0.0037824411481618,-0.0013997563958633,0.0418845005273818,-0.0010984732070937,-0.0014969799667596,0.0008073295466601
7.306028564453125,-0.0004859934186562,-0.0021664025199599,0.039940965244174,-0.0006713022012263,-0.0001185275614261,-0.0018560979515314
7.3160087890625,0.0024930771910585,-0.0081581720143556,0.0442833783626556,-0.0003446438349783,-0.0018539186567068,7.0856680395e-05
7.32598876953125,-0.0029830891977064,0.0047521720963064,0.0406897377848625,-0.0006144220824353,0.0020076651126146,-7.53508647903e-05
7.335968994140625,2.02756030485e-05,-0.0084894771947991,0.0417348629236221,0.0007449340773746,0.0005569830536842,0.0001307078200625
7.34594873046875,0.0070936663216911,-0.0028521745607256,0.0423334133386611,0.000943339546211,-0.0001524835824966,0.0016910538543015
7.355928955078125,0.0020835282757878,-0.0033825642435345,0.0402361487984657,0.0009799327235668,-0.0005867816507816,8.43019806779e-05
7.365908935546875,0.0045377164948731,-0.0023217392121441,0.0370920055538415,-0.0002871993347071,0.0013232380151748,0.0019192199688404
7.375889892578125,-0.0042995055585168,-0.0015106328918132,0.0451712671130895,0.0001059527276083,-0.0008986629545688,0.0002065317821688
7.385869873046875,-0.0047958925070241,-0.0011075685162562,0.0366448463082313,0.0004899805644527,-0.0019934885203838,-0.0016851115506142
7.395849853515625,0.0105805768556892,0.0014557334999553,0.0442787021875381,0.0007940664072521,-0.0011999597772955,-1.9318249542e-06
7.405829833984375,0.0056294389880262,0.0010599939143285,0.0409872594267129,0.000253178353887,0.0008155200630426,-0.000395280716475
7.415809814453125,-0.0025293906134553,0.0024900175842922,0.0454769720613956,0.0012811450287699,-0.0029231645166873,-0.0019699251279234
7.425789794921875,-0.0047096937946043,-0.0033507991320919,0.0402396559298038,0.0016361444722861,0.0009757028892636,0.0004570135497488
7.435770751953125,-0.0048073454828001,0.0025392087545711,0.0483154103577136,0.0011622017482295,0.002831189893186,0.0006882835878059
7.4457509765625,-0.0088560363517142,0.0002411609452683,0.03828852186203,0.0011499513639137,-0.00062239728868,0.0022358463611453
7.455730712890625,0.0046500725618563,0.0065022215008735,0.0385877970695495,-0.0013342596357688,0.0007438762113451,0.0015936017734929
7.465710693359375,-0.0022894261114299,0.0078404661010019,0.0414297424972057,0.0017824377864599,0.0001808842644095,0.000834867125377
7.47569091796875,-0.0059052237221039,0.0045587318834383,0.0472632709562778,0.001974482089281,0.001589878462255,-0.0003257019270677
7.4856708984375,-0.0019514263287186,-5.60501693282e-05,0.041574703925848,0.0021635664161294,0.0013451343402266,0.001919609028846
7.495650634765625,-0.0003309124547988,-0.0055051732875406,0.0394815310388803,0.00041000591591,-0.0006547113880515,0.0016506582032889
7.505630859375,-0.0019333792153745,0.0011369133417494,0.0382850147306919,0.0024451934732496,-0.0005487175658345,0.0018884785240516
7.51561181640625,-0.009138744016923,0.0061805883310735,0.0548895280510187,0.0021409094333648,0.0007394133135676,-0.0001191754563478
7.525591796875,-0.0028435711291618,0.003554788138438,0.0357359147697687,-0.0009467594209127,0.0005002617835998,-0.0015932350652292
7.53557177734375,-0.007104388645105,0.0031584731640759,0.048754970818758,0.0008697260636836,-0.0017354823648929,-0.0015306170098483
7.5455517578125,0.0018384674735367,0.0008854867307934,0.0397796372026205,0.0005091341445222,0.0001005008816719,-0.0014206285122781
7.555531982421875,-0.0078885612927377,-0.0006314389044884,0.0415758729696273,-0.0010454660514369,0.0011917622759938,0.000987657578662
7.56551171875,-0.003778349494934,-0.0035223654398694,0.0477098456799983,-0.0008542510913684,-0.0014761928468942,0.0004228010075166
7.575491943359375,-0.0014748217929154,-0.0048628111302386,0.048159927535057,2.54201004281e-05,-4.23304736614e-05,-0.0002703415520954
7.58547265625,-0.0008746639426797,0.0058207968416623,0.0432224711328744,-0.0004827110096812,-0.0003643063828349,-0.000648510409519
7.595452880859375,0.0035780959487892,0.0016507080827839,0.0466635514974594,0.0004391589900478,-0.0019096164032816,-0.0020149918273091
7.6054326171875,0.0002175700071267,0.0012779840465635,0.0315489844739437,-9.3173002824e-06,0.0004821689799427,-0.0020488139707595
7.615412841796875,-0.0060109125862829,-0.0072787862307857,0.0409761535108089,-0.0005225063068792,0.0031283861026167,5.66121889278e-05
7.625392822265625,-0.0017259652760811,-0.0046186819097492,0.0495031588375568,0.0008447605650871,0.0001696143299341,0.0001839112956076
7.635373046875,-0.0071135217996314,-0.002962850127276,0.0505488684982061,-0.0009240917279385,0.0010654982179403,-0.0005198023281991
7.645353759765625,-0.0093398012806661,0.0028373879835475,0.0397755455493927,0.0020820843055844,0.000267082825303,-0.0010708103654906
7.655333740234375,-0.0085322294911369,0.0012427848690189,0.0393242946505546,0.0006669340655207,0.0012412248179316,-0.0014261953765526
7.66531396484375,0.0024706644298508,0.0005654883956536,0.0483019663542509,-0.002295299898833,-0.0001079328358173,0.0010625286959111
7.6752939453125,0.002399316226691,0.0052838130212854,0.0447147555172443,-0.0011008430738002,-0.001331147737801,6.50175061309e-05
7.685273681640625,0.0001458930104039,-0.001565148691181,0.0424725295484066,2.67393188551e-05,7.34040513634e-05,0.0010977913625538
7.69525390625,-0.0067868288622237,-0.0011247388467658,0.056690439993143,1.51506392285e-05,-0.0014734463766217,-0.0025687357410788
7.70523388671875,-0.0012230024563148,0.0050976336662657,0.0451712671130895,0.0004409902030602,-0.0003101779147982,0.0010078896302729
7.715215087890625,-0.0027777576176449,0.0026729090036824,0.0367921458244323,0.0022581019438803,-0.0005746558308601,0.0008978890255093
7.72519482421875,-0.008365202361159,-0.0056920650286134,0.041880408874154,-0.0007070616702549,0.0001015206798911,0.0011370409047231
7.7351748046875,-0.0002510156190022,-0.0048878268404863,0.0406821390002965,-0.0015552977565675,0.0018832003697752,0.000394060043618
7.74515478515625,-0.0091482607639394,-0.0009901983474381,0.0523521185278892,-0.0012367836898192,0.0009209997951984,-0.0020246228668838
7.755134765625,-0.0068621956533752,-0.0014107070481404,0.0421738388627767,0.0010899384506046,0.0014570038765668,-0.0022941643837839
7.76511474609375,-0.0138098045678809,0.0022886223938316,0.0415729503601789,0.003241772763431,-0.0001795087009668,0.0012720744125545
7.7750947265625,-0.0040917628256604,0.0073786207429133,0.0447100793421268,0.0022939420305192,0.0015980219468474,-0.0004426498198881
7.78507470703125,-0.0021508761572651,-0.0020925700987689,0.0351338572233915,-0.0025415592826902,-0.0010217297822237,0.0005869282176718
7.7950556640625,-0.0108756325458176,0.0023557876122184,0.0478524690210819,-0.0011625220067799,0.001988205127418,0.0009380290284752
7.80503564453125,-0.0015771679225377,0.0029106084833852,0.046653030103445,0.0004369724774733,0.0025756983086466,-0.0015245960094034
7.815015869140625,0.0002705240370705,0.00210681781983,0.0474029716879129,-0.0001786773791536,0.0002790493890643,0.0017406558617949
7.82499560546875,-0.0013742657615803,0.002831341835251,0.0471036964803934,0.0036781122907996,9.66228544712e-05,0.0019656929653137
7.834975830078125,0.0009463592057116,0.0041978170160204,0.0460579868197441,-0.0009132328559644,0.0009335158392786,0.0007532900199294
7.844955810546875,-0.0059112881367094,0.0026068123643752,0.0366325713485479,-0.0011702278861775,0.0008759917691349,0.0005354435415938
7.85493603515625,-0.0082189257582649,-0.002658222891204,0.0424637617200613,0.0018751695752143,0.0015454711392521,0.0007038639159873
7.864920166015625,-0.0061428318702615,0.0017714392524678,0.041115854242444,0.0007832734845578,-0.0013224864378571,0.0004748320498038
7.874900146484375,-0.002291563269589,0.0038316505847498,0.0562321748316287,-0.000298734230455,0.0002965200692415,0.0013922295765951
7.8848798828125,0.0004562193349003,-0.0001566336001269,0.0349807124882936,0.0009428313933312,0.0010089157149195,0.0013418957823887
7.894860107421875,-0.0025308884507976,-0.0002885163514874,0.0381195950359106,0.0008928882889449,0.0007258811965584,0.0021733667235821
7.904840087890625,-0.006272613996081,-0.0018812654356472,0.0378197353065013,-0.0017260643653571,-0.0015857424587011,-0.0026639988645911
7.9148203125,0.0015909589858725,0.0047159682717639,0.0288432326465845,0.0023338261526077,3.81218269467e-05,0.0006149640539661
7.924800048828125,-0.0024172172095626,-0.0022225622871425,0.0408107338160276,0.0027143917977809,0.0008202921599149,0.0005851367022842
7.934781005859375,-0.003402648050338,0.0018048026659525,0.0414057770997285,0.0003164815716445,-0.0003480361774563,0.0005465208087116
7.94476123046875,-0.000493172078114,0.0009963266941253,0.049187517017126,-0.0001980777014978,-0.0004836609587073,-0.000400549499318
7.9547412109375,-0.0085702782128937,0.0018302019686903,0.0384112714588642,0.0004395429277792,0.001534522511065,0.0024235281161963
7.964720947265625,-0.006097951548919,0.0023592399446293,0.0358668476730585,-0.0032286951318383,-0.000347533263266,-0.0003059456357732
7.974701171875,0.0028415801014751,0.0050809382597915,0.044549335822463,-0.0026307511143386,-0.0010155066847801,-0.0002265754301333
7.98468115234375,-0.0022298962102271,0.0023699896675068,0.0328828634262085,-0.0013785328483209,-0.00146478228271,-0.0018684142269194
7.994660888671875,-0.0113198874482884,0.0067692840723786,0.0390180051803588,0.0020540549885481,0.000340424478054,-0.0005159114371053
8.00464208984375,-0.0040272462220862,0.0019537644162774,0.0393172803878784,-0.0041116955690085,-0.0001802239567041,-0.0016624022973701
8.0146220703125,-0.0110153332774527,0.0006617153117433,0.0435071332931518,0.0024304334074258,-0.0003642784431576,0.0006003337330184
8.02460205078125,-0.0093748177951201,0.0067262121156323,0.0379699574321508,0.0001875192392617,0.0002642273902893,-0.0006420309073291
8.03458203125,0.0022776260757818,0.0042364776591304,0.0321329218417406,0.0010928151896223,0.0007274281233549,0.0014946911251172
8.04456201171875,0.0041784364621154,0.0010569891064893,0.0464957937151193,0.0007881496567279,-0.0020686239004135,0.003156503662467
8.0545419921875,-0.0076442311428487,0.0055172929835971,0.0394663334697484,0.0002653456758707,-9.17417928576e-05,-0.0010827030055224
8.064522216796876,-0.0072246174912899,0.0075344962912146,0.0394651644259691,0.0021058563143014,-0.000216644257307,0.0013636768562719
8.0745029296875,-0.00766098134825,-0.0031491756127681,0.0333306071937084,0.0005487314192578,-0.0001130225136876,0.0008296910673379
8.084483154296874,0.0015354659389704,-0.0044379185153637,0.047249826952815,0.0006403442239388,-0.000156432390213,0.0006422045407816
8.094463134765626,-0.0113842579213902,0.0012789795604068,0.0460556487321853,-0.0015671836445108,0.0020142076537013,-0.0014400245854631
8.104443115234375,-0.0099365250647999,-0.0007470737739466,0.0415630134880542,0.0003894408000633,0.0004402799531817,-9.51282781898e-05
8.114423095703126,0.004671444143448,0.0001315174251794,0.0423117860287427,0.0002768959384411,-7.83251598477e-05,-0.0011127337347716
8.124403076171875,-0.0053757930205203,0.0089274576201103,0.0390197587460279,0.0021469676867127,-0.0004514334723353,-0.0005452141631394
8.13438330078125,-0.0062203723521903,-0.0083216006814502,0.0334831674069166,-0.0007560236845165,0.0014381743967533,-0.0007917081820778
8.1443642578125,0.0024073716689832,-0.0033604072106536,0.043806993022561,0.0010274953674525,0.0020264666527509,0.0013012700947001
8.154343994140625,-0.0090391743662767,0.0002738576384726,0.032281390401721,-0.0005912118358537,-0.0005832454189658,-0.0001192768904729
8.164323974609376,-0.0068096069496124,0.0060984356061089,0.0469423684388399,-0.0010032028658315,0.0008841566741466,-4.04473248636e-05
8.17430419921875,-0.001384586226195,0.0056729036704171,0.0393126042127609,-6.96737552061e-05,-0.0018573245033621,0.0009611235000193
8.184283935546874,0.0030316410471685,0.0093290972235612,0.0385655852377414,4.37769340351e-05,1.48778781294e-05,0.0003182364453095
8.19426416015625,-0.0010026194375939,0.0051635385093279,0.0357224707663059,0.0003963889321312,-0.0010613482445478,-0.00151187623851
8.204244140625,-0.0070487677340395,0.0018128855077084,0.0394657489478588,-0.0018995222635567,0.000686484389007,-0.0011720568872988
8.21422509765625,0.0004882219083607,-0.0003523936342447,0.0478460392802953,0.0007022772915661,-0.0004169465973973,-0.0013705072924494
8.224205078125,-0.0030396599568426,-0.0051255263201892,0.0337777664393186,0.0024535721167922,0.0011500576511025,-0.0010634447680786
8.23418505859375,-0.0058372365198098,0.0054665491770487,0.0301882175147533,-0.0002147768391296,0.0016249474138021,-0.0016651498153805
8.2441650390625,-0.0043367505626752,0.0019159988223109,0.0319850378036499,-0.0006635194877162,-0.0001569734886288,0.0005660465103574
8.254145263671875,-0.0034235629742033,-0.0050018268752843,0.0375187065333127,-0.0005048885941505,0.0017978707328438,0.0013494864106178
8.264125,0.001013049500063,0.0019307945326436,0.0402121834009885,-0.0002574809477664,-0.0020469352602958,0.0006892887759022
8.27410498046875,0.0030251017085276,-0.0023787848953157,0.0384177011996507,-0.0009943899931386,-0.0019598342478275,-0.0009839158738031
8.284085205078124,-0.0027245661256834,-0.001224290231103,0.0459019194751977,-0.0013685640878975,0.0028375843539834,-0.0015719417715445
8.294066162109376,-0.007490118293371,0.0104902682237327,0.0488917489409446,0.0013554169563576,0.0001524025574326,0.0003941408067476
8.304046142578125,-0.0013934819187037,0.00104232126032,0.0333288536280393,-0.0007085327524691,0.0005574701353907,-0.001153155695647
8.314026123046874,-0.0088376969774253,0.0015015454030595,0.0424538248479366,-0.0006361691630445,0.0009213807061314,-0.0027717745397239
8.324006103515625,-0.0019240268651396,-0.0001205302402842,0.040655250993371,0.0034672291949391,-0.0007747868075966,0.0013089871499687
8.33398583984375,0.00427842623787,0.0068007934554945,0.0467915617913007,0.0003024186007678,-0.0006684651598334,0.0002055711083812
8.343966064453125,-0.0028277159729041,7.50562638975e-05,0.0385632471501827,0.003193812444806,-0.0009393086656928,-0.0008434480405412
8.3539462890625,-0.0106372389463707,-0.0004528583340346,0.0390109909176826,0.0005948325851932,0.0006505362689495,0.000855679216329
8.36392724609375,-0.0076241930018179,0.0024334011593833,0.0487356815963983,-0.001456067780964,0.0017229914665222,-0.0024895172100514
8.373906982421875,-0.0048144693433307,0.0028274419782683,0.0446954662948846,-0.0006614556186832,-4.25893813371e-05,-0.0010135404299944
8.383886962890625,-0.0067614204263314,-0.001178012537118,0.0367640887737274,0.0027814789209514,0.0002410374581813,-0.0018995741847902
8.3938671875,-0.0076319379168562,0.0052600668195169,0.0405056133896112,0.0016425779322162,0.0027341237291693,-0.0004248119657859
8.403846923828125,-0.0104195410750806,0.0018244663476478,0.0399047248870134,-0.0006147174863144,-0.0001074690371751,-0.0005004457198083
8.4138271484375,-0.0076308967372402,0.003739012998389,0.0333230084091424,-0.0006515181739814,-0.0016343258321285,1.47400278365e-05
8.42380712890625,-0.0066288618215359,-0.0033392639579251,0.0394593192070722,0.0003144103102385,0.0010677175596356,-0.0014534606598317
8.4337880859375,-0.0032788938065059,0.0051601135763805,0.0409527726352214,0.0025700652040541,-0.0009469632059335,0.0002459403185639
8.443768310546876,-0.005521941759251,-0.0069785429088864,0.0500824200302362,0.0010358180152252,0.0007292302325367,-0.0007918935734778
8.453748046875,-0.0002743964945897,-0.0078525218649767,0.0354161812961101,-0.0016259106341749,9.95732843875e-05,-0.0014198609860613
8.46372802734375,0.0012793540197424,0.003010689590685,0.0439472782760858,-0.0010551951127126,-0.0019081840291619,0.0012811169726774
8.473708251953125,0.006953289736621,-0.0050568997970782,0.0375111077487468,0.0002654495183378,-0.0003017326816916,-0.0023748246021568
8.48368798828125,-0.0014955357873812,0.0049334469473455,0.0372089099317789,0.0006097962614148,0.0012210626155138,-0.0015649572014808
8.49366796875,-0.007772570230253,0.0066431826078332,0.0460369440317153,0.0020984059665352,-0.0013240510597825,-0.0009844305459409
8.50364794921875,-0.0051830651937052,0.0003416713108308,0.0333171631902456,0.0009540456812828,0.0021282043308019,-0.0002240980102214
8.513629150390624,-0.0126559218250215,0.0033858065133914,0.0410948114544153,-4.05410537496e-05,8.79233703017e-05,0.0010220919502899
8.523609130859375,-0.0017395919426344,0.0038448845256585,0.0485766916424036,-0.0003164445515722,-0.0002060895785689,0.0007294106762856
8.533589111328125,-0.0035140177366323,0.0063329019491095,0.0402010774850845,0.0004821886541321,-0.0013535348698496,6.05527166044e-05
8.543569091796876,0.0022506832699291,0.0007397307177074,0.0397527491956949,0.00282390601933,0.0014678183943033,-0.0004584973794408
8.553548828125,-0.0075190338606014,0.0089830237322486,0.0502215362399816,0.0035772295668721,0.0020401440560817,-0.0001791895629139
8.563529052734374,-0.0004990538296289,0.0065645461473613,0.0485708464235067,0.0010544171091169,0.0003431774675846,-0.0019358106656
8.57350927734375,-0.0031227351304143,0.003577155233873,0.0321136326193809,-0.002128217369318,0.0008227881044149,-8.01336063886e-05
8.583490234375,-0.0085144198398105,-0.0019787070612888,0.0403472079575061,-0.0003540196339599,-0.0020888466387987,-0.0006753500783815
8.593469970703126,-0.0043176805360242,-0.0004514609613921,0.0382505279392004,0.0023220733273774,-0.0001191878691315,0.0010816514259204
8.603449951171875,0.0035057978975586,0.0015560977350454,0.0369020359396934,0.0020307234954088,-0.0006520869210362,0.0013250643387436
8.61343017578125,-0.0008450359893962,0.0047274943127762,0.0428869555681943,-0.0002774973399937,0.002384970895946,-0.0009473976097069
8.62341015625,0.0015049794691614,-3.14545841887e-05,0.0340571679025888,-0.0001110497978515,0.0009138407185673,0.0009208098636008
8.63339013671875,0.0014650493175722,-0.0024956436074804,0.0461813209384679,-0.0013393773697316,-0.0009160535410046,-0.0003486881032586
8.6433701171875,-0.0031042130930349,-0.0046746042149141,0.0415448933094739,-0.000702349236235,7.38427042961e-05,0.0001133703190134
8.653352294921875,-0.0003049194970168,0.002625982855726,0.0297276142656803,-0.001678284490481,-0.0017060199752449,0.0009535731514915
8.663332275390625,-0.005275163923949,0.0001309968353714,0.0339180516928434,-0.0005152821540832,0.0032879393547773,0.0014007178833708
8.67331201171875,-0.0017218370902352,0.0038141423275228,0.0393044209063053,-0.0024992991238832,-0.0004171328619122,0.0010081862565129
8.6832919921875,-0.0114317137923091,-0.000884820010513,0.0396048651576042,1.4090910553e-06,-0.0006472300738096,0.0003205580287612
8.69327197265625,-0.0059450442758388,0.0053374611709732,0.0490314496725797,-0.0013194780331104,0.0020393962040543,-0.0016753941308706
8.703252197265625,-0.0005754983330145,0.0066707464681938,0.0354109205991029,0.0004792209947481,0.003062848933041,-0.0004159852396696
8.71323193359375,0.0088904500779695,-0.0026180735439062,0.0424421344101429,-0.0020564296282827,0.0013704840093851,-0.0001727697235764
8.723212158203125,-0.0079324552333913,0.005799379594298,0.0392991602092981,-0.0007091363659128,-0.0005358066409826,0.0001835612347349
8.733193115234375,-0.0044180356379598,0.0040820086166262,0.0491775801450014,-0.0020851748995482,0.0002399254590272,-0.0001420539920218
8.743173095703124,-0.0014561536250635,-0.0011798209017142,0.0409486809819936,-0.0010851578554138,0.0003994489088654,-7.2980328695e-06
8.75315283203125,-0.0085208678469061,0.0058467806662898,0.0403495460450649,0.0012726478744298,-0.0008842498064041,-6.94981499691e-05
8.763133056640624,-0.0141359312497079,0.0105036665614228,0.0461871661573648,0.0006798282265663,0.0002800840884447,0.0023585057351738
8.77311328125,-0.0037589872073382,0.0072439432462677,0.048432314735651,0.0004963900428265,0.0014223949983716,0.0002576248953118
8.783093017578125,0.0013539170932956,0.0066083396233152,0.0487292518556118,-0.0017784822266548,0.0004394222050905,-0.000151702974108
8.793072998046876,0.0042475379092618,0.001244209641125,0.046487025886774,0.0015004535671323,-0.0028946390375494,0.0013785575283691
8.803053955078125,-0.0055336504633538,-0.0036604130705352,0.0397550872832536,0.0008740780176594,-0.0005132406949996,0.0012738952646031
8.8130341796875,0.001518350407388,-0.0003075863781385,0.0433475588172674,-0.0010657175444066,9.64412465691e-05,0.0013097389601171
8.82301416015625,-0.0065805474340915,0.0052363754166755,0.0396066187232732,6.15986064076e-05,0.0008037760853767,-0.0010852417908608
8.832994140625,-0.0108571653073653,0.0076065568804275,0.0402051691383123,-0.0022488101385533,0.0013390155509114,0.0019295235397294
8.84297412109375,-0.0030299788130447,0.0084666443084832,0.0390092373520135,0.0023201089352369,0.0002867998555302,0.0001097856293199
8.8529541015625,-0.0074571293392218,0.0003813548672478,0.0446937127292156,-0.0014839833602309,-0.0009770132601261,-0.000150443840539
8.86293115234375,-0.0030873532897792,-0.0023597422681283,0.0297311213970184,0.0008327004034072,0.0009303418919444,0.000616812845692
8.8729111328125,-0.0039164793239906,-0.0037295875829178,0.042749592924118,0.0032137192320078,-0.0013158274814486,-0.0001950958394445
8.88289208984375,0.0038898835780099,-0.0037422735345549,0.0412508787989616,0.0003441631561145,0.0013627801090478,0.0013221070403233
8.892872314453125,-0.0039643553200177,0.0009953494465909,0.0409504345476627,-0.0008561817230656,-0.0006184615194797,-0.0011473268968984
8.902852294921875,-0.0073519701980054,0.0055508481933269,0.0397539182394742,0.0007968422723934,0.0008358908817172,0.0014090413460507
8.91283203125,-0.0060382389846257,0.002885930699855,0.0397527491956949,0.0012280946830287,4.7305598855e-05,-0.0008410739828832
8.92281201171875,-0.0022096388734877,0.0018527517272159,0.041546646875143,0.0008981290739029,0.0013202968984842,-0.0004400018951855
8.932792236328124,-0.0035533085674047,0.0066724269686266,0.0342144042909145,-9.79026663117e-05,-0.0001042494550347,-0.0005859929951839
8.942772216796875,0.0033861353069543,-0.0009697674807626,0.0270329683542251,0.0020848240237683,-0.0019037472084164,-0.001333808642812
8.952753173828125,-0.0034912579155527,-0.0004797737404238,0.0413981783151626,0.0007988436846062,0.000690815038979,-0.0028318376280367
8.962733154296876,-0.0054636539670638,0.0017398202714975,0.0406494057744741,0.0001540923258289,0.000902003608644,0.0003141546912956
8.972713134765625,-7.92392486706e-05,0.00454703231249,0.0464887794524431,0.001017827540636,-0.0016518551856279,-0.0002860375680029
8.982693359375,-0.0005407558131963,-7.1786594577e-06,0.0428998150497674,0.0003397866385057,-0.0001857848837971,-0.0003496871213428
8.992673095703125,-0.0056218584697693,-0.0016726824525743,0.0375128613144159,0.0021949522197246,-0.0004752436652779,-0.001501768361777
9.002653076171875,-0.0157637333809398,0.0082863375718239,0.0408019659876823,0.0013978682691231,0.0018283911049365,-3.2502299291e-05
9.01263330078125,-0.0050509815129451,-0.0114086799765937,0.039901802277565,0.0003798670368269,0.0019820947200059,-0.0009290350717492
9.022613037109377,-0.00458482530592,0.007073016259307,0.0370551806747913,-0.0005418530199676,-0.0003694770857691,-0.001145283691585
9.032593994140624,-0.0105779099745675,0.0002858494703657,0.0410959804981946,-0.0011719678295776,0.0014556711539626,0.001040574745275
9.04257421875,0.0024066410166211,-0.0009844992590136,0.0333130715370178,-0.0003623669035732,-0.0003390330821275,0.0009524241322651
9.05255419921875,-0.008136818699073,0.0034692196136806,0.031969840234518,-0.0019322535954415,-0.0018684724345803,0.0014491098700091
9.0625341796875,-0.0050470177238807,0.0077567881392315,0.0336205300509929,-0.0012720559025183,-0.0008498132228851,0.0011862559476867
9.07251416015625,-0.0053627874084748,-0.0006818265180103,0.0349690220504999,0.0004562846152111,-0.0007195798680186,0.0003122770867776
9.082494140625,-0.0032701807770878,0.0010089213142171,0.0387111311882734,-0.001102197333239,-0.0016229236498475,0.0004648762405849
