seconds_elapsed,ax,ay,az,gx,gy,gz
0.072145263671875,0.0043378830738365,0.0110217995508573,0.0519289246797561,0.0016967840492725,-0.0033111879602074,0.0006518614827655
0.08212451171875,-0.0021178689368069,0.0090416220516897,0.0514823499560356,0.0019856020808219,0.0037335949018597,-7.77645909693e-05
0.092103271484375,-0.0065428823048248,-0.0002398183715529,0.0392073902726173,-0.0018698563799262,-0.0007149493321776,-0.0008407602435909
0.10208251953125,-0.0152710179605521,1.88873635604e-05,0.0522211856245994,0.0011726877419278,0.0026260344311594,0.0015078340657055
0.11206103515625,-0.0012411957001313,0.0024833229820244,0.0452367335647344,0.0002285972004756,0.0017807474359869,0.0002939652476925
0.122040283203125,0.0044537828047759,-0.0030895269805565,0.0414490317195653,0.001764303073287,0.0007310770452022,0.0008717479649931
0.13201904296875,0.008777272027079,-0.0018570991087704,0.0527361494094133,-0.0021505437325686,-5.24250790476e-05,-0.0006534443818964
0.141998291015625,0.0170370047197677,0.0044962519733235,0.0544809472501277,0.0013353079557418,0.0015905508771538,0.0009929910302162
0.15197705078125,0.0064792059514671,-0.0063369114039465,0.0488759668499231,-0.0013235921505838,0.0014382181689143,0.0004518367350101
0.161956298828125,0.0052614641921594,-0.0085034052554517,0.0436275448024272,-0.0019088559783995,-0.0006611049175262,-0.0008886975119821
0.17193505859375,-0.0004234313101507,-0.0125326790378428,0.0544254176706075,-0.0009594389703124,0.000416143797338,0.0002849575830623
0.181914306640625,-0.0038296047581359,-0.0047991987089626,0.0466881014168262,0.0003816126845777,-7.94883817434e-05,-0.0002612603129819
0.19189306640625,-0.0125842082956805,0.0006193009421229,0.0467032989859581,0.0002090398920699,0.0004483498632907,-8.33611848065e-05
0.201872314453125,-0.0094140172943472,0.0025779607292264,0.0559890137255191,0.0025881775654852,-0.0004140604287385,-0.0008342915680259
0.211851318359375,0.0037459998616017,0.001076798918657,0.0510375287979841,0.0010725725442171,6.50417059659e-05,-0.0007543967221863
0.221830322265625,-0.011065693491511,-0.0012980769865214,0.0480038601905107,-3.23660206049e-05,0.0007925489917397,0.0004409515240695
0.231809326171875,-0.0023992248951457,-0.0021101970870047,0.050390463066101,5.07246004417e-05,-0.0022892616689205,-0.0024440509732812
0.241788330078125,0.0065144781942479,0.0020769706708379,0.0572702857077121,-0.0012324524577707,0.0016254130750894,-0.0005847834981977
0.251767333984375,-0.0015673041156493,-0.0065883654143661,0.0490507388949394,-0.0010316501138731,-0.0008662398904561,-0.0005501624546013
0.261746337890625,-0.0046826961898244,-0.0061851914409548,0.0465197591125965,0.0022144413087517,0.0010561551898717,0.0045342594385147
0.271725341796875,-0.0023350918840616,0.0021531411795876,0.0529711272090673,-0.0003688249853439,0.000703552737832,-0.001461048843339
0.281704345703125,0.0018833660611882,0.0007678790999576,0.047592941302061,0.0005220432067289,-0.0008545899763703,0.0003968270611949
0.291683349609375,-0.0075681336993351,-0.0017299290651455,0.0501309353470802,0.0010086026741191,0.0008093528449535,0.0002253194834338
0.301662353515625,-0.005825546082016,0.0041307248628698,0.0422135863512754,-0.0013796465937048,-0.0005265427753329,0.0010722040897235
0.311641357421875,0.0003466945458203,0.0021204444863833,0.0462561397403478,0.0001748405629768,0.0005517704412341,-0.0001038477930705
0.321620361328125,0.0046687041970901,0.0038845498157665,0.0544721794217824,-0.0011592155788093,0.0007292591035366,0.0026553645730018
0.331599365234375,-0.0065934799809008,0.002263835012447,0.0422065720885992,-0.0001842322526499,0.0001918338239192,0.0027448467444628
0.341578369140625,-0.0036168570565991,-0.0067489993361756,0.0438601845145225,3.07832378894e-05,0.0001045288518071,-0.0004676130774896
0.351557373046875,-0.0040747934245504,0.0030114567756652,0.051339726614952,0.0002710003172978,0.0011562118306756,0.0027143317274749
0.3615361328125,0.0010805069793947,-0.0044884339930489,0.0519336008548736,-0.00230637867935,0.0001206072047352,0.0008913804776966
0.371515380859375,-0.009268727072142,-0.006441394691728,0.0471539653629064,0.0013703815639019,0.0014306157827377,0.0020322785712778
0.381494140625,0.000596468055807,-0.0079290394335985,0.0547860676765441,-9.77791496552e-05,0.0004258789122104,0.0025319636333733
0.391473388671875,0.0052859045136719,-0.0083260759271681,0.0368260480940341,0.0013392625842243,0.0015092529356479,-0.0011786186369135
0.4014521484375,0.0144357909791171,-0.0081632683145813,0.0486380664408206,0.0007352599641308,0.0014860155060887,-0.0013362627942115
0.411431396484375,0.0072980115210637,0.0015886391646228,0.0468447532832622,0.0003435090184211,0.002263125963509,-0.0007173441699706
0.42141015625,-0.00626569106495,-0.0031821554337628,0.0480465302884578,0.0016287964535877,-0.0015048682689666,0.0005315380403771
0.431389404296875,-0.0087354421793483,-0.0042978250580839,0.0520908372431993,0.0004599350504577,-0.0022050132974982,-0.001151313423179
0.4413681640625,-0.0131740091486833,-0.0040316118699498,0.0393745635330677,-0.0007706460310146,-0.0009654955938458,0.0011568767949938
0.451347412109375,-0.0089040036792866,-0.0011594357008114,0.0405839393228292,0.0029314141720533,-0.0022219754755496,0.0001057271438185
0.461326171875,0.0114080771883949,-0.0031051629411056,0.0423836822211742,-0.0016013589920476,0.0018146494403481,0.0026304277125746
0.471305419921875,-0.002311656209547,-0.0057650663327425,0.0548041878551244,0.0025244099088013,-0.0024453429505228,9.03046311577e-05
0.4812841796875,0.0053643583110533,-0.0056278498191386,0.0482166261583566,-0.0015116676222532,-0.0026367017999291,0.000274538382655
0.491263427734375,0.0021217961932532,-0.0026089403893798,0.0393798242300748,-0.0013417578302323,0.001125811599195,0.0010260824346914
0.5012421875,0.0022845124742947,-0.0063803486868739,0.0558399606436491,-0.0008061233675107,0.0017766347154974,-0.0013486471725627
0.511221435546875,0.0044474443955346,-0.0094970924679189,0.0485159013658762,0.0001981547102332,-0.0021965354681015,-0.0023928727023303
0.521200439453125,-0.0042636670601554,-0.0033703166833147,0.044334816288948,-0.0009382780990563,0.0003920355811715,0.0015080975135788
0.531179443359375,0.0024207243409007,0.0066392553513869,0.0503220740050077,-0.000881819112692,0.000429319217801,0.0025973303709179
0.541158447265625,-0.0007689385458827,0.0082951693322509,0.0372960036933422,0.0002975543029606,0.0018163528293371,-0.0006679343059659
0.551137451171875,0.0032968678546138,0.0061591802168637,0.0458276851952075,-0.0018340398091822,-5.93112781643e-05,-0.0010200042743235
0.561116455078125,-0.0053714273726567,0.0014320055644959,0.0539057777106761,-0.00064342119731,-0.0002364609390497,0.0026770287659019
0.571095458984375,-0.0056800731967203,0.0017740056688897,0.0507604654222726,0.0001209060428664,0.00047726649791,-0.0016655217623338
0.581074462890625,-0.0028659656240604,-0.0042876324576325,0.0414864411205053,0.001932481303811,0.0021174447610974,-0.0009552352712489
0.591053466796875,-0.0011692629750818,-0.0066035447171889,0.0422387207925319,0.0015591059345752,-0.0004319995641708,-0.0010721479775384
0.601032470703125,-0.0016819069386459,0.0028110753653571,0.0513742134064435,0.0042742206715047,-0.0024875244125723,0.0001228911569342
0.61101123046875,0.0054471412236802,-0.0010135609567165,0.0584071807831525,0.0004978578654117,-6.45807012915e-05,0.0027093533426523
0.620990234375,0.0070176419434137,0.0012541099806316,0.0590028085887432,0.0008081714040599,-0.0007654754444956,-0.0005398950306698
0.63096923828125,-0.0083788472940213,0.0018849369637668,0.0524170004576444,-0.0005034354398958,-0.0014693494886159,0.0003008649218827
0.6409482421875,0.0034869653329253,-0.0025707090045325,0.0450870959609746,-0.0017914281925186,-0.0018063252791762,-0.0010985475964844
0.65092724609375,0.010569397874549,-0.0023641718480736,0.0500251368850469,0.0012861206196248,0.0012251511216163,-0.0010474149603396
0.66090625,0.0068913669489324,-0.0122854262785054,0.0521229859471321,-0.0018166424706578,-0.0011929450556635,0.0008097193203866
0.67088525390625,0.0078334518383257,-0.0044419097038917,0.0477858335256576,0.0007535741897299,-0.0003782846033573,0.0011753713479265
0.6808642578125,0.013860438776575,0.00590144259613,0.0440460624754428,0.000101295823697,-0.0010873703286051,0.0015881119761615
0.69084326171875,-0.0016773403613828,-0.007348006408941,0.0504787258714437,-0.0013631763868033,0.0003336928784847,-0.0003605229430831
0.700822265625,-0.0127676751038059,0.000732661656104,0.0371568874835968,3.83301521651e-05,-0.0019822055473923,-0.0001847270177677
0.71080126953125,-0.0061032305122353,-0.0025627448937855,0.0516746576577425,-0.0016336023109033,0.0009347554296255,0.0013292799703776
0.72078076171875,-0.0056538062443025,0.003191580849234,0.0498801754564046,-0.0006103919586166,0.0003450671210885,0.0012003899319097
0.730759765625,0.0056204702302813,-0.0028111849632114,0.0467319405585527,-0.0004700433346442,-0.000610209070146,-0.0018667727708816
0.74073876953125,-0.0001825534926727,-0.0026893486818298,0.0429927540302276,0.0007464727968908,-0.0009626932442188,0.0001003663055598
0.750717529296875,0.0016761347849853,-0.0008440678750164,0.0492763643443584,-0.0015108225634321,-0.000762689858675,0.0008122292929328
0.760696533203125,-0.0018710180362686,-0.0019888905285857,0.0411883349567651,0.0001677191467024,-0.0015224870294332,0.0012954750563949
0.770675537109375,-0.0007133359011262,-0.0057302690139971,0.0337052857249975,0.0004611994954757,0.0002253456041216,-0.0001466266985516
0.780654541015625,-0.0042868104737251,-0.0057093175575137,0.0542073910057544,-0.0010061827488243,0.000417067669332,0.0026930826716125
0.790633544921875,-0.0029470680362544,-0.0029714718251489,0.0551058011502027,1.43406214192e-05,-0.0018404936417937,0.0018627090612426
0.800612548828125,0.0087156962992623,0.0003050838937982,0.0507692332506179,0.0014384621754288,-0.000185121782124,-0.0019482939969748
0.810591796875,-0.0093864351676777,0.0010305486241355,0.0440285268187522,-0.0007794182747602,0.0007440550252795,-0.0024183420464396
0.820570556640625,-0.0105966694739647,-0.0069812554557807,0.0429816481143236,0.0005662339390255,0.0020022708922624,-0.0008018986554816
0.8305498046875,-0.0032578875510953,-0.0031805845311842,0.0527092614024877,-0.000536048435606,-0.0010941866785287,0.0004455259768292
0.840528564453125,0.0053473706436343,-0.0008763261768035,0.0573509497284889,-0.0018718771170824,0.0023012841120362,0.0006112642586231
0.8505078125,-0.0104646953910589,0.0019625687772408,0.0957704044938087,0.0015124679775908,0.0166764948517084,-0.0005533360526897
0.860486572265625,0.0185468064945191,0.0066980180676095,-0.053548050314188,-0.0022699134424328,-0.0156700387597084,0.0002779500209726
0.8704658203125,-0.0150226692226715,0.0028167196548543,0.0839724146723747,-0.0010781490709632,-0.001186704263091,-0.0013455130392685
0.880444580078125,0.0083608001806773,0.0007914609049446,0.0289192204922437,-0.0014329976402223,-0.0047313473187386,0.0005210575764067
0.890423828125,0.0005360796380788,0.0016444244724698,0.0669254182815551,-0.0023675009142607,-0.0020809695124626,0.0012981679756194
0.900402587890625,0.0028371596546843,0.0036487682985141,0.0366980378001928,0.0011860653758049,0.0009142672643065,-0.0008325962699018
0.9103818359375,0.0019530885628424,0.0062805050415918,0.0627343963325023,-0.0015213042497634,-0.0019347826018929,-0.0009513733093626
0.920360595703125,0.0067032970309257,0.0045023529205471,0.0474742833584547,0.0005046013975515,0.001248032785952,0.000793523795437
0.93033984375,-0.0004345372260548,-0.0044824243773706,0.0598918663829565,-0.001040564617142,-0.0006148479878902,0.0006877962732687
0.940318603515625,0.0034220834031701,-0.0017183664915151,0.0491179589122533,0.0023875904735177,0.0022731805220246,-0.0012685888214036
0.9502978515625,0.0002047287918627,0.0058085949472151,0.0531610968232154,-0.0010122008388862,-0.0032238503918051,0.000408403633628
0.960276611328125,0.0038953452044166,0.0062955199476331,0.0458288542389869,0.0005640591261908,-0.0006043147295713,-0.001439687446691
0.970255859375,-0.0024357940458692,0.0063035388573072,0.0443354008108377,-0.0007254434749484,0.0007586916908621,0.0020597060211002
0.980234619140625,0.0035678120167925,0.0068899056442081,0.051817280998826,0.0021596257574856,0.0005330257117748,0.0001338943693554
0.990213623046875,0.00093366412092,0.0014675152692943,0.053314826080203,-0.0019866498187184,-0.0020337291061878,0.0005823706742376
1.000192626953125,-0.0004846234454773,5.33376224339e-05,0.0486737222760915,-0.0015832672361284,-0.0005793767049908,0.0005479899700731
1.010171630859375,-0.0029424649263732,-0.0004670147235505,0.0494219102948904,-0.0005462322733364,0.0010840333998203,0.0014625195180997
1.020150634765625,0.002376446807757,-0.0080524100849404,0.0404454076349735,0.0018313247710466,-0.0008679237216711,-0.0004770516825374
1.030129638671875,-0.0064970156027935,0.0002690444660373,0.0389531232506036,0.0023309336975216,0.0003829626366496,-0.0005596096743829
1.040108642578125,-0.005879614356812,-0.0028209574385546,0.039696635094285,-0.0001242998405359,0.0024501057341694,-0.0005698735476471
1.050087646484375,-0.0110732922760769,0.0011770078901201,0.0408878907054662,-0.0026364596560597,0.0008223811164498,-0.0009022360900416
1.060066650390625,0.0062011744613759,0.0066921180497854,0.0428308414667844,0.0003028292558155,0.0003331862390041,-0.0006010424694977
1.070045654296875,0.0083036814322695,0.0059813576982356,0.0509118565917015,0.0004652820643968,-0.0012202356010675,0.0001694100064923
1.080024658203125,0.0004666311310604,0.0031927316267043,0.0492693500816822,0.001367597375065,-0.0004203915596008,0.0016691660275682
1.090003662109375,0.0157773052485659,-0.0004670877887867,0.0480745873391628,-3.00296815112e-05,-0.0012888489291071,0.0012731539318338
1.099982666015625,0.0057828577177599,0.0017582966431044,0.0477811573505401,0.0023565024603158,-2.00746580958e-05,-0.0033391849137842
1.109961669921875,0.0023025778539478,-0.0012850348418578,0.0322229382127523,0.0026462543755769,-0.0008531110361218,0.0015554389683529
1.11994091796875,-0.0087227836271747,-0.0037824046155437,0.0424012178778648,-0.0013659639516845,-0.0009032720699906,0.0030871736817061
1.129919677734375,-0.0059462681185454,0.0020416984280571,0.0413525856077671,0.001337144523859,0.0008890349417924,0.0001044333475874
1.13989892578125,0.0020600560686551,-0.0060244296549819,0.0447930814504623,0.0003872897359542,-0.0005482267588376,-0.0001059402202372
1.149877685546875,0.0005988426759839,-0.0038915458121336,0.0417956532001495,0.0007968838908709,-0.0007628770545125,2.96146718028e-05
1.15985693359375,-0.004398015763238,-0.0033112982387654,0.0452390716522932,0.0026644845493137,-0.0018804362043738,-0.0010040268534794
1.169835693359375,0.0038785584663972,-0.0042833764076232,0.0429933385521173,0.0013044084189459,-0.0009714998304843,-0.0001664626470301
1.17981494140625,-0.0020126549966633,-0.0004844407823868,0.0370078344017267,0.0012582840863615,-0.0010175723582506,0.0014452466275542
1.189793701171875,-0.0017030958571471,0.0015113178784027,0.0537684150665998,-0.0004778306174557,-0.0017315661534667,0.0017041058745235
1.19977294921875,-0.0018532997164875,0.00873810906047,0.0422474886208772,-0.0033391511533409,-0.0006710719317197,0.0004140248638577
1.209751708984375,-0.0058577130522578,-0.0008680150061845,0.0543663809597492,-0.0001114000333473,0.0012205718085169,0.0016025935765355
1.21973095703125,0.0089800828564912,-0.0006613865181803,0.0492705191254615,-0.0034686625003814,0.0026134317740797,0.0015272251330316
1.229709716796875,0.0065547919383272,-0.0017628632203675,0.0441775799006223,1.969106961e-06,0.0024829367175698,0.000671817746479
1.239688720703125,0.0049588827827014,-0.0039628757489845,0.0513619384467601,-0.0006462152814492,-2.45487317442e-05,-0.0017900739330798
1.24966748046875,0.004960855544079,0.000819992879685,0.0447743767499923,-0.0013905687956139,-0.0001097694039344,-0.0012619690969586
1.259646728515625,-0.0017846914596855,-0.0006854249808937,0.0449269369632005,-0.0009970283135771,-0.0018779402598738,-0.0017440153751522
1.26962548828125,-0.0080365549286827,-0.0035815117485821,0.0441816715538501,0.0004634491633623,-0.0003953585401177,0.0013215492945164
1.279604736328125,-0.0049492564378306,0.0028769436758011,0.0528606525719165,-0.0014503481797873,-0.0013229111209511,0.0006634354358538
1.28958349609375,-0.0117146041206084,0.0019850911363027,0.0467255108177661,-0.0002103804727084,0.0011077560484409,-0.0009509727824479
1.299562744140625,-0.0070872548472136,0.0010104922167956,0.0471691629320383,-0.0008455431670881,0.000584322027862,-0.0005438003572635
1.30954150390625,-0.0010230411711148,0.0019769626287743,0.0425303972154855,0.0003784456057474,-0.0006955936551094,0.0001243867591256
1.319520751953125,0.0054985791499726,-0.0026370339727029,0.0525584547549486,0.0003469032235443,0.0010933456942439,0.0005741951754316
1.32949951171875,0.0049084677697159,-0.013379395527672,0.0470201098501682,-0.001076290034689,0.0012526027858257,-0.0009041255107149
1.339478759765625,0.0057745648134499,-0.0006471570634283,0.0435749378323555,-0.0012344975257292,0.0004366831853985,-0.0020350026898086
1.34945751953125,0.0084581961405463,-0.0020465572662651,0.0547965890705585,0.00156022363808,0.0006398819386959,-0.0015694821486249
1.359436767578125,0.0029319800649769,-0.0034696854045614,0.0513566777497529,0.0012188639957457,-0.0021271891891956,0.0014150075148791
1.36941552734375,0.0070532247134484,-0.0048369551697745,0.0527051697492599,-0.0006256413180381,-0.0008035982027649,0.0004376273136585
1.379394775390625,-0.0040839265790767,-0.0022444909911602,0.0579424858808517,-0.0010879072360694,-0.0009066136553883,0.0002614098484627
1.38937353515625,1.44121178425e-05,-0.0040397403774783,0.0476163221776485,0.0001137109939008,0.0006824946030974,-0.0010525938123464
1.399352783203125,-0.006601151830703,0.0008568360250443,0.0555482842206954,-0.0005901280092075,-0.0020140316337347,-0.0009486335329711
1.40933154296875,0.0006429375460371,-0.0051797772580757,0.0486655389696359,-0.0015299575170502,-0.0014307992532849,0.0023289185483008
1.419310791015625,0.0045009098821319,-0.0058012518909759,0.0416314025491476,0.0004392663831822,-9.72151756286e-05,-0.0004342115134932
1.42928955078125,-0.0050640419239178,-0.0007946392427198,0.0483662637621164,8.69301729835e-05,-0.001847444102168,0.0012616894673556
1.439268798828125,-0.0037338162334635,0.0071694167053326,0.0401332729458808,0.0016495210584253,-0.00095353461802,-0.0002549803175497
1.44924755859375,0.0032236564879305,0.0060841970182023,0.0450689757823944,2.71233147941e-05,0.0001977505162358,-0.000502654351294
1.459226806640625,0.0039794615576043,0.0015895159474574,0.0509048423290252,-0.0008933487697504,0.0016908962279558,-0.0021219989284873
1.469205810546875,-0.0032917715543881,-0.0091145776900462,0.0423778370022773,-5.55182923562e-05,-0.0009653400629758,-0.0020543546415865
1.479184814453125,-0.0038958566610701,-0.0024631935094483,0.0354991834044456,0.0005352586158551,-0.0010826215147972,-0.0008326853858307
1.48916357421875,-0.0090648202641867,-0.003127466104459,0.0407394221454858,0.0018703010864555,-0.0004786169156432,-0.0002603720640763
1.499142578125,-0.003909684257023,-0.0114307091453112,0.0507674796849489,0.0037818651180714,9.89716500043e-05,-0.0019759510178118
1.50912158203125,0.0064471851116977,-0.0098624734479002,0.0471779307603836,-0.0009529690141789,-0.0023588603362441,0.0003090412355959
1.5191005859375,0.0044957587829791,-0.002826656526979,0.0362549702078104,-0.0019770106300711,-0.0004632482305169,0.0003173745062667
1.52907958984375,-0.0019552439873106,-0.0019388773743994,0.0498690695405006,-3.98273114114e-05,-0.0013756472617387,0.000541346380487
1.53905859375,0.0013656988626345,-0.0010935491240583,0.05660276170969,-0.0009909857762977,0.0001380583271384,0.0027227313257753
1.54903759765625,-0.0023994075582362,-0.0044967634299769,0.0401461324274539,0.0006830772035755,-0.0006560962647199,0.0015354941133409
1.5590166015625,-0.0014927958410233,-0.0048041123460978,0.0425438412189483,0.0002268551615998,-0.0006534187123179,-0.0002016337530221
1.568995849609375,-0.0054185727163217,-0.0045076866827905,0.0461374817967414,-0.0014658500440418,0.0003372775390744,-0.0025545365642756
1.578974609375,-0.0035470066907815,-8.35135649889e-05,0.0417950686782598,0.0019979239441454,0.0027184281498193,-0.0026100904215127
1.588953857421875,-0.0016903277071192,-0.0065695145834237,0.0476309352248907,-0.0011438073124736,0.0004574041813611,-0.0017413673922419
1.5989326171875,-0.0091732125421054,-0.0188096221491694,0.0447884052753448,-0.0003538597375154,-0.0011325534433126,0.0009427804034203
1.608911865234375,0.0063790700452402,-0.0023798626075498,0.041498131558299,0.0014989015180617,0.0014363313093781,4.3963547796e-05
1.618890625,0.0169656930492259,0.0040915618962608,0.0548152937710285,-0.0006216035690158,-0.0003359168767929,0.0008297958993352
1.628869873046875,0.0120123632244765,0.0199097288781777,0.0465875636518001,-0.0020549166947603,-0.0026571284979581,0.0010343266185373
1.6388486328125,0.0097613146283663,0.0270257531621493,0.0564659835875034,-0.0011655439157038,-3.11993062496e-05,-0.0018851498607546
1.648827880859375,0.0055863304986618,0.0238057682023383,0.0409030882745981,-0.0013562261592596,0.0002279262989759,-0.00353071722202
1.658806640625,-0.0128116603760048,0.0132545635716058,0.0432961208909749,-0.0006711478345096,-0.0003669094294309,-0.0014173163799569
1.668785888671875,-0.0195770080587826,-2.29242178611e-05,0.0434486811041831,0.0009653645684011,-0.0020660059526562,0.0001779170852387
1.6787646484375,-0.0104457714948803,-0.0128624041825532,0.0442038833856582,0.0002417361829429,-0.0011269133538007,-0.0002006515424
1.688743896484375,-0.0107379045755602,-0.0243840612806379,0.0415068993866443,0.0004124448169022,-0.0012779142707586,0.0018238835036754
1.69872265625,-0.0005589855896309,-0.0179744134340435,0.0522808068573474,-0.0001262975274585,-0.0028075333684682,-0.0014653984690085
1.708701904296875,0.0066921180497854,-0.014563289816305,0.0421001891046762,-0.000891956326086,-0.0001180069521069,-0.0011990823550149
1.7186806640625,0.0068289327045902,0.0021753347450867,0.0453887092560529,0.0012151047121733,0.000725507736206,-7.12711917003e-05
1.728659912109375,-0.0017003193781711,0.0093129498063586,0.0471814378917217,0.0006097683217376,0.0009726490825414,0.0012163672363385
1.738638427734375,-0.0044317536360584,0.0081897909953258,0.0420914212763309,0.0020861478988081,0.0005021290853619,-0.0001894725428428
1.74861767578125,-0.0042887284361757,0.0085925083110108,0.036410453030467,0.0004536301712505,-0.0010675378143787,0.0004757850838359
1.758596435546875,0.0067572739741764,0.0131143879159353,0.0287824423700571,0.0003950532409362,-0.0007689548656344,0.0003361594863235
1.76857568359375,0.0059417563402093,0.0027838950974866,0.0510825369834899,-0.0004339888109825,0.0005032373592257,-0.0014319131150841
1.778554443359375,0.0121175040993839,-0.0065146243247203,0.0510860441148281,0.0010326853953301,-0.0004432275891304,-0.0002974043891299
1.78853369140625,0.0081184793247841,-0.0081402527651749,0.0477940168321132,-0.0011870594462379,0.0007258998230099,-0.0010103326058015
1.7985126953125,0.0074649655858054,-0.0154770801929756,0.0389613065570592,-0.0033466033637523,0.0001649223268032,-0.0019229642348363
1.80849169921875,-0.0026662418008781,-0.013757161065191,0.0409030882745981,0.0005091212806291,0.0015795929357409,-0.0012055087136104
1.818470703125,-0.0071527030325494,-0.0149239946211688,0.0495826538145542,0.0007978942012414,0.0003102058544754,0.0014461153186857
1.82844970703125,-0.0074943378107622,-0.002688033507578,0.0500298130601644,0.0005065443692728,0.0013589588925242,-0.0012282310053706
1.8384287109375,-0.0069370327215641,-0.0044056876130402,0.0446346760183572,-0.0007686398457735,0.0011751111596822,0.0010899883927777
1.84840771484375,-0.0029561281255446,0.0069674461261369,0.0485229156285524,0.0027009262703359,0.0018022861331701,0.0005741340573877
1.85838671875,-0.0053013760774396,0.0057900363772176,0.0465758732140064,-0.0013293833471834,0.0001976238563656,0.0014543156139552
1.86836572265625,0.0058433739996515,0.0053820583645254,0.0450783281326293,0.0008914266363717,0.0019039111211895,-0.0011326790554448
1.8783447265625,0.0080485741600394,0.0071875368839129,0.0441799179881811,0.00038447213592,-0.0001659309491515,-0.0009576595039106
1.88832373046875,0.0062714266859926,-0.000564228020329,0.058695350074768,-0.0014869311125949,0.001026633195579,0.0006170676206238
1.898302734375,0.006225486918725,-0.0050801528085023,0.0435831211388111,0.0013465874362736,0.0005871364846825,0.0009699953952804
1.90828173828125,-0.007342142923735,-0.005058233237639,0.0434352371007204,-0.0006601043860428,-0.0003247298300266,-0.0021467020269483
1.9182607421875,-0.0091953695749863,-0.0132555864849127,0.0491214660435914,-0.0024259071797132,-0.0023053381592035,0.0011610075598582
1.92823974609375,-0.0098803561644628,-0.0090243238570168,0.048971243917942,0.000507564865984,-7.44080170989e-05,0.0012507560895755
1.93821875,0.004180007364694,0.00147743387511,0.0512163924962282,0.0010716621764004,0.0011882865801453,-0.0020017460919916
1.94819775390625,-0.0062733629147522,0.0031735154695808,0.0362502940326929,0.000693759531714,0.0010529980063438,0.0009783313143998
1.9581767578125,0.0028389497529715,0.0059292256521992,0.0516600446105003,-0.0015029156347736,0.0001033889129757,0.000488894234877
1.96815576171875,0.0054820481402799,0.0066319305614568,0.0474684381395578,-0.0014789472334086,-0.0004651956260204,0.0007924946257844
1.978134765625,0.0044290502223186,0.0063419894378632,0.0362485404670238,0.000131886685267,-0.001115838997066,-0.0005008083535358
1.988113525390625,0.0129445295080542,0.0164588212393224,0.0486731377542018,-0.0001461473293602,-0.0017411485314369,0.0023594265803694
1.998092529296875,0.0002954210163094,0.0023058292569592,0.0432861840188503,-0.001569150481373,-0.00010896474123,0.0005752312135882
2.008071533203125,-0.0015922741601243,0.0032749848163686,0.0557061051309108,-0.0009995002765208,-0.0015129838138818,-0.0001688560296315
2.018050537109375,0.0094384941484779,-0.0053911549864336,0.0447819755345582,-0.0005723789799958,-0.0020225718617439,-0.0016805990599095
2.028029541015625,0.0009968290176242,-0.0085745707955211,0.0476285971373319,0.0011291146511211,-0.0013852780684828,0.0013950855936855
2.038008544921875,0.0066466897391714,-0.0013542276205495,0.050770986816287,-0.0002459530369378,0.0012598168104887,0.0005824763793498
2.047987548828125,-0.0032710210273042,-0.0174261867004446,0.0447796374469995,0.0003564540529623,-0.0007500713691115,-0.0002766593534033
2.057966552734375,0.0007290083942934,-0.0108433742440305,0.0513631074905395,0.0036914604716002,-0.0018860958516597,-0.0009595203446224
2.067945556640625,-0.0012484108922071,-0.0021765220551751,0.0471755926728248,-3.88292246498e-05,-0.0011990005150437,0.0012578275054693
2.077924560546875,-0.0069496547411195,0.0029756000109948,0.0431336238056421,-0.0036845826543867,-0.0005190353840589,2.3794964363e-06
2.087903564453125,-0.0004479446968995,0.0059630183239467,0.0498661469310522,0.00041402206989,-0.0008548600599169,0.0001219554324052
2.097882568359375,-0.0188884778053499,0.0073391655153594,0.0441822560757398,0.0024475103709846,-0.0004794197157025,-0.0011936565861105
2.10786181640625,-0.0027867263753898,0.0077249864951707,0.0368511825352907,-0.0003256390918977,-0.000883687287569,-0.0019329502247273
2.117840576171875,-0.0030294490900821,0.0007267068393528,0.0387958868622779,-9.4358518254e-05,-0.0031754281371831,-0.0002914210781455
2.12781982421875,0.0069452342943288,-0.0045412784251384,0.0387999785155057,-0.0005255243158899,-0.0020755426958203,-0.0011170010548084
2.137798828125,0.007179591039475,-0.0080001319084316,0.032665421283245,0.0004493738524615,-0.0010853474959731,0.0005027901497669
2.14777783203125,0.0118829464248381,-0.0037684856880456,0.0434416668415069,-0.0011937965173274,-0.0006834771484136,0.0018764486303552
2.1577568359375,0.0039040765001438,-0.0018031038992106,0.0414993006020784,0.0008366007823497,-0.0014228876680135,-0.0011331648565828
2.16773583984375,-0.0011735738240182,-0.0002746704892255,0.0563116698086261,-0.001192195340991,-0.000942719168961,-0.0021435681264847
2.17771484375,-0.0116168976334854,0.0013924224727787,0.0474812976211309,0.0004058487829752,0.0014302320778369,-0.0009055795380845
2.18769384765625,-0.0033260391501709,-0.0013048355208709,0.0408925668805837,0.0009563242201693,0.0011340891942381,-0.0010957291815429
2.1976728515625,0.0018829094034619,0.0009593830840662,0.0447831445783376,0.000424028316047,0.0020345747470855,-0.0013001186307519
2.20765185546875,0.0017589724965393,-0.0037925058844499,0.0407405911892652,0.0005611811648122,0.0007943408563733,-0.0014149008784443
2.217630859375,0.0047051272173412,0.0063990533873438,0.0449257679194211,0.0009784450521692,0.0016748905181884,0.0007987719145603
2.227609619140625,0.000674793989025,0.0092585162053816,0.0506090742528438,0.0029840716160833,-0.0001296680420637,0.0006001000874675
2.237588623046875,-0.0030298874814994,-0.0066807564055547,0.0467208346426486,0.0009820214472711,0.0003449255600571,0.0004515752079896
2.247567626953125,0.0011348857814446,-0.0035125746982172,0.0470201098501682,0.0014853588072583,0.000520427711308,0.0006414585513994
2.257546630859375,-0.0044453985689207,0.0055754255121573,0.0497118331521749,0.0003402025322429,0.0020543178543448,0.0013552630553022
2.267525634765625,-0.0009658128248527,0.004912321960926,0.0521083728998899,-0.0022931310813874,0.0008140839636325,-0.0004604801069945
2.277504638671875,-0.003601586422231,0.007681439614389,0.0518090976923704,4.71787061542e-05,-0.0011808173730969,-0.0014171884395182
2.287483642578125,0.0021152751209214,0.0080514054379425,0.0346025268256664,0.0016338899731636,0.0016567800194025,0.0015013697557151
2.297462646484375,0.0026453451433219,0.0049130708795972,0.050312137132883,0.0048072328791022,0.0014496352523565,0.0002455307694617
2.307441650390625,0.0059530997181311,0.007979819772765,0.0473211386233568,-0.001059977337718,-0.0003131106495857,-0.0001094686012947
2.317420654296875,0.0006067885204218,0.0125145588592626,0.0322094942092895,-0.00109623093158,0.0004166085273027,-0.0013631334295496
2.327399658203125,-0.0013472681568004,-0.0025235819271765,0.0437298361331224,-0.0014198049902915,0.0017311442643404,-0.0007961463998071
2.337378662109375,-0.0102368597182445,0.0044337263974361,0.0387929642528295,-0.0010513486340641,-0.0012207832187414,0.0021096321288496
2.347357666015625,-0.0019672997512854,-0.0016117095129564,0.0429816481143236,2.56337225437e-05,0.0023411950096488,0.0008651369716972
2.357336669921875,-0.0085068941204808,-0.0061528966065496,0.03250701585114,-0.0014212280511856,-3.16873192787e-05,0.0005026964936405
2.367315673828125,-0.005572192375455,-0.0015661533381789,0.0477653752595186,-0.0013506542891263,-0.0005579283460974,0.0004254648520145
2.377294677734375,0.0068708173512481,-0.0064828409469686,0.0462672456562519,-0.0002674424322322,-0.0016197292134165,0.002563283778727
2.387273681640625,0.0040137656860053,-0.0066685362447984,0.0441740727692842,0.0017405811231583,0.0001422185450792,-0.0007643358549103
2.397252685546875,0.0057394204348325,-0.002650258780457,0.0546498740762472,0.0013794407714158,-0.0019049309194087,0.0006049846415407
2.407231689453125,-0.0026707535792142,-0.0042064752465113,0.053158174213767,0.0033477831166237,0.00010069552809,0.0040492508560419
2.4172109375,-0.002013239518553,0.0067710833038203,0.0534586184650659,0.0010342486202716,0.0004228372126817,-0.0010618391679599
2.427189697265625,-0.005070343800541,0.0059140280830673,0.047326399320364,0.0004614026402123,-0.0008584093302488,-0.0013188342563807
2.4371689453125,-0.0058416752329096,0.0042759602861478,0.0408937359243631,-0.0020462223328649,0.0015238691121339,0.0018959253793582
2.447147705078125,-0.0046546756717376,-0.0028631160798482,0.0381985054910182,0.0003927004290744,-0.0007808301597833,-0.0003451246884651
2.457126953125,0.0056397229200229,0.0009694295540452,0.050918286332488,0.0026923683471977,-0.0006619337946176,-0.0003255142946727
2.467105712890625,-0.0008366152209229,-0.0097205624928697,0.0461339746654033,-0.0003542879130691,-0.0003892257809638,0.0025911796838045
2.477084716796875,0.0042134347102604,-0.0076035520725883,0.0429910004645586,0.0008023437694646,-0.0006335787475109,0.0015458432026207
2.4870634765625,-0.0032035270153544,-0.0084070870078168,0.0461368972748518,-0.0019878500606864,0.0002460638061165,0.0009849814232438
2.497042724609375,-0.0049620428541675,-0.0047200142592191,0.0563122543305158,-0.0014235756825655,-0.0009783320128917,-0.0011343576479703
2.507021484375,0.004994465552736,-0.0052898683027364,0.0411982718288898,-0.0005700326291844,-0.0011397199705243,0.0005117422551847
2.517000732421875,0.007646057773754,0.0040327809137292,0.0438940867841243,-4.17222036048e-05,-0.0020147366449236,0.0015825033187866
2.5269794921875,-0.0020906704026274,0.004178290331643,0.0443429995954036,-0.0006505207857117,0.0030402094125747,-4.81503084301e-05
2.536958740234375,-0.0017488529613241,0.0065600891679525,0.0606505757957696,-0.0014593184459954,-0.0014226287603378,-0.0010328068165108
2.5469375,-0.000229096048139,0.0090101309348829,0.0515279426634311,0.0015654999297112,-0.0040453094989061,-0.0004008386167697
2.556916748046875,0.0014394399522803,0.0022754889176227,0.0551233368068933,-0.0016963670495897,-0.0006925882771611,0.0003210346621926
2.5668955078125,0.0029499723793938,-0.0011833828319795,0.0528787727504968,-0.0001466736430302,6.93416222929e-05,-0.0014454401098191
2.576874755859375,0.0053492520734667,0.0021199147634208,0.0344733474880456,-0.0021831193007528,-0.0014761202037334,-0.0011844532564282
2.586853515625,-0.002991619564034,-0.0012520824203267,0.051681087398529,-2.64914706349e-05,-0.0019773272797465,-0.0003021479933522
2.596832763671875,-0.002135587256588,-0.0020189386069774,0.0459960274994373,8.94739059731e-05,0.0029809679836034,0.0003388104669284
2.6068115234375,0.0002226297747343,-0.0036492249562405,0.0424047250092029,0.000258584623225,-0.0011466648429632,-0.0016258034156635
2.616790771484375,-0.0023008060219697,0.0031828495535068,0.047641456618905,-0.0008208993240259,0.0002731513231992,0.0004287880728952
2.62676953125,-0.0010957593474537,0.005437387014646,0.0585626636058092,-0.0006936002173461,-0.0001569492742419,0.0006178725161589
2.636748779296875,-0.002072166631557,-0.0011518551825545,0.0488315431863069,-0.0025403518229722,0.001545725390315,0.0012709298171103
2.6467275390625,-0.0019519925842992,0.0063395965513773,0.0388029011249542,-0.0010702868457883,0.0009105615317821,0.0001350915117654
2.656706787109375,0.0140913614556193,0.010655706184823,0.0414934553831815,-0.0024484428577125,-0.0007551563903689,-0.0006755630020052
2.666685546875,0.0024205964767374,0.0091190894683822,0.049871992149949,-0.0003496056306175,-0.0005405051633715,0.0015553669072687
2.676664794921875,0.0098455223130993,0.0103872645069845,0.0492769488662481,0.0001706947223283,-3.3425167202e-06,-0.0027059577405452
2.6866435546875,-2.85137084312e-05,-0.003496920471359,0.0461351437091827,-0.0008548886398784,-0.0010771285742521,-0.0006193711888045
2.696622802734375,-0.0073818173469975,-0.0071085898961871,0.051222237715125,0.0009308164590038,0.0004063043743371,-2.8304712031e-06
2.706601806640625,-0.0092388251242227,0.0038061873499304,0.0470306312441825,0.0008719605975784,-0.0017311489209532,-0.0002552981604821
2.716580810546875,-0.0034225217945873,-0.0022401984085328,0.0549661004185676,-3.26922745443e-05,0.0007376419380307,3.9728347474e-05
2.72656298828125,0.0074735872836783,-0.0050606078578159,0.049579146683216,0.0022174124605953,0.0013006338849663,-0.00010674551595
2.7365419921875,0.0075121109294705,0.0040351190012879,0.0468821626842021,-0.0013174974592402,4.57502901554e-05,-0.0001870738633442
2.746520751953125,0.008383249474503,0.0028230945967137,0.047033553853631,0.0020684455521404,-0.0021327147260308,2.8642174584e-05
2.756499755859375,0.0012467669243924,0.0047734249468892,0.048531098935008,-0.000456736452179,0.0004972461611032,-0.0017930917674675
2.766478759765625,-0.00156304806564,0.0030574513418599,0.0485270072817802,0.0022090878337621,0.0018844865262508,0.0014948468888178
2.776457763671875,-0.0055389659592881,0.0029748510923236,0.0510702620238065,-0.0004781134775839,0.0007720682770013,0.0008166712359525
2.786436767578125,-0.0006092179395258,-0.0002150309901684,0.0603466244131326,0.0020777222234755,0.0002045491710305,-0.0014747126260772
2.796415771484375,-0.0044247576396912,0.0011740122154355,0.0462795206159353,0.0025671711191534,-0.0006705373525619,-0.0005247424705885
2.806394775390625,-0.0011648242619819,-0.0039154381443746,0.0373036024779081,0.0003628726699389,-0.0015978505834937,0.002244145842269
2.816373779296875,-0.0012257424026727,-0.0069780040527693,0.0525637154519557,5.3446914535e-05,0.0020190514624118,-0.0001127032010117
2.826352783203125,-0.003512154573109,-0.0073253927183337,0.0390910704165697,-0.0004930336726829,0.0012485990300774,-0.0014163204468786
2.836331787109375,0.0017583514420315,-0.0038189372336491,0.0540507391393184,0.0011070903856307,0.0023751780390739,-0.0005180146545171
2.846310791015625,0.0050697775449603,-0.0008222944346256,0.0503092145234346,0.0009819217957556,0.0010377382859587,-0.0007867275853641
2.856289794921875,-0.003142371412646,0.004952507840842,0.0435772759199142,0.0016874829307198,0.0006248960271477,-0.0010341515298932
2.866268798828125,0.001494092748966,0.0040987588220275,0.0438777201712131,0.0021705802064388,-0.0003231894224882,0.0009730728925205
2.876247802734375,-0.0003278985138051,0.005228730966337,0.0359451736062765,-0.0024428637698292,0.0019110077992081,-0.0005290466360747
2.886226806640625,-0.0128812732798047,-0.0006431750080548,0.0500070167064666,0.0005196366691961,-7.51772895455e-05,-0.0002877642982639
2.896205810546875,-0.0006051080199889,0.0010386223327368,0.0544967293411493,-0.0003990228869952,-0.0008970517665147,0.0007529346039518
2.906184814453125,0.0049995253203436,-0.0002674918297678,0.039834582260251,-0.0009127467055805,-0.0023689800873398,-0.0024234177544713
2.916163818359375,0.0001546973713673,-0.0020903781416825,0.0456722023725509,0.0003416158724576,0.0005859686061739,-2.70035379799e-05
2.926142822265625,-0.002906370699685,0.0058264959300868,0.0543523524343967,0.0024654867593199,0.0006442917510867,0.0016385373892262
2.936121826171875,0.0070702671797946,-0.0025755313101224,0.0372954191714525,0.0003865255275741,-0.0004270728677511,-4.91152095491e-05
2.946100830078125,0.0034188137338496,-0.0103757201996631,0.0390928239822387,0.001333811902441,-0.0003634225577116,-0.0005058473325334
2.956079833984375,-0.005950304972846,-0.0054398347000591,0.0444809467613697,0.0028124954551458,0.0010524587705731,-0.0003080825263168
2.966058837890625,-0.0030601912882179,-0.0041337205375544,0.0494184031635522,0.0013112713349983,0.0008583143353462,0.0015974092530086
2.976037841796875,0.0014349099076353,-0.0005292115058749,0.0447778838813304,-0.0014971673954278,-0.0009883157908916,0.0015418827533721
2.986016845703125,-0.0081256762505508,-0.0075720609557814,0.0513590158373117,-0.0001189815811812,0.000270826742053,0.0003240191726945
2.99599560546875,-0.0062410498140379,0.0062189475800842,0.0459714775800704,-0.000306864560116,4.83328476548e-05,0.0013938767369836
3.005974609375,0.0040578240234404,0.0062574712258763,0.0428290879011154,-0.0025063692592084,-0.000626778230071,0.0009922720491886
3.01595361328125,0.0038691878498531,-0.0047940110771916,0.0480658195108175,0.0002932824427261,0.0008826768025755,-0.0013134584296494
3.0259326171875,0.0017781703873537,-0.0052554545764811,0.0461205306619405,0.0003654541214928,-0.0002345200628042,0.0024437292013317
3.035910888671875,8.9322251267e-06,0.003737432962656,0.040588030976057,-0.0006527116056531,-0.0027436250820755,-0.0018462523585185
3.045890869140625,0.0009803528068587,-0.0002233969597145,0.0325046777635812,-0.0024532747920602,0.000255892984569,-0.0010409124661237
3.055868896484375,-0.0021367563003674,-0.0035013957170769,0.0408791228771209,-0.0019163589458912,0.0006822375580668,0.0022823028266429
3.06584765625,-0.010233590048924,0.0010598112512379,0.0528548073530197,-0.0025270218029618,-0.0023356564342975,-0.0012493149843066
3.07582763671875,0.0009415186338126,-0.0095512520742602,0.0461211151838302,-0.0002710974658839,0.0005304077640175,0.0012462699087336
3.0858056640625,0.0005461809069849,-0.0005861658575013,0.0438736285179853,1.30617991089e-05,0.0006569074466824,-0.0006208723061718
3.095784912109375,0.0036814467254094,0.0029896102700382,0.0519505519896745,-0.0022327902261167,0.0021015834063291,0.0014195478288456
3.105763671875,-0.0079290029009804,-0.0046649778700433,0.0458124876260757,0.0028511842247098,0.001986801624298,-0.0013426828663796
3.115742919921875,0.0036907077440991,-0.0059703065812587,0.0502951859980821,-6.06578541919e-05,0.0027419477701187,0.0004121258971281
3.1257216796875,-0.0008975881605409,0.0014186711588874,0.052688218614459,0.0007018051110208,-0.0007957946509122,-0.0009652610169723
3.135700927734375,-0.002802380602248,0.0013147541266866,0.0407189638793468,0.0024052690714597,0.0006767567247152,-0.00110228813719
3.1456796875,0.0020437807872891,-0.0009586889643222,0.0447626863121986,-0.0003937134169973,0.0026118094101548,-2.69037336693e-05
3.155658935546875,-0.0058722895668819,0.0045013117409311,0.0384755688667297,-0.0009599016048014,-0.0012530200183391,0.0022346270270645
3.165637939453125,-0.0008249247831292,0.0057519511228427,0.0476069698274135,0.000326138921082,-0.0019915141165256,0.0008982527651824
3.175616943359375,0.0024823000687174,0.0020922047725878,0.0413216059476137,-0.0001523430692031,0.0006245747208595,-0.0003033382236026
3.185595947265625,0.0001179638238623,-0.0005707673589698,0.0501513936132192,-6.12629810348e-05,-0.0007450887933373,0.0010090675204992
3.19557470703125,0.0064534687220118,-0.0121433691930025,0.0446153867959976,3.48591711372e-05,5.4752454161e-06,0.0005703661008737
3.2055537109375,0.0016202946782112,0.0027686244631186,0.0404231958031654,-0.0017390723805874,-0.0001380695030093,0.0008982012514024
3.21553271484375,0.0038689503878355,0.0044935120269656,0.0386263755142688,-0.0008976116660051,-9.47173684835e-05,-9.64100327109e-05
3.22551171875,0.0037109650808386,0.0015146058140322,0.0432686483621597,-0.0003657783963717,-0.0023743826895952,0.0005099917761981
3.23549072265625,0.0033814043329097,-0.0016428353035822,0.0422241077452898,0.0021410486660897,-0.0015789484605193,-0.0024757510982453
3.2454697265625,-0.0062852360156364,0.0030370661409571,0.0458200864106416,0.0012528843944892,8.84570181369e-05,-0.0001614641805645
3.25544873046875,-0.0067712842332199,-0.005605126530677,0.0468669651150703,0.0012199387419968,0.0010744286701083,-0.0007986096898093
3.265427734375,-0.0022137487930245,-0.0008795775798149,0.0464151296943426,0.003465250134468,0.0003415262326598,-0.0023046273272484
3.27540673828125,-0.0001674837877042,0.0013835633128881,0.0438730439960956,0.0008854548214003,-0.0002042204141616,0.0005498607642948
3.2853857421875,-0.0094093045866116,-0.0009225399387069,0.0438671987771987,-0.0005220257444307,0.0021510794758796,0.0033688165713101
3.29536474609375,-0.0007082213345915,-0.0049061114158481,0.038777182161808,0.0029080742970108,0.0002778861671686,0.0037746971938759
3.30534375,0.0060645972685888,-0.0092051785829477,0.0446171403616666,0.004757905844599,-0.0015572980046272,0.001578388386406
3.31532275390625,0.0026712650358676,-0.0040294199128635,0.0404267029345035,0.0002412175526842,0.0009178146719932,-0.0002374950418015
3.3253017578125,0.0086968454683199,-0.0029736820485442,0.0414753352046012,0.0015046211192384,8.87727364897e-05,0.0001358801528112
3.33528076171875,-0.0026004465556703,0.0034424503377638,0.0377355641543865,-0.0009863279992714,-0.0006829248741269,0.0012620198540389
3.345260009765625,-0.0085954674530774,0.0039015740158036,0.0477612836062908,0.0013191704638302,0.0010294876992702,6.49289868306e-05
3.35523876953125,0.0067670647158287,-0.0003478270569816,0.038777182161808,-0.0009762994595803,0.0006294399499893,0.0004346485075075
3.365218017578125,0.0025241481827571,0.0017219832207076,0.0413192678600549,-0.0013621915131807,0.0003961464390158,-0.0013190429890528
3.37519677734375,0.0041737420206889,-0.0033265506068244,0.0489519546955823,-0.0006468869978561,-0.0001128055155277,0.0005271958652883
3.385176025390625,-0.0007654314145445,-0.0053238801701925,0.0504506688207387,-0.0026676936540752,-0.0015900610014796,-0.0004448579275049
3.39515478515625,-0.0037430955184623,-0.007092606875766,0.0501525626569986,0.0038715179543942,0.0012250375002622,-0.0007867355598136
3.405134033203125,-0.0060728536402806,-0.0066339033228345,0.0419230789721012,-0.0001890039420686,-0.0004700645804405,0.0004982396494597
3.41511279296875,-0.0020487492233514,-0.0090109346524812,0.0431260250210762,-0.0009813146898522,-0.0011827917769551,-0.0021447404287755
3.425092041015625,0.0091423972787335,-0.0060970564997754,0.0462701682657003,-0.0023480490781366,0.000464373268187,0.0012742256512865
3.43507080078125,-0.01407669360945,0.0012426752711646,0.0524018028885126,-0.0002690234687179,0.0014900658279657,-2.32094971579e-05
3.4450498046875,-0.0062442464181222,0.0096737459427677,0.0573392592906951,-0.0011851508170366,-0.0009243562817573,-0.000342522514984
3.455028564453125,0.0035986638127826,0.0086377356922253,0.0468617044180631,-0.0001636090455576,-0.0004004621878266,0.0010904333321377
3.4650078125,0.0041806284192018,0.0086505403748713,0.0437216528266668,0.0017847595736384,-0.0001221615821123,-0.0010366333881393
3.474986572265625,0.0026558117384091,-0.002288768524304,0.0516518613040447,-0.0011641044402495,0.0010147504508495,-0.0010999749647453
3.4849658203125,0.0030879926105961,-0.0075827467465773,0.0520990205496549,-0.0019539981149137,-0.0008571855723857,-0.0003665403346531
3.49494482421875,0.0025458120252937,-0.0103538006287999,0.0467149894237518,-0.0004032800206914,-0.0006648572161793,0.0011662397300824
3.504923828125,0.0001276084350422,-0.0084562416454777,0.0486585247069597,0.0031211473979055,0.0019658133387565,0.0037122217472642
3.51490283203125,-0.0037252858671359,0.0033652569157071,0.0459662168830633,-0.0001570737222209,-5.71720302104e-05,-0.0013311731163412
3.5248818359375,-0.0109001093999482,0.0015529833293519,0.0467114822924137,0.0019734553061425,-9.57874581217e-05,-0.0041996636427938
3.53486083984375,-0.0053581477659754,-0.0044525954946875,0.0437187302172183,-0.0002880444517359,-0.0010306518524885,-0.002616889309138
3.54483984375,0.0027840046953409,0.0005523731857538,0.0437187302172183,-0.0017767515964806,-4.68799844384e-05,0.0003410835633985
3.55481884765625,0.000130311848782,0.0049160300216637,0.0467068061172962,-0.0004469449631869,0.0004408797249197,-0.0003761852567549
3.5647978515625,-0.0005541084851138,-6.0278819873e-06,0.041018823608756,0.0001863547367975,0.0007588611915707,0.0011183806927874
3.57477685546875,0.0037375060278922,0.0049118105042725,0.0371264923453331,-0.0034905932843685,0.000784701667726,0.0012504694750532
3.584755859375,0.0027361286993138,0.0011545403299853,0.0437087933450937,-0.0008961419807747,-3.34214419126e-05,0.0002009176823776
3.59473486328125,-0.0043119814475998,-0.0056235389702022,0.0480471148103475,-0.0006739189848303,-0.0004282677546143,0.0004500637587625
3.6047138671875,-0.0050729924153536,-0.0003066365300677,0.0389180519372224,-0.0002635258715599,0.0011882707476615,0.0002713656576815
3.61469287109375,-0.0067220382640138,-0.0085107300453819,0.0441588752001523,-0.0012905461480841,-0.0025107348337769,0.0009294608025811
3.624671875,-0.0043604236992076,-0.0044338359952904,0.0428121367663145,-0.0001102331443689,0.0031801741570234,0.0005132087389938
3.63465087890625,-0.0035501667622476,-0.0035730179148726,0.042809214156866,-1.96419423446e-05,0.0011532818898558,-0.0001495958131272
3.6446298828125,0.0026724888785742,-0.0052420653719455,0.0446060344457626,0.0031950599513947,5.95217570662e-05,0.0003313710913062
3.65460888671875,0.0036070297823287,1.53802322223e-05,0.0519359389424324,1.12089328467e-05,0.001243500970304,0.001241413061507
3.664587890625,-0.0051331068384461,0.003230067962408,0.0383195015221834,-0.0014897485962137,-0.0015746559947729,-0.0008158788550645
3.67456689453125,-0.0005512041419744,0.0092352266613394,0.0359241308182477,0.0006603333167731,0.0001121303066611,-0.000111728979391
3.6845458984375,-0.0028102899140678,0.0025430172800086,0.0477460860371589,0.0018113515106961,0.0005709929391741,-0.000624653766863
3.694524658203125,-0.0025101196574047,0.0030621457832865,0.0425099389493465,0.0023046394344419,-0.0006337063387036,-0.0011087273014709
3.704503662109375,0.0009906367388553,0.0038521819161251,0.0511912580549716,0.0020777380559593,-6.2458217144e-05,-0.0010128534631803
3.714482666015625,0.0129192854689434,0.0067508624996989,0.0468576127648353,0.0015749945305287,-0.0026184478774666,0.0011405125260353
3.724457763671875,0.0019616737280972,-0.0063808418772183,0.0477577764749527,0.0028884657658636,0.0021187830716371,0.0012345220893621
3.734436767578125,0.0023020663972944,-0.0076449983278289,0.0417711032807827,0.000566997565329,0.0005060359835624,-0.0015196213498711
3.744415771484375,-0.0005063968858681,-0.0078703863152302,0.0453682509899139,-0.0008551303762942,-0.0041755344718694,0.0012077218852937
3.754394775390625,0.0005347461975179,0.0055076575055718,0.0522533343285322,-0.0015139087336137,-0.0020697303116321,0.0009565845248289
3.764373779296875,-0.0005292115058749,0.0022457513664849,0.0467167429894208,0.0003742724657058,0.0012003649026155,6.94856062182e-05
3.774352783203125,-0.0022305172647349,-0.0088677633221261,0.0577881721019744,-0.0008444023551419,0.0007541691884398,0.0017670998349785
3.784331787109375,-0.0091312000312842,-0.009500581332948,0.0432686483621597,-0.0010390793904662,0.0015720259398221,0.0036411662586033
3.794310791015625,-0.0070962053386494,-0.0001100727783516,0.0465589220792055,-0.0021210755221545,0.00022379681468,0.0008254872518591
3.804289794921875,-0.0009278554346412,-0.0025297559396363,0.0486503414005041,0.0007213162025436,0.0021202340722084,-0.0011061035329475
3.814268798828125,0.0048065052325837,-0.0041854324584826,0.0498451041430234,-0.0002137357951141,0.0007385294884443,-0.0004467871331144
3.824247802734375,0.0021270203576423,-0.0017621325680054,0.0504442390799522,-0.001485661487095,-0.0016468632966279,0.0014318065950646
3.834226806640625,0.0008104030674323,0.0039428924068808,0.0486474187910556,0.0004139739321544,-0.001630526036024,0.0006918954313732
3.844205810546875,0.009108257547114,0.0018333163743838,0.0390688585847616,1.71628780663e-05,0.0020419731736183,-0.0007012041169218
3.854184814453125,0.0014882475300692,-0.0049307526667602,0.049539983716607,0.002427655737847,-0.0011266870424151,-0.0012751673348248
3.864163818359375,0.0015962196828797,-0.0050879525224678,0.0507423452436923,0.001984772272408,-0.0041746753267943,-0.0012538620503619
3.874142822265625,-0.0030299240141175,-0.0009908924671821,0.0522433974564075,-7.83622963353e-05,0.0001431517302989,0.0003357014502398
3.884121826171875,-0.0006849865894764,0.002337977960892,0.0420674558788538,0.0005924879806116,-0.0007332945242524,-0.0002384761028224
3.894100830078125,-0.0025124577449634,-0.0001953581753186,0.0552349804878234,0.0010022458154708,0.0008476935327053,0.0009547672234475
3.90407958984375,-0.0105620913509279,-0.0055137767191044,0.0444575658857822,-0.0036316544283181,-0.0027611562982201,-0.0006580431945621
3.91405859375,-0.0070595265900716,-0.0019516637907363,0.0416091907173395,-0.00288887321949,0.001609300263226,-0.0012955834390595
3.92403759765625,-0.0094817487683147,0.0008885463375598,0.0520797313272953,-0.0012949714437127,0.0007640123367309,0.0009425370953977
3.9340166015625,-0.0089913897017948,-0.0008017813695594,0.0437006100386381,-0.0009334367350675,-0.0013788985088467,0.0011242986656725
3.94399560546875,0.003891655409988,-0.0008214541844092,0.0465472316414117,0.0011193277314305,-0.0011155111715197,3.6397283111e-05
3.953974609375,0.001217522563599,0.0023839177281595,0.0519330163329839,-0.002185913734138,0.0007126983255147,0.0002294359874213
3.96395361328125,-0.0012004618309438,0.0019069661324843,0.0486398200064897,-0.0003022599266842,-0.000549373216927,0.0010193295311182
3.9739326171875,0.002815550611075,-0.0088928977633826,0.051485272565484,-0.0007498227641917,-0.000579903833568,-0.0004324209294281
3.98391162109375,0.0091641889854334,-0.0003829166366718,0.0402700510680675,-0.0014803279191255,-0.0010169288143515,0.0005881023826077
3.993890869140625,0.0083082114769145,-0.0022979016788303,0.0423638084769248,-0.0026015553157776,0.0008969213813543,0.0002746095415204
4.00386962890625,-0.0034351438141427,-0.001449723884277,0.0387672452896833,-0.0025560152716934,0.0002417843788862,-0.0010346004273742
4.013848876953125,-0.0057251727137714,-0.0037068003623746,0.0589671527534723,-0.0005276906304061,0.0004880484193563,-0.0003173097793478
4.02382763671875,0.0030156214941293,0.0036574630616232,0.0523795910567045,-0.0009482037858106,-0.0017082607373595,0.0031453322153538
4.033806884765625,-0.0045092758516781,-0.0069526138831861,0.0416027609765529,-0.0007277788827195,0.0027286279946565,-0.0002051409246632
4.04378564453125,-0.0060336541410535,-0.0043345586055889,0.0398012645125389,0.0002669118111953,0.0001509543508291,0.0014542747521772
4.053764892578125,0.0036966808271594,0.0017580043821595,0.0493751485437154,-0.0022209307644516,-0.0019412888213992,-8.73870740178e-05
4.06374365234375,-0.0018256810571998,0.0052490613683126,0.0450315663814544,0.0012843218864873,-0.0017910860478878,-0.0013481274945661
4.073722900390625,-0.0055359520182944,-0.0048361514521762,0.0450309818595647,0.001480801962316,0.002532715909183,-0.0003751140611711
4.08370166015625,-0.0071725219778716,-0.0023763554762117,0.0475730675578117,-0.0007743628229945,0.0008575869724154,0.0024038944393396
4.093680908203125,-0.0020605127263814,0.0004007628206163,0.046222237470746,-0.0011177218984812,0.0024013901129364,0.0001812620321288
4.10365966796875,0.0028128289310261,-0.003750968297664,0.0435252534717321,-0.0011094660731032,0.0013579642400145,0.0010625020368024
4.113638916015625,0.0024181853239424,0.0064698353349231,0.0481634346663951,-0.0003438219428062,-0.0016138236969709,0.0010459026088938
4.12361767578125,-0.0053052485349588,0.0014475319271907,0.0522059880554676,-0.0015694086905568,0.0009662462398409,0.001493047340773
4.133596923828125,-0.0002333338318392,-0.0053801404020749,0.0445721321761608,0.000607545254752,0.0009130090475082,-0.0012425180757418
4.14357568359375,-0.0023116196769289,-0.0006589205664582,0.047710430201888,-3.3838441595e-06,0.0020230151712894,0.0004315449623391
4.1535546875,-0.005705609496776,-0.0012415610263124,0.0430734180510044,0.0014112150529399,-0.0009269574657082,-0.0016346162883564
4.163533447265625,-0.0075513834939338,-0.0040143867405131,0.0394879607796668,0.0002218472072854,-0.0004827417433261,0.0001518321223556
4.1735126953125,-0.0039510209144093,0.0014243337146937,0.0517629204630851,9.67785017564e-05,-0.0020086858421564,0.0002494760265108
4.183491455078125,0.0061165466515347,0.0044643955303356,0.0385965648978948,-0.0011447871802374,0.0018811272457242,0.0003112613630946
4.193470703125,0.0064365175872109,-0.0115432478753849,0.0384440046846866,0.0008952086791396,-0.0002723336219787,0.0003383970470167
4.203449462890625,0.000127224842552,-0.0053258894641883,0.0459241313070058,-1.05324434116e-05,-0.0001777913421392,-0.0011886594584211
4.2134287109375,-0.004775068914704,-0.0042715946382842,0.0399397962003946,0.0001402833731845,0.0004304973408579,0.0005784069071523
4.22340771484375,-0.0100014617934823,-0.0118435277299024,0.0433797075212001,-0.0002080581034533,0.0006326306611299,-0.0010003149509429
4.23338671875,-0.0015686558225192,-0.0062223816461861,0.0430810168355703,-3.80232231691e-05,0.000594931654632,0.0008426085696555
4.24336572265625,-0.0043512540120631,-4.20490434393e-05,0.0412812739372253,-0.0014279270544648,0.0007869452238082,-0.0017795398598536
4.2533447265625,-0.0156822291099466,0.0041052433617413,0.0516039305090904,0.0013602058170363,0.0003198413178324,0.000723616045434
4.26332373046875,-0.0002425583179108,0.0034812662445008,0.0430710799634456,0.0009095988934859,0.0031984522938728,-0.0006705487612634
4.273302734375,0.0064028893122449,0.0051532180447131,0.0480038601905107,0.0021553123369812,0.0007869740948081,0.0011886747088283
4.28328173828125,-0.0083390084739774,0.0041651933880522,0.0511456653475761,0.0008389118593186,-0.0015882989391684,-0.0012595693115144
4.2932607421875,-0.0016415749282576,-0.0012741846542805,0.042171500775218,4.13333764299e-05,-0.0012016277760267,-0.0001363945048069
4.303239990234375,-0.0002556552615016,-0.002787146500498,0.0423223074227571,-0.002018088940531,0.002675668336451,4.919711500406265e-07
4.31321875,-0.0033079189715906,-0.016177264351584,0.0447135864734649,-0.0012934763217344,-0.0001481538638472,-0.0001555147464387
4.323197998046875,0.0049526722376234,-0.0097493867285549,0.0402215357512235,-0.0003573751891963,0.0018926262855529,-0.0025270597543567
4.3331767578125,-0.00046856735982,-0.0085525964257307,0.0474070633411407,-0.0005928287282586,-0.0010776212438941,0.0020613311789929
4.343156005859375,-0.0036763686914928,-0.005173274452053,0.051591655549407,-0.0001768429647199,0.0005383845418691,0.0011846185661852
4.353134765625,0.0065677244851365,-0.0095909995627589,0.0375251362740993,-0.0006076908321119,0.0013180114328861,-0.0003521905455272
4.363114013671875,0.0007512202261015,-0.0055682103200815,0.0526356116443872,-0.0016567099373787,-0.0009533986449241,0.0014622211456298
4.3730927734375,-0.0010531805810518,0.0043722054685465,0.0442576593995094,-0.0016792372334748,-0.0028216410428285,-0.0015439880080521
4.383072021484375,0.0053885977031663,0.0067174351541325,0.0439577996701002,0.0003610104322433,0.0031433077529072,0.0010733666131272
4.39305078125,0.0003248297738842,-0.006252868115995,0.0607125351160764,0.0002721016062423,-0.0015829345211386,-0.0004529494908638
4.40302978515625,-0.0075976155221462,-0.0021475334227085,0.0491916086703538,0.0021959692239761,-0.0008047586306929,-0.0016532361041754
4.413008544921875,-0.0052110309128649,-0.0062067822182551,0.0577209520846605,-0.0016271744389086,0.0008159782737493,0.000640619546175
4.42298779296875,-0.0025268333301879,-0.0119547512857243,0.0456020597457885,0.0004612765042111,-0.000577388331294,0.0009884283645078
4.432966552734375,-0.0004965513452887,-0.0058759428286924,0.0461982720732688,-0.0014223067555576,0.000234480947256,-0.00130212737713
4.44294580078125,-0.0031556510193273,-0.0069563402102328,0.036468320697546,0.0014259439194574,0.0010438151657581,0.0012622304493561
4.452924560546875,0.0042315731551498,-0.00953525078753,0.0412543859302997,0.0001281845616176,0.0008929576724767,-0.0004509669379331
4.46290380859375,-0.0022517427158541,-0.0123149263676255,0.0512771827727556,-0.0039781434461474,0.0007052049040794,-0.0004341890162322
4.472882568359375,-0.0013382446001283,-0.0053738750580698,0.0472357984274625,0.0003294290509074,0.0022492874413728,0.0014369166456162
4.48286181640625,-0.0020053302067331,0.0045156690598465,0.0466360789686441,-0.0005866984138265,-0.002029612660408,-0.0006059940787963
4.492840576171875,-0.0158504983489401,-0.0017681604499928,0.0491810872763395,-0.0006564090726897,-0.0016713794320821,0.0010692022042348
4.50281982421875,-0.0099204324465245,-0.0019441563377156,0.0512777672946453,-0.0013799899024888,0.0005726004019379,-0.0012679878855124
4.512798583984375,-0.0029109555432572,-0.0056974261903204,0.040802550509572,-0.0006423812010325,0.0023527517914772,0.0006164947990328
4.52277783203125,0.0058298386646434,-0.0017270064556971,0.0381055665105581,-0.0023004652466624,0.0012350231409072,-0.0002548914635553
4.532756591796875,0.0036150852246209,-0.0155175035349093,0.0458873064279556,0.0018379663815721,-0.0022558970376849,0.0003701511595863
4.54273583984375,0.003098349607829,-0.0198669857149943,0.0427490084022283,-0.0005468943272717,-0.0008465526625514,0.0012828165199607
4.552714599609375,-0.0035890374679118,-0.0089360427853651,0.0394610727727413,0.0018954545957967,-0.0004006000235676,0.0011882315156981
4.56269384765625,0.0001153700079768,-0.0011157792221754,0.0430494526535272,-0.0004092450835742,0.0014939727261662,-0.0001087280252249
4.572672607421875,-0.0060182008435949,-0.0047838367430493,0.0405044443458318,-0.0006879603606648,0.0005400422960519,-0.0004709749482572
4.58265185546875,-0.0105723752829246,0.001089968927484,0.0460410356849431,0.0004500083159655,0.0011312635615468,-0.0023953751660883
4.592630615234375,-0.007937204473745,-0.0051496743807569,0.045293432188034,8.93021933734417e-07,-0.0005073519423604,-5.64836882404e-05
4.60260986328125,-0.0031463534680195,-0.0048287535970099,0.0515811341553926,0.001152177574113,0.0017065340653061,0.0010473965667188
4.612588623046875,-0.0026912849105894,-0.0060723421836271,0.0496340917408466,-0.0003761235275305,0.000964356586337,0.0025147888809442
4.62256787109375,-0.002190002591256,-0.0033148419027216,0.0518809938848018,-0.0006304554408416,-0.0002053035423159,-0.0008775456808507
4.632546630859375,-0.0046849246795289,-0.0061878765883855,0.0487356815963983,-0.0019778253044933,0.0019131675362586,0.0013131491141393
4.642524658203125,-0.0077266487292945,-0.0072220967406407,0.0430488681316375,0.0021695154719054,-0.0003148335963487,-0.001543357502669
4.652503662109375,-0.011589023245871,-0.0115896625666879,0.0563689529538154,0.0021970127709209,-0.0019566882401704,-0.0008005190757103
4.662482666015625,-0.0023549473620019,-0.0012170476395636,0.043952538973093,-0.0008520404226146,-0.0012405645102262,-0.0014399440260604
4.672461669921875,0.0067934047334827,-0.0024407259493134,0.029886604219675,-0.001868094317615,0.0014735357835888,0.0010356855345889
4.682440673828125,-0.0017756679030135,-0.0016459405761212,0.0337771819174289,-0.0013192167971283,0.0014117509126663,-0.0004444993392098
4.692419677734375,-0.0037873182526789,0.0037887064921669,0.0503863714128732,0.0025548264384269,-0.0003747260197997,0.0014355041785165
4.702398681640625,-0.0013983224906027,-0.0050000367769971,0.0542810407638549,-0.0011147430632263,-0.0018336055800318,-0.0004329696821514
4.712377685546875,-0.000482796814572,-0.0006067702541127,0.0520353076636791,-0.0026071653701364,0.0011705104261636,0.0005038731615059
4.722356689453125,-0.0016639694231562,-0.0055065067281015,0.052628597381711,-0.0002270983532071,0.0019071409478783,-0.0004237058456055
4.732335693359375,0.0009742883922532,-0.0034553098193369,0.0554758035063743,0.0009242254309356,-0.0020866217091679,0.0007492644363082
4.742314697265625,0.0004496799962595,-0.0057916986113414,0.0399134927153587,4.16538678109e-05,-0.0005680872127413,-0.0005737939500249
4.7522939453125,0.004180007364694,-0.0118023554692976,0.0450029248088598,0.0001773724798113,0.0003109807148575,-0.0013043410144746
4.762272705078125,-0.0066250076303258,-0.0016579050085507,0.0435053797274827,-0.000290278578177,0.0018106065690517,-0.0004305579059291
4.772251953125,-0.0078193137151189,0.0049208157946355,0.0433522349923849,-1.39541225507e-05,-0.0015557743608951,-0.0012537584407255
4.782230712890625,-0.005128248000238,-0.0034830380764789,0.042154549640417,0.0010222819400951,0.001499137841165,0.001090622274205
4.7922099609375,-0.0034638036530464,-0.0037130839726887,0.0424555784136056,0.0009754445636644,-0.0003007361665368,-2.57675492321e-05
4.802188720703125,-0.00530638104612,3.12719210982e-05,0.0443996982187032,-0.0017044944688677,-0.0006253756582736,-0.0009440254652872
4.81216796875,0.0047844943301752,-0.0051165758287534,0.0485901356458663,0.0002700717886909,-0.0006156228482723,0.0007840170292183
4.822146728515625,0.0087077321885153,-0.0046858927939087,0.0417073903948068,-0.0021597964223474,0.0005140900611877,0.0002636353601701
4.8321259765625,-0.0030787133255973,0.0024334376920014,0.0400572851002216,0.0002714456059038,0.0020181257277727,0.0015075239352881
4.842104736328125,-0.003091792002879,-0.0057629291745834,0.051729602715373,0.0007737177656963,0.0003762869164347,0.0003655604668892
4.852083984375,0.0025084756895899,0.0021087357822805,0.0372153396725654,-0.0012847733451053,-0.0014494974166154,-0.0001762339379638
4.862062744140625,-0.0023284429475665,-0.0024506445551291,0.0393114351689815,-0.0018176718149334,-0.0005245814099907,9.54084825934e-05
4.8720419921875,0.0005249189232476,0.001920702396892,0.0430529597848653,-0.000173091655597,0.0018424922600388,0.0007191550685092
4.882020751953125,-0.0060563774295151,-0.0076340568087063,0.0454442388355731,0.0012932447716593,0.0006661741062998,4.56415982625e-05
4.892,-0.0068001450015231,-0.0081728215942159,0.054722939312458,0.0005261924816295,0.0006783753633499,0.0016069284174591
4.901978759765625,-0.0061439643814228,-0.0017026026668027,0.0406564200371503,-0.0006740941898897,0.0003260392695665,0.000868966570124
4.911956787109375,-0.0061328584655188,-0.0016037088695913,0.0406581736028194,0.0003999834880232,-0.0008894959464669,0.0023399074561893
4.921935791015625,-0.0001148220187053,-0.0037489042047411,0.0394610727727413,-0.0023161745630204,-0.0012263860553503,0.0005076526431366
4.931914794921875,-0.0048146154738031,0.0027046010498888,0.0432014283448457,0.0011711935512721,0.0008093444630503,0.0004531900922302
4.941893798828125,-0.001925232441537,-0.0043377369433641,0.0443996982187032,-0.0016938352491706,-0.0010695159435272,-4.8736183089e-06
4.951872802734375,-0.0011934658345766,0.0042244675609283,0.0423024336785078,0.0020585644524544,0.0012151598930358,-0.0010605363640934
4.961851806640625,0.0011131306073628,0.0001631546724587,0.0461906732887029,-0.0025870536919683,-0.000819494947791,-0.0009580047335475
4.971830810546875,0.0066328621432185,-0.0034399295871146,0.0337701676547527,0.000430948799476,-0.0007683783769607,0.0002349760616198
4.981809814453125,-0.0023725926165468,-0.0029502463740296,0.0449964950680732,-0.0015286051202565,0.0001413570716977,0.0006610818672925
4.991788818359375,-0.003670888798777,-0.0033246143780648,0.0470914215207099,0.0014174280222505,3.76226380467e-05,-0.0001095405677915
5.001767822265625,-0.0014551307117566,-0.0074388812964782,0.0452928476661443,0.0011263445485383,0.0020805336534976,0.0004824801289942
5.011746826171875,-0.0054869617774151,0.0041323870969936,0.0472363829493522,-0.0020677580032497,-0.0009702546522021,-0.0017243577167391
5.021725830078125,-0.0062644124233163,-0.0003597184241749,0.0402028310507535,-0.0006815826636739,0.001322460360825,-0.0017256893916055
5.031704833984375,-0.0052870187585242,-0.0006310279125347,0.053363341397047,0.0001605327124707,0.0016553234308958,0.0028671382460743
5.041683837890625,-0.0051011225312948,-0.0040339864901266,0.0615922405600547,-0.0011787709081545,0.0006712852045893,-0.0004506277036853
5.051662841796875,-0.0071459444981999,-0.0053875199909321,0.0490273580193519,0.000499147339724,-0.0012314831838011,-0.0010243186261504
5.061641845703125,-0.0038675621483474,-0.0078661119989119,0.0517220039308071,-0.0010841019684448,0.0018543219193816,-0.0010067417751997
5.071620849609375,-0.0038298239538446,-0.0040889863466843,0.046925417304039,0.0001663998700678,0.0018989760428667,-0.0005884424899704
5.081599853515625,0.0045367301141843,0.0041975612876936,0.0487216530710458,0.0001781177707016,0.000868066214025,0.0013175819767639
5.091578857421875,-0.0054889162724837,0.0007005860174074,0.0448299063295125,-0.0005170193617232,0.0013302229344844,0.0002571245713625
5.101557861328125,0.0008344780627638,0.0079958575921133,0.049920507466793,0.0004606270813383,0.0002487134188413,0.0009572695707902
5.111536865234375,-0.001318042062316,-0.001839965310879,0.0413905795305967,-0.0008238173322752,0.0009598219767212,-0.0010671461932361
5.121515869140625,-0.0050294820671901,-0.0014296857432462,0.0312175605624914,0.0006108275847509,-9.4523653388e-05,-0.0005172033561393
5.13149462890625,-0.0022019670236855,-0.0037637181813828,0.0485772761642932,0.0004873531870543,-0.0012363977730274,-0.0007953486638143
5.1414736328125,-0.0087632800343446,-0.0114235122195445,0.0437953025847673,0.0014378352789208,-0.0002534249797463,0.0011330462293699
5.15145263671875,-0.0038571503521874,-0.0103497089755721,0.0437947180628776,-0.0012852140935137,0.0019243834540247,0.0003201576764695
5.161431640625,-0.0062366111009381,-0.0072730232102796,0.0367635042518377,0.0012639636406674,-0.0010564932599663,0.0019068690016865
5.17141064453125,-0.0087483381935395,-0.0034815219728276,0.0493324784457683,-0.0021191090345382,-0.0009609600529074,0.0003900625742971
5.1813896484375,0.0018786898860707,0.0017580957137048,0.0430447764784097,-0.002458129543811,0.0008369395509362,5.58358369744e-05
5.19136865234375,-0.0003114588356576,0.0005641732214018,0.0535123944789171,-0.0005763393710367,0.0013854801654815,0.0013207865413278
5.20134765625,0.0015451653490774,-0.0023857443590648,0.0490191747128963,-0.0024179152678698,0.0003508413210511,0.0014142633881419
5.21132666015625,0.0051210876070894,0.0007181399404071,0.0475245522409677,0.0014099923428148,-0.0002181408926844,-0.0016201477264985
5.221305908203125,-0.0010058525742962,-0.0003718472533859,0.0433399600327014,-0.0005596816772595,-0.0011417251080274,-0.0014068285236135
5.23128466796875,-0.0006950147931464,-0.0090995262513868,0.0515723663270473,-0.0004408297536429,0.0013340059667825,0.0016092989826574
5.241263916015625,-0.0027472346152178,0.0039442441137507,0.0436404042840003,-0.002467761747539,0.0016863420605659,0.001140582608059
5.25124267578125,0.0044994668437168,-0.0103735099762678,0.0515706127613782,-0.0012798056704923,-0.0032330956310033,0.0006772745400667
5.261221923828125,0.0024517040010541,-0.0139586201877333,0.0400496863156557,0.0007804157794453,-0.0017928583547472,-0.0006428543711081
5.271200927734375,0.0071013747041113,-0.0088813717223703,0.0454366400510072,-0.0022811710368841,0.0006195958703756,0.0006401272839866
5.281179931640625,0.0030733430307358,0.0001523958164267,0.0475327355474233,0.0004608197486959,-0.001636367291212,-0.0013958592899143
5.291158935546875,-0.0058350080301053,-0.0035665333751589,0.0470861608237028,0.0016285225283354,-0.0001226216554641,-0.0011052249465137
5.301137939453125,-0.0156145889675244,0.0068484959215857,0.0482838461756706,0.0002143841120414,0.0018371986225247,-0.0020682238973677
5.311116943359375,-0.0089521902025677,0.0044934024291113,0.0508265163958072,0.0024834738578647,-0.0005435859784483,0.0028369182255119
5.321095947265625,0.0021988617511466,-0.0079445475299842,0.0473836824655532,-0.0005671770777553,-0.0007558399811387,-0.002867306349799
5.331074951171875,-0.0087847977464087,-0.004119363218639,0.0417009606540203,0.0030894833616912,0.0001860409975051,0.0017439452931284
5.341053955078125,0.0015842735167592,0.0020450411626137,0.0403583138734102,0.0033656535670161,0.0005639437586069,-0.0012494476977735
5.351032958984375,0.0007322780636139,0.0032599151114001,0.0349719446599483,-0.0009473821846768,-0.0004436504095792,-0.0026249946095049
5.361011962890625,-0.00074411463188,-0.0114757903960533,0.0470920060425996,2.52042664214e-05,0.0006000427529215,-0.001924849464558
5.370990966796875,-0.0050821803688071,-0.0115601990101858,0.0527764814198017,0.0015317559009417,-0.0006584273651242,-0.0004037353792227
5.3809697265625,0.001861811816506,-0.0033448169158771,0.0476928945451974,0.0019357575802132,-0.000243772752583,0.0004223771975375
5.39094873046875,0.0021081695266999,-0.0074070065871812,0.0420049120366573,-0.0006505851633846,0.0007535759359598,-0.0013684689765796
5.400927734375,-0.0158404701452702,-0.0094192962576635,0.0286859962582588,-0.0021435532253235,-0.0010621668770909,0.0003394161758478
5.41090673828125,-0.0049746831400319,-0.0047180780304595,0.0509825837403535,-0.0015304083935916,-0.0007885079830884,-0.0001831589906942
5.4208857421875,0.002269004377909,0.0017625892257317,0.0396153865516185,7.73418578319e-05,0.0004575857892632,0.0010986203560605
5.43086474609375,0.0026903350625187,-0.0064890332257375,0.0470984357833862,-0.0013618526281788,-0.0005707144737243,0.0002255601721117
5.44084375,-0.0078660937326028,-0.000338620837219,0.0427636214494705,0.0006333876517601,-0.0019710045307874,0.0005150457727722
5.45082275390625,0.0023981471829116,-0.0089637893088161,0.0442629200965166,-8.07156902737e-05,-0.0015213564038276,-0.0005883428966626
5.4608017578125,-0.0034722426878288,-0.0030610498047433,0.0418698874801397,-0.0016802102327346,-0.0017011202871799,-0.00119394576177
5.47078076171875,-0.0009708908587694,0.0007395115219987,0.0541442626416683,0.0016543316887691,-0.0010223034769296,0.0008579832501709
5.480759765625,0.0058547173775732,-0.0037162440441548,0.0553466241687536,0.0013613841729238,-0.0007479982450604,-0.0009564283536747
5.49073876953125,0.0047954358492977,-0.0029362543812952,0.0302110138684511,-0.0008194129914045,-0.002734531648457,-0.0004036232130602
5.5007177734375,-0.0046330483618192,0.0037610330339521,0.0391886855721473,-0.000201559625566,0.0001163817942142,-0.0009759365348145
5.51069677734375,-0.0001447604992426,-0.0034185214729048,0.0424807128548622,0.0013451491249725,0.0024806782603263,-3.17402264045e-05
5.52067578125,0.0100482600772753,-0.0067752845549024,0.052356210181117,-0.0006306500872597,-0.0027548307552933,0.0007480333442799
5.530655029296875,0.0043416641998104,-0.0034939613292925,0.0451788658976554,0.0017166704637929,-0.0016331300139427,-0.0021137176081538
5.5406337890625,0.0105745124410837,0.0027639665543101,0.0412964715063571,0.0044717104174196,0.0013911556452512,-0.0024309002328664
5.550613037109375,-0.0011050751650705,-0.0042269152463413,0.0499760370463132,0.0002060848055407,-7.95219093561e-05,0.0014479804085567
5.560591796875,-0.0075575575063936,-0.0072740643898956,0.0507253941088914,0.0004809231031686,0.0004520444199442,0.0006793921347707
5.570571044921875,-0.0082715144620276,-0.008014470961038,0.0489309119075536,0.0021462994627654,-0.0019330931827425,-0.0022093099541962
5.5805498046875,-0.0068951663412153,0.0010536737713962,0.0489326654732227,-0.0001046044053509,0.0013764174655079,-0.0018242168007418
5.590529052734375,-0.0111898313278332,-0.0028847251234576,0.0456377155810594,-0.0015873180236667,0.0009177047759294,-3.94863600376e-05
5.6005078125,-0.0025594934907741,-0.0007793868746608,0.042494156858325,-0.0006482874741777,0.0004029162228107,0.0004960753722116
5.610487060546875,0.0001279737612232,0.0070678560269996,0.0477361491650342,7.03076948411e-05,-0.0008999314159154,-0.000595566467382
5.6204658203125,-0.0026371618368662,0.0014876995407976,0.045341947504878,-0.0004862929636146,0.0033523384481668,0.001376504311338
5.63044482421875,0.0034844263159669,0.006324599911645,0.0450426722973585,0.0009023257298395,0.0006257900968194,0.0001303003227803
5.640423583984375,0.0011979045476764,-0.0027269224795512,0.0480389315038919,0.001595014007762,0.0001922277733683,0.0025447220541536
5.65040283203125,-0.0069105831060558,0.0112001152598299,0.0413046548128128,-0.0015219168271869,-0.0004199696704745,0.0002024892892222
5.660381591796875,-0.0037983693696558,-0.0003326294878497,0.043844402423501,-0.0011115237139165,0.0012301243841648,0.0016299436101689
5.67036083984375,-0.0097079222070053,-0.0094777484466321,0.0492290180712938,-0.0011181798763573,0.0009078728035092,-0.0001978466607397
5.680339599609375,-0.0063647675252519,-0.0034099728402681,0.0436924267321825,0.000271457596682,-0.0021323915570974,0.0006048300419934
5.69031884765625,0.0002583221426233,-0.002640194044169,0.0411474184244871,-2.37075728364e-05,-5.10066747665e-05,-5.51785960851e-05
5.700297607421875,-0.0033580234573222,-0.0027615371352061,0.0495247861474752,0.0023446416016668,0.0022624814882874,-0.0013979444047436
5.71027685546875,-0.0113812257140874,0.0039687757668085,0.0537123009651899,-0.0019369791261851,-0.0006917566061019,-0.0005802632658742
5.720255615234375,-0.0012290303383022,-0.0040212548727169,0.0417395390987396,-0.001025645295158,7.12387263774e-05,0.000529209675733
5.730235107421875,-0.0061295339972712,-0.0081016925867646,0.043385552740097,-8.75612604431e-05,0.0006214678287506,0.0004967089626006
5.7402138671875,-0.0047882937224581,-0.0053584948258474,0.0459305610477924,0.001513264956884,0.0015128273516893,-8.19959241198e-05
5.750193115234375,-0.0016807744274847,-0.0053044082847423,0.0430874465763568,0.0002629581140354,0.0015848390758037,-0.0003402117290534
5.760171630859375,-0.0006780088594183,0.0001430799988098,0.0498182161360979,-0.0024990062229335,0.0008258381858468,-0.000421970791649
5.77015087890625,0.0047807314705103,-0.0008636128257028,0.0555067831665277,0.0006635209429077,-0.0004945052787661,-0.0002433730114717
5.78012890625,0.0093599855521693,-0.0016138284048065,0.0543120204240083,-0.0007687271572649,-0.0012396574020385,-0.0003011635853908
5.79010791015625,0.005817910764832,-0.0008705722894519,0.0432423448771238,-0.0001400426845066,-5.92162832617e-05,-0.0014843335375189
5.8000869140625,0.0051567251760512,0.0002502119014039,0.033064649733901,-0.0013192903716117,0.0009804824367165,-0.0002299846673849
5.81006591796875,-0.0042212344242259,-0.0057921918016858,0.0447363828271627,0.0010944958776235,-0.0024033105000853,-0.0002204228076152
5.820044921875,-0.0073267626915127,0.0030629312345758,0.0430915382295846,0.0005802395753562,0.0027163503691554,-0.0006055159028619
5.83002392578125,-0.0019460560338571,0.0010440474265255,0.0423386740356683,-0.0015369979664683,-1.70683488249e-05,0.0007812825497239
5.8400029296875,-0.0113108273589983,0.0021608130293898,0.0517646740287542,-0.0001204626169055,0.0013493997976183,-0.0011819996871054
5.84998193359375,7.69742263481e-05,-0.0018607341042719,0.0499696073055267,0.0015268437564373,-0.0017089275643229,0.0007815298158675
5.8599609375,0.0029671427099034,-0.0028139979748055,0.0472755459159612,0.0010208432795479,0.0022599808871746,0.0020952671766281
5.86993994140625,-0.0049437217461876,-0.0054838382385671,0.0537076247900724,0.0030687749385833,-0.0005662450566887,0.002163725439459
5.8799189453125,0.0034278007579036,-0.0045831813381053,0.0447287840425968,-0.0006167737883515,-0.0001289546489715,0.001517908880487
5.88989794921875,0.0039283158922567,-0.0013752704085782,0.0381447294771671,-0.0017587735783308,0.0010575139895081,0.0013925096718594
5.899876953125,0.0009426694112829,-0.001161043136008,0.048169279885292,-0.0003084160853177,0.000497717410326,-0.0030523061286658
5.90985595703125,0.002625654062163,0.0015200309078209,0.0430821858793497,7.58618116378e-05,-0.0005208170041441,0.0016520859207957
5.9198349609375,0.0029188100561499,-0.0006934438905678,0.0531055672436952,-0.001689014956355,-0.0012704972177743,0.0013524803798645
5.92981396484375,-0.0017618220407515,-0.0070924059463664,0.042182606691122,-0.0014846215490251,-0.0017062593251466,0.0013359948061406
5.93979296875,0.0070399451067671,-0.0138312674810178,0.0435322677344083,-0.0015607879031449,0.0003228029236197,0.001673683640547
5.94977197265625,-0.0047339879856444,-0.0085686890440061,0.0423328288167715,-0.0025664116255939,0.0015349593013525,0.00057666702196
5.959750732421875,-0.0031099487140774,-0.0019683957298286,0.0352963543087244,-0.0004667755274567,0.0004955269396305,0.0004685426829382
5.969729736328125,-0.0098386541808955,-0.0055677536623552,0.0435264225155115,-0.0002917241654358,-0.0023787934333086,0.0012132931733503
5.979708984375,-0.0026718860903754,-0.002496383392997,0.0540028083443641,-0.0002288735704496,-0.0012970175594091,-0.0001214831354445
5.989687744140625,-0.003098020814266,0.0061026825229637,0.0498147090047597,0.002559664659202,-0.0003721052780747,0.0011483134003356
5.9996669921875,0.0070158153125084,0.0017168138552457,0.0388952555835247,0.0004693497321568,-0.0015641367062926,0.0014905296266078
6.009645751953125,-0.0015253098711371,0.0065392290430143,0.0451800349414348,-0.0006109168753027,-0.0017633652314543,-5.0014368753e-06
6.019625,0.0030737814221531,-0.0052304297330789,0.0445826535701751,-0.001466590561904,0.0005495902150869,0.0004637149104382
6.029603759765625,0.0051361207794398,-0.0033037725194357,0.0481727870166301,0.0006941729225218,0.0007482329383492,0.0001717726117931
6.0395830078125,0.0120758386484347,-0.0067146952077746,0.0537099628776311,0.0015562381595373,0.0017865989357233,-0.0009326402796432
6.049561767578125,0.0078700027227401,-0.0044853104542009,0.0438362191170454,0.0009745319839566,-0.0001867171376943,0.0008922771085053
6.059541015625,0.0027467048922553,-0.0001407967101782,0.0427916785001754,-0.00051577296108,-0.0005747396498918,0.0014563346048817
6.069519775390625,-0.0092892036045901,-0.0049378947935998,0.046231589820981,-0.0020528708118945,0.0004576332867145,-0.0008788646082393
6.0794990234375,-0.0110354810163378,-0.0043654834668152,0.0540068999975919,-0.0021620604675263,0.0009822761639952,0.0004412643320392
6.08947802734375,-0.0034851569683291,0.0001603416608646,0.0480178887158632,-0.0001812315313145,0.0014682868495583,0.0004317481652833
6.09945703125,0.00014905308187,0.0027675832835026,0.0408370373010635,0.0008781739161349,-0.0043022506870329,0.001765459193848
6.10943603515625,-0.014152955449745,-0.0012998305521905,0.0444324314445257,0.0013182458933442,0.0004877345636487,-0.0003343803982716
6.1194150390625,-0.0076295267640613,0.002858184176404,0.0477256277710199,-0.0002210610546171,-0.0009562317281961,-0.0009588917018845
6.12939404296875,-0.0014055194163694,0.0028943880009464,0.0454804791927337,-2.50217271968e-05,0.0006302651017904,0.0008262791088782
6.139373046875,-0.013771372253634,0.0028174503072164,0.0357563730359077,-5.3783878684e-05,-0.0013838829472661,-0.0015021226136013
6.14935205078125,-0.0009775945941917,0.0020641111892648,0.0457803389221429,-0.0010725114261731,-0.0002229949459433,-0.0008373166201636
6.1593310546875,0.0025657040358521,-0.0038545017373748,0.0519189878076314,0.0001125952694565,-0.00082753226161,0.0006465967162512
6.16931005859375,-0.0057048605781048,0.007806545565091,0.0356073199540376,-0.0005919326795265,0.0008426681160926,-0.0005774185992777
6.1792890625,0.0052899413679726,-0.0017496932115405,0.0433843836963176,-0.0002798101631924,-0.0002857130020856,0.0001261885772692
6.18926806640625,-0.0054421362549997,-0.0004544657692313,0.0472749613940715,0.0006037366110831,0.0017672386020421,0.0015904926694929
6.199246826171875,-0.0030538163463585,-0.0016917342129163,0.0555015224695205,-0.0026024430990219,-0.0020488053560256,0.0014293714193627
6.209225830078125,-0.0047350474315695,-0.0005326090393587,0.0568505989909172,0.0018717680359259,-0.0022218255326151,-5.6610679166e-06
6.219204833984375,-0.0158853687329217,0.0025245865741744,0.0433832146525383,-0.0013860767940059,0.0005654394626617,0.0002886182337533
6.229183837890625,-0.0025463234819471,0.0040464623792096,0.0424830509424209,-0.0002681527985259,0.0020498428493738,-0.0007719197310507
6.239162841796875,-0.002276657961402,0.0025093524724245,0.0448754990369081,-0.0014450036687776,-0.0016359714791178,0.0005551333888433
6.249141845703125,-0.0022659904369153,-0.0097955639578402,0.0568465073376893,0.0006894679390825,0.0004179989919066,-0.0007754705729894
6.259120849609375,0.0002919686838984,-0.0066298299359157,0.0478688356339931,0.0002961190766654,-0.0015660561621189,0.001264244550839
6.269099853515625,0.0008783354707993,-0.0075683346287347,0.0373959569364786,0.001042598276399,0.0004087500274181,0.0010803219629451
6.279078857421875,0.0031774975249543,0.001431000917498,0.0402408249735832,0.0012276878114789,-0.0027950331568717,0.0011298566823825
6.28905810546875,0.0010191504472866,0.0001991941002197,0.0408405444324016,-0.0011044359998777,-0.0009921882301568,0.0003494202683214
6.299036865234375,-0.0004187551350332,-0.0032358583823777,0.0429337173193693,0.0010431371629238,0.0005798758938908,-0.0002934667863883
6.30901611328125,0.0023416494890116,-0.0094963070166297,0.051464814299345,0.0005923596327193,0.0003769118338823,0.0008024427806958
6.318994873046875,-0.0015878354470245,-0.0012004252983257,0.0420376452624797,0.0008379030623473,-0.0019163368269801,0.0004663518629968
6.32897412109375,0.002140099034924,0.0013673610967583,0.0403892935335636,-0.003323559416458,-0.0008395798504352,0.0014843841781839
6.338952880859375,0.006868698459398,-0.006782426681742,0.0420300464779138,0.000666654901579,-0.000680056400597,0.0005078030517324
6.34893212890625,0.0007946392427198,-0.0041000922625884,0.0433744468241929,0.0004502473748289,0.0001940391957759,-0.0001695220125839
6.358910888671875,-0.0040470834337174,0.0053402650494128,0.0489104536414146,-0.0018917364068329,-0.0002467138692736,-0.0004414307768456
6.36889013671875,-0.0072999294835142,-0.0075461958621628,0.045918286088109,-0.0014613433741033,-0.0003793379291892,0.0007695007952861
6.378868896484375,-0.0093873119505122,0.0023043131533078,0.0384352368563413,0.0036199679598212,-0.0016067894175648,0.0010334200924262
6.38884814453125,-0.0135180916123092,-0.0089573778343386,0.0551952329993247,-0.0003168944385834,0.000594706274569,-0.0032117560040205
6.398826904296875,-0.005532335289102,-0.0047020767437294,0.0471171404838562,-0.0012348860036581,-0.000903588719666,-0.0001405985531164
6.40880615234375,-0.0012709332512691,-0.0035808358951471,0.0457709865719079,0.0006665885448455,-0.0027279872447252,0.0014688875526189
6.418784912109375,-0.0002938501137308,0.0038619178588502,0.0352963543087244,0.0001259669079445,0.0013141585513949,0.0010262702126055
6.42876416015625,-0.0043797129215672,0.0007879355072975,0.0429278721004724,0.0029796408489346,-0.000845150090754,-0.0015260973013937
6.438742919921875,0.0014734518197365,0.0060710635419934,0.0388888258427381,0.0023487380240112,0.0001679165288805,-0.0007527153939008
6.448721923828125,-0.0012361541988328,0.0092407613529823,0.0462216529488563,0.0027946601621806,3.16435471177e-05,0.0001817537558963
6.45870068359375,0.0013889518740586,0.001022420116607,0.0400847576290369,-0.0024435115046799,0.0002462938427925,0.0026702114846557
6.468679931640625,-0.009061130469758,-0.0049066776714287,0.0402332261890172,-0.0011115168454125,-0.0012736357748508,0.0013790623052045
6.47865869140625,-0.00542766933823,-0.0069145468951202,0.0456236870557069,0.000226987991482,-0.0001865336671471,0.0012222020886838
6.488637939453125,-0.0065805839667096,-0.0055501084078103,0.0399386271566152,-0.0003243386163376,0.000393291004002,-0.0013638020027428
6.49861669921875,0.0011612623317167,-0.008846245610062,0.0510112253129482,-0.0003565628721844,0.0001070015132427,-0.0003816281678155
6.508595947265625,0.0039868959453888,-0.0087027454861439,0.0522077416211366,-0.0023606256581842,-0.0009510787203907,0.0003538653836585
6.51857470703125,0.0033670104813762,-0.0086278170864097,0.0450233830749988,5.00676687806e-05,-0.0003710417076945,0.0026196828112006
6.528553955078125,-0.0106065515471622,-0.004427113993559,0.0397854824215173,-0.0009657075861468,-0.0009628487750887,0.0014828604180365
6.53853271484375,-0.0028587321656756,-0.0052086562926881,0.0427829106718301,0.0014846668345853,-0.0020715221762657,0.0023939276579767
6.548511962890625,-0.0006926767055876,-0.0001160458614118,0.0412882881999015,-0.0021848352625966,-0.0010124864056706,-0.0008993626688607
6.55849072265625,-0.004495393456798,-0.0056103872276842,0.0532622191101312,-0.0011193044483661,-0.0005621453747153,-0.0002303766086697
6.568469970703125,-0.0010284114659763,0.0058288340176455,0.0573053570210933,0.0001007617684081,-0.0003276849165558,0.0004685864259954
6.57844873046875,0.0037685039543546,0.002587166948989,0.0385989029854536,0.0003740021493285,0.0010622190311551,0.0011724599171429
6.588427978515625,-0.0010704970420338,-0.0014654329100623,0.0435381129533052,0.002597285201773,0.0024071745574474,0.000989390653558
6.59840673828125,0.0051114247296005,-0.0109148320450447,0.0498228923112153,0.000716028152965,0.0006193947046995,0.0012636962346732
6.608385986328125,-0.0011229578816331,-0.0062760480621829,0.0380015216141939,0.0011807529954239,0.0001160250976681,0.0003531646216288
6.61836474609375,-0.0045257885950617,-0.0058838886731304,0.0507236405432224,0.0020441496744751,8.16704705357e-05,-0.0015062544262036
6.628343994140625,-0.0020786511712707,-0.005242595094908,0.0534182864546775,0.0020305833313614,0.0027729291468858,0.0014687157236039
6.638322998046875,-0.0041708011449314,-0.00843382888427,0.044139001455903,0.0014566720928996,0.0017460137605667,0.0024175997823476
6.648302001953125,-0.0013226086395792,-0.0066943100068718,0.0353121363997459,-0.0009719434310682,0.0016894936561584,0.0024600098840892
6.65828125,0.0013867964495904,0.009192830558028,0.051024669316411,3.52641218341e-05,-0.0009920429438352,-0.0018082384485751
6.668260009765625,0.0001431165314279,-0.0021180698662064,0.0471352606624364,-0.0003546668158378,-0.0010254429653286,0.0016572484746575
6.6782392578125,-0.0011342099280096,-0.0043551630022004,0.0396551340401172,-0.000902745348867,-0.0020536901429295,-0.0006232162704691
6.688218017578125,0.0019341098677366,-0.0059119822564534,0.0492313561588525,-0.0001412613783031,0.0026222886517643,-0.0014394097961485
6.698197021484375,-0.0014417232409119,-0.0058548087091185,0.0462380195617675,0.0004265245515853,0.00111067853868,-0.0002449821331538
6.70817578125,0.0059609907636418,-0.0023119302041828,0.0507242250651121,-0.0007756304112263,0.0008480418473482,-0.0013848586240783
6.718155029296875,0.0015711765731684,-0.0070109930069185,0.0567073911279439,0.0004259878769516,0.0010557686910033,0.0021030833013355
6.7281337890625,-0.0036061712658032,-0.0070414612104184,0.0456318703621625,0.0025570406578481,-0.0010965606197714,-0.0005302834906615
6.738113037109375,-0.0100770843129605,-0.013584928037133,0.0471282463997602,-0.000143670826219,-0.0009373035281896,0.0002193963737227
6.748091796875,-0.0054551966659724,-0.0049009603166952,0.0559562804996967,7.1010843385e-05,0.0019163601100444,-0.0011589033529162
6.758071044921875,-0.0037507308356463,0.0034698680676519,0.0492179121553897,6.4619234763e-05,-0.0002977913245558,-0.0008574335370212
6.7680498046875,0.0021942586412653,-0.0030201880713924,0.0505693267643451,-0.0013999687507748,-0.0020571090281009,0.0001116482671932
6.778029052734375,-0.0125236372148618,0.0003688515787012,0.0444324314445257,0.0029582944698631,0.0009258976206183,0.0001875483430922
6.7880078125,0.0021513328149914,-0.0053103813678026,0.0495201099723577,-0.0011062601115554,-0.0020749047398567,-0.0002201960887759
6.797987060546875,0.0022192834846675,0.0007272548286244,0.0393476755261421,0.0014064323622733,-0.0012804837897419,-0.0004777237772941
6.8079658203125,-0.0070552888063713,-0.0119824247439391,0.0508721091032028,0.0001791552640497,0.0010768724605441,-7.22957702237e-05
6.817945068359375,-0.0009879150588065,-0.013949870625697,0.0501285972595214,0.0036750868894159,5.90123236179e-05,-3.58104662154e-05
6.827923828125,-0.0099228253330104,-0.0059807001111097,0.0395054964363574,-0.0023838342167437,-0.0010557658970355,-0.0013110977597534
6.837903076171875,-0.0051779140945523,-0.0080127721942961,0.0404009839713573,-0.001290074083954,0.001013777218759,0.0001310039369855
6.8478818359375,0.0009135346483439,0.000609619798325,0.0523690696626901,-1.4612567611e-05,0.0028277495875954,-9.52134869294e-05
6.85786083984375,-0.0048088615864515,0.0040071167495101,0.0420423214375972,-0.0011086391750723,0.0006287777796387,-0.0004909592098556
6.867839599609375,0.002043744254671,0.0037836101919412,0.0424894806832075,2.20600049942e-05,0.0011595813557505,0.0001138351799454
6.87781884765625,0.0021994097404181,0.004103763790708,0.0573041879773139,-0.0004208236932754,-0.0015006503090262,-0.0004526191623881
6.887797607421875,-0.0008901720390655,-0.0039826581616885,0.047279637569189,-0.0013993857428431,4.98667359352e-05,-0.0013939547352492
6.89777685546875,-0.0070639470368623,-0.0032774325017817,0.0439893638521432,-0.001363699324429,0.0002298960462212,-0.0006687760469503
6.9077548828125,-0.0088176771027036,-0.0038113201827742,0.0549088172733783,0.0004920538049191,0.0015891259536147,-0.0015856414102017
6.91773388671875,-0.0069140537047758,-0.0051586796711198,0.0520674563676118,0.0004992444301024,0.0009361188858747,-0.0020466344431042
6.927712890625,-0.0083389536750502,-0.0068180642507039,0.0535650014489889,0.0009256661287508,0.0009703980758786,0.0003629929269663
6.93769189453125,-0.0049897163123823,-0.0100940902466885,0.0454857398897409,0.0022047823294997,0.000800222158432,0.0015193375293165
6.9476708984375,0.0063584839149378,-0.0057246064581908,0.0498246458768844,0.0009289913577958,-0.0014289636164903,-9.2861082521e-06
6.95764990234375,0.0013386281926184,-0.0066510005881078,0.0333656785070896,0.0012744033010676,0.0001984937116503,-0.0014010540908202
6.96762890625,-0.0029185360615141,-0.0066083487564697,0.0495294623225927,0.0014368335250765,-0.0018128799274563,-0.0014266108628362
6.97760791015625,-0.0002644961550831,0.0058866103531792,0.0516220506876707,7.80887203291e-05,0.0020108865574002,0.0020637279376387
6.9875869140625,-0.0068264850191771,-0.001401555627305,0.0450391651660203,-0.002121991245076,-0.0009763455018401,0.0001842265191953
6.99756591796875,-0.0034773207217454,0.0068349240539595,0.0558119035929441,-0.0011038648663088,1.64806842803e-05,-0.0020054243505001
7.007544921875,-0.0114052276441827,-0.0008476846042089,0.0394978976517915,-0.0025456983130425,0.0012869415804743,0.000682896352373
7.01752392578125,-0.009544237811584,-0.0087684311334975,0.0495218635380268,-0.000485743250465,-0.0005804672837257,0.0025260699912905
7.0275029296875,-0.0020800759433768,-0.0129985612502321,0.0478776034623384,-0.0003457615966908,0.0005257986485958,-0.0005543859442695
7.03748193359375,0.0018017887249588,-0.0101517021854408,0.0388993472367525,0.0015117933508008,0.001202774234116,-0.0007501282962039
7.0474609375,0.0059242024172097,-0.0042393546028062,0.0522165094494819,0.0003711932222358,0.0008271113038063,0.0001887551770778
7.057439697265625,-0.0007730119328014,-0.0017153160179033,0.0394973131299018,-7.00925011187e-05,0.0023978436365723,0.0014968998730182
7.067418701171875,0.0025346695767715,4.31632882915e-05,0.0505664041548967,-0.0014532336499541,0.0015414841473102,-0.0010223446879535
7.077397705078125,0.0038912170185707,-8.41528858058e-05,0.0415863943636417,0.0009265670669265,-0.0006143450736999,0.0007641037809662
7.087376953125,-0.0036357261538505,-0.0047689679674804,0.0456307013183832,7.36288493499e-05,-0.0010823709890246,0.0005376572953537
7.097355712890625,-0.0037348756793886,-0.0032230354334227,0.0465279424190521,-0.002198580186814,0.0012947665527462,0.0009238156490027
7.1073349609375,-0.0014335947333835,-0.0005529211750254,0.0505628970235586,0.0006433971575461,0.0020515462383627,8.50659707793e-05
7.117313720703125,-0.0114615974739193,-0.0035289230448193,0.0489168833822011,0.0005637687281705,-0.0006220014765858,0.0012720369268208
7.12729296875,-0.009306830592826,-0.0086693181405775,0.0487678303003311,-8.45073373056e-05,-0.001097934320569,-0.0010631215991452
7.137271728515625,-0.0097848233681172,0.0011306479977443,0.0450251366406679,0.0012617204338312,0.0012096939608454,-0.0021315820049494
7.1472509765625,-0.0115556324329227,-0.0040267895643599,0.0427788190186023,-0.0006648428388871,0.000883693806827,-0.0013690352207049
7.157229736328125,-0.0035954489423893,-0.0150572108130902,0.0399374581128358,0.0021461236756294,-0.0004726545885205,0.0002477698726579
7.167208984375,-0.0099974066728726,-0.0013175671382807,0.0421849447786807,0.0006604408845305,-0.0003942400217056,-0.0024760807864367
7.177187744140625,-0.0031921836374327,0.0012006079614162,0.0481681108415126,-0.0045838560909032,0.002532041631639,-0.0034859515726566
7.1871669921875,0.0030211561857722,0.0025931948309764,0.0435258379936218,3.43556748703e-05,-0.00076908711344,0.0004897476173937
7.197145751953125,0.0049247795837,-0.0006954166519455,0.0463712905526161,0.0026463840622454,-0.0008013108745217,0.0001336829882347
7.207125,-0.0063210927803069,0.0001845079877413,0.0438327119857072,0.0001471724826842,0.0001298729330301,-0.0008786948164924
7.217103759765625,0.0044334524028003,-0.0034952947698533,0.0489186369478702,-0.0006429873756133,-0.0001894403249025,-0.0002557814295869
7.2270830078125,-0.0027911285558715,-0.0065271732790395,0.0466723193258047,2.03513191081e-05,-0.0005127182230353,-0.000252203317359
7.237061767578125,-0.0061567142651416,-0.0014937639554031,0.0417342784017324,-0.0004358481965027,0.0022377939894795,0.0011803109664469
7.247041015625,-0.0081283613979816,0.0016445158040151,0.0504126748979091,-0.0025061531923711,-0.0005217436701059,0.0005514085059985
7.257019775390625,-0.0002568973705172,0.0054497350395657,0.0396329222083091,-0.0002848106087185,0.0017826901748776,-0.0008142604492604
7.2669990234375,0.0009225216723978,0.0020475984458811,0.0450204604655504,0.0026048352010548,-0.001011112704873,0.0012075451668351
7.276977783203125,-0.0078314242780208,-0.00194426593557,0.0403840328365564,-0.0025600995868444,-0.0009210985153913,0.0010605386923998
7.28695703125,-0.0125636952306143,0.0055188730193302,0.0432283163517713,0.0008892812766134,7.34869390726e-05,-0.0011910925386473
7.296935791015625,-0.0168002368218265,-0.0055230560041032,0.0339472777873277,0.0009476044215261,7.18887895345e-05,0.0008408993016928
7.306914794921875,-0.0005110913272947,0.0003052300242707,0.0375409183651208,0.0013793284306302,-6.24926760792e-05,-0.0016357423737645
7.3168935546875,-0.0032668745751492,-0.0041060288130305,0.0520592730611562,-0.0011935514630749,-0.000497386790812,-0.0008732794085517
7.326872802734375,-0.0151066942443139,-0.0062443560159765,0.0568435847282409,0.0002788835554383,0.0009817499667406,0.0016465823864564
7.3368515625,-0.0064696344055235,-0.0058561604159884,0.0584878448039293,-1.2810342013e-06,0.0007945299148559,-0.0011396167101338
7.346830810546875,-0.0040603447740897,-0.0103929635954089,0.054898295879364,1.57506437972e-05,-0.0019517494365572,0.0008183207828551
7.3568095703125,0.0054251668538898,-0.0125273818082176,0.0559469281494617,-0.0004918478662148,0.0029154438525438,-0.0018246002728119
7.366788818359375,0.0234436020927503,-0.0128671168902888,0.0441261419743299,0.0010534380562603,-0.0020609674975275,0.0017236918210983
7.376767822265625,0.0233532569281756,-0.0093086024248041,0.0496697475761175,0.0014696901198476,-0.0010921088978648,-0.0003077675355598
7.386746826171875,0.0018868731925264,-0.0148170088490471,0.0466793335884809,0.0007854104042053,-0.001550355926156,0.0003479575389064
7.396725830078125,-0.0087084628408774,-0.0083733674013055,0.0456324548840522,-0.0017099714605137,0.0016108164563775,-5.81745043746e-05
7.406704833984375,-0.0046962680574506,-0.0033628274966031,0.0466781645447015,-0.0004133808542974,0.0003364039584994,0.0020655887201428
7.41668408203125,-0.0015246522840112,0.0010581855497322,0.0522141713619232,-0.0011018080404028,0.0016181832179427,-0.0019331478979438
7.426662841796875,-0.0054343913399614,-0.0024743724905885,0.0552045853495597,-0.00100722478237,-0.0015187039971351,0.0002954388037323
7.43664208984375,0.0029933913960121,0.0099497133399359,0.0314133753955364,-0.0004546188283711,-0.0002270713448524,0.0010453850263729
7.446620849609375,-0.0008376564005389,-0.0007955525581724,0.0463759667277336,-0.0011560340644791,-0.0013844827190041,-0.0016088584670796
7.45660009765625,0.0044462753517553,-0.0005878463579341,0.0550531941801309,-0.0004593511112034,0.0004733391106128,0.0021416712552309
7.466578857421875,-0.0009255173470824,0.0032411190793849,0.0546031123250722,0.0028621787205338,0.0011136839166283,0.0004123053513467
7.47655810546875,-0.0157757708786055,0.0056342978262342,0.0436848279476165,-7.15594505891e-05,-0.0015342971310019,0.0014789013657718
7.486536865234375,-0.0133905379761941,0.0012782945738174,0.043687750557065,-0.0013309229398146,0.0001078862696886,-0.0011030617170035
7.49651611328125,-0.016661102345772,-0.0061733914053067,0.0496679940104484,0.0005556602845899,-0.0002457816153764,-0.0013472737045958
7.506494873046875,0.0031749767743051,-0.0102962069563567,0.0433837991744279,-0.0025188270956277,-0.0012882528826594,-0.0001088330609491
7.51647412109375,0.0064274940305389,0.002683503462933,0.0402408249735832,-0.0029704989865422,-0.000749229453504,0.0010547019774094
7.526452880859375,0.0149317760688252,-0.008808123823069,0.0526578234761953,0.0016423934139311,0.00036465190351,0.0010926952818408
7.53643212890625,0.0177550350623205,-0.0039354214864782,0.0426303504586219,-0.0016623232513666,0.001967342570424,-0.0012623380171135
7.546410888671875,0.0164386917667463,0.0035483035987243,0.0511573557853698,-7.23774428479e-05,-5.32744452357e-05,0.0018073611427098
7.556389892578125,0.0036779030614532,0.0070733724523335,0.0487608160376548,-0.0013429715763777,0.0008519347757101,0.0001250423083547
7.56636865234375,-0.0069426404784433,0.011459405516833,0.0433756158679723,0.0011930059408769,-0.0021200785413384,-0.0015402070712298
7.576347900390625,-0.0033075171127915,0.0045497722588479,0.0480149661064147,-0.0014808077830821,-0.0001133866608142,0.0011690267128869
7.58632666015625,-0.0029397980452515,0.0052118163641542,0.0493611200183629,2.93226912617e-05,0.0016041938215494,-0.0009660726645961
7.596305908203125,0.0067464237865991,0.0060507879389449,0.0370884984225034,-0.0017121182754635,0.0004430562257766,-0.0036462780553847
7.60628466796875,0.0001194616612046,0.0019253968383185,0.042622751674056,-0.0009711126913316,-0.001052001491189,0.0006857546977698
7.616263916015625,0.0006668664108961,-0.0073519153990782,0.0408259313851594,-0.0013024099171161,0.0004489561542868,-0.0011558211408555
7.62624267578125,0.0013801840457133,-0.0011769348248839,0.0512976410388946,-0.0004606248112395,-0.0010269144549965,0.0005393899045884
7.636221923828125,0.0017553375010378,-0.0048096470377407,0.0454629435360431,-0.0021583898924291,-0.0003081271424889,-5.79570987611e-05
7.64620068359375,-0.0077180818303488,-0.0022726028407923,0.0373848510205745,0.0005556649994105,-0.0042811227031052,-5.22143309353e-05
7.656179931640625,-0.0003710435357876,-0.0044430239487439,0.0530991375029087,-0.0008736535091884,0.0008880728855729,-0.0023747570812702
7.66615869140625,-0.0056985769677907,-0.0006632862143218,0.0436743065536022,0.0015175219159573,0.0011218339204788,0.0003190149727743
7.676137939453125,-0.0121645033125765,-0.0122219508545473,0.0427747273653745,0.00222112913616,-0.0005048252642154,-0.0004679491394199
7.68611669921875,-0.0026409794954583,-0.0051432446399703,0.0421796840816736,0.0002557272091507,-0.0013845264911651,-0.0004444420628715
7.696095947265625,0.0107686467736959,-0.0140922199721448,0.0420323845654726,-4.65416233055e-05,-0.0003514857962727,0.0010882071219384
7.70607470703125,-0.0013363631702959,-0.0088097129919566,0.047268531653285,-0.0019303846638649,0.0016751689836382,-0.0002798227360472
7.716053955078125,0.0007437858383171,-0.0132925026955083,0.0438239441573619,0.0018736746860668,-0.0021999971941113,2.5908142561e-05
7.72603271484375,-0.0068845170830376,-0.0060769452935084,0.0469704254895448,-0.0010872739367187,-0.0006531011313199,-0.0002851703320629
7.736012451171875,-0.0128949730115942,0.0007464344531297,0.0507096120178699,-0.0005759469931945,0.0010366747155785,0.0002455976500641
7.745991455078125,-0.0110928920256905,-0.0128695645757019,0.0578922169983386,-0.0024670059792697,0.0004472127184271,0.0021847640164196
7.755970458984375,-0.003683035894297,-0.0157640987071208,0.0460685082137584,-0.0001521864905953,0.000524709932506,-0.0007569637382403
7.765949462890625,0.0023510749044828,-0.0016998079215176,0.0547451511442661,-0.0024901025462895,0.0001314561814069,-0.0015884487656876
7.77592822265625,0.0058365789326839,-0.0054074485341086,0.0396299995988607,-0.0002282799105159,0.0001695398241281,0.0002302239299751
7.7859072265625,0.0060659307091496,-0.0006724011025391,0.0415723658382892,-0.0023899527732282,-0.0003863973543047,0.0024503928143531
7.79588623046875,0.0021340711529366,0.0031804566670209,0.0442640891402959,-0.0008642277680337,-0.0007035797461867,0.001641058246605
7.805865234375,0.0043771739046089,0.0030450119853951,0.0566781650334596,0.0003354366635903,0.0029812147840857,-0.0015476470580324
7.81584423828125,0.0012136866386979,0.0015255108005367,0.0435094713807105,0.0004283810267224,-0.0017163353040814,-0.0009875843534246
7.8258232421875,0.0026803068588487,-0.0109922994617372,0.0453086297571659,-0.0005581082077696,-0.0003866786137223,0.0007536480552516
7.83580224609375,0.0020021153363399,-0.0097753614200279,0.0435153165996074,-0.0019789047073572,-0.0022793868556618,-0.0014165618922561
7.84578125,-0.008554770116508,-0.0079240527312271,0.0436643696814775,0.0006250871228985,-0.0001937104389071,-0.0002252749400213
7.85576025390625,-0.0007508183673024,-0.0049137467330321,0.0418698874801397,-0.0007360544987022,0.0009517148137092,0.0003419783315621
7.865738525390625,0.0029830709313973,-0.0224483257113955,0.0348328284502029,-0.0023927371948957,0.0012252144515514,-9.81547927949e-05
7.87571728515625,0.0034477841000072,-0.0123328638831153,0.035580431947112,0.0017258411971852,7.65928998589e-05,0.0021631352137774
7.885696533203125,-0.0013124343054369,0.0062677368915639,0.0514431869894266,-0.0024561844766139,-0.0014437772333621,-0.00172412651591
7.89567529296875,-0.0113359800665639,0.0010424034587107,0.047553778335452,-0.0002273849677294,-0.0018094293773174,-0.0001635141088627
7.905654541015625,0.0007672215128317,0.001380421507731,0.046153263887763,0.016478830948472,0.0759400054812431,-0.0011674533598124
7.91563330078125,-0.025406463130936,0.0114772334344685,0.1443161164760589,0.0054749143309891,0.0343238487839698,-0.0009394867229275
7.925612548828125,-0.0278601398933678,0.0004372954387217,0.168264562818408,-0.0048363911919295,-0.0170425195246934,-0.0031543138902634
7.93559130859375,0.0713663598710671,-0.0238891173705458,-0.2183463983267545,-0.0064995354041457,-0.0418240316212177,-0.0015071487287059
7.945570556640625,0.0180099962040781,-9.47838776744e-05,0.0049964931130409,-0.0035234310198575,-0.0258747488260269,-0.0004340459126979
7.95554931640625,-0.0010478650851175,0.0034026115177199,0.0237274970680475,-0.0049157314933836,-0.0068920040503144,-0.002202384872362
7.965528564453125,-0.0296333966435864,-0.0099414752345532,0.1169657527357339,0.000381922989618,-0.0048716561868786,-0.001100052613765
7.975507080078125,-0.008526713065803,-0.0066029601952992,0.0578670825570821,0.0006959096645005,-0.0049251858144998,0.0015119757736101
7.985486328125,0.0036232502647675,-0.0026742607105523,0.0620621961593627,-0.0004407842643558,0.0004243049770593,6.05831883149e-05
7.995465087890625,0.0090471567433327,-0.0083490549439564,0.0518909307569265,0.0007278108387254,-0.0026753479614853,-0.0007567409775219
8.0054443359375,0.0092873769736848,-0.0121073480315506,0.0484516039580106,-0.0010116706835106,0.0006994828581809,0.0015015843091532
