seconds_elapsed,ax,ay,az,gx,gy,gz
0.07272314453125,0.0049922553293406,-0.0037376338920556,0.04822890111804,0.0003992904676124,0.0019381325691938,0.0027453957591205
0.082703369140625,-0.0056759084782563,0.0036888993795029,0.0494254174262285,-0.0016534740570932,0.0010278644040226,0.0004777141730301
0.092683349609375,0.000764207571838,0.0007498137203045,0.0462859503567218,-0.002587242051959,0.0009557092562317,-0.0022654794156551
0.102663330078125,-0.0075364599194377,-0.0041423696348909,0.0467372012555599,-0.0009323538979515,0.000547713600099,0.0003500112507026
0.112643310546875,-0.0041245873830281,0.0068874031598679,0.0533212558209896,0.001551799592562,0.0028409650549292,0.0018898465204983
0.122623046875,-0.0001269143152981,0.0049602344895713,0.0450888495266437,-8.3914026618e-05,0.0008108373731374,-0.0015024880412966
0.13260302734375,0.0036104638484306,0.00367593943323,0.0587000262498855,0.0028235474601387,0.0005486272275447,-0.0013447038363665
0.14258349609375,0.0042672289904206,0.0022062596063129,0.051807928648591,-0.0002920844708569,-0.0008841538801789,0.000590082781855
0.1525634765625,0.0008559409759007,0.0005055018367245,0.0468278021484613,2.70094024017e-05,0.0023384187370538,0.0003234413161408
0.162543212890625,0.0072247636217623,-0.0076702880327124,0.0533007975548505,-0.001291787950322,-0.0008405959233641,-0.0001183770946227
0.172523193359375,-0.0029885325578041,0.0069894570285454,0.0477630371719598,0.0011018469231203,-3.99118289351e-05,-0.0003885841579176
0.18250341796875,-0.003845587778557,-0.0022492219652049,0.038650340911746,-0.0003245421685278,0.0001185461878776,0.0026080047246068
0.192483154296875,0.0015769487268291,-0.0006267079304438,0.036568858462572,-0.0009309769957326,0.0020981580018997,-0.0010867312084883
0.202463134765625,0.0102473080470226,0.0087114767818711,0.0446516271531581,9.91337001323e-05,0.0001420658081769,-0.0002779292117338
0.212443359375,0.0014762100324034,0.0003891271817497,0.0371627327024936,0.0003957216395065,-0.0023694057017564,-9.0582288976e-06
0.22242333984375,-0.0051915590274147,0.00072020403333,0.0456815547227859,6.01633219048e-05,0.0002439534291625,0.0001664440787862
0.2324033203125,0.005988773819711,-0.0009669544691685,0.0456716178506612,0.0030460201669484,-0.0007319869473576,0.0021329531446099
0.24238330078125,-0.0008617861947976,-0.0038105895304121,0.0437011945605278,0.001245723105967,0.0004810821264982,-0.0012655064929276
0.25236328125,0.002036108937487,-0.0014050718917977,0.0368254635721445,0.0004544907715171,-0.0011783130466938,-5.51201592315e-05
0.262343017578125,-0.0016582703347317,0.001777065275656,0.048501288318634,0.000917614554055,0.0010624704882502,-2.28959106607e-05
0.272323486328125,-0.006729399586562,-0.0087764957089442,0.0438601845145225,-0.0021736626513302,0.0015281457453966,-0.0014358474873006
0.282303466796875,-0.0031628479450941,-0.0051029126295819,0.0505892005085945,0.0004231857601553,-0.0031217336654663,0.0007591298781335
0.292283447265625,-0.0120714912668801,-0.0038887510668486,0.0516378327786922,0.0002053069183602,-0.0006943847984075,0.0024693578016012
0.30226318359375,-0.0022083236992359,0.0007954612266272,0.046555999469757,-0.0005582213634625,0.0028034104034304,0.0004554755287244
0.3122431640625,-0.0019154599661938,0.0078720028835814,0.0437058707356452,-0.0020184470340609,-0.0001874892041087,-0.0023214733228087
0.322223388671875,-0.0013144983983598,-0.0003517269139643,0.0453501308113336,-0.0009766183793544,-0.0008812425658106,0.000533435260877
0.332203125,-0.0006968414240516,0.0002090853065717,0.0435521414786577,0.001373725477606,0.0021202871575951,0.0015416974201798
0.342183349609375,-0.0028029103252105,-0.0031969968098681,0.042650808724761,0.0026669565122574,0.0006427653133869,-0.0002604637411423
0.352163330078125,-0.0106474315468221,-0.003040153147187,0.0354682037442922,0.0007739033317193,0.0020634485408663,-0.0002392164897173
0.362143310546875,-0.0101532182890921,0.0028557821567635,0.0451952325105667,-0.0013070907443761,0.0009883306920528,-0.0010924933012574
0.372123291015625,0.0026588256794027,-0.003218633252941,0.0531307016849517,0.0029849871061742,0.0026499927043914,-0.0011128350161015
0.382103271484375,-0.0039444267768412,0.0026228684500325,0.0543237108618021,-0.0006414392846636,0.0001444900408387,0.0004784036427736
0.392083251953125,-0.0097507201691158,-0.0013034564145375,0.0402589451521635,-0.0014939355896785,0.0006970688700675,-0.0022076370660215
0.402063232421875,-0.0077217168258503,-0.0019657197155524,0.0420522583097219,0.0004086267435923,0.0018307762220501,-0.0002539421548135
0.41204345703125,0.0009879881240427,0.0030125253547448,0.046837739020586,0.0020530971232801,0.0003667939454317,-0.0003216827462892
0.4220234375,-0.0007401691091246,-0.0032416122697293,0.0372603478580713,-1.48473773151e-05,-0.0018795821815729,-0.0012407395988702
0.432003173828125,-0.0061967540145851,0.0001013506157789,0.0457955364912748,-0.0024838249664753,0.0002300981432199,-0.0012442676816135
0.441983154296875,-0.0029585940772667,0.0013272117494605,0.043258711490035,-0.0012313403422012,-0.0012732567265629,-0.00209781085141
0.45196337890625,0.0062602111722342,0.0053026821185369,0.0457967055350542,0.0004086658591404,0.0004983013495802,-0.000888671784196
0.461943115234375,-0.0072159592607989,0.0086086465950589,0.0438525857299566,-0.0009897600393742,0.0020527886226773,0.00112547702156
0.47192333984375,-0.004837119566556,0.0007960914142895,0.0426572384655475,-0.000391015491914,0.0020190617069602,-0.0007642520358785
0.4819033203125,0.0005672602276317,0.0004090831243898,0.0475952793896198,-0.0011838384671136,0.0013908222317695,-0.0002097818651236
0.49188330078125,-0.0091232724531553,-0.0002458645198494,0.0502870026916265,0.0029189323540776,-0.0003490233793854,0.0016287340549752
0.50186328125,-0.0032798436545766,-0.0083851309043355,0.0451981551200151,-0.0001578175579197,-0.0005351789295673,-0.0001028531987685
0.51184326171875,-0.0026895130786113,0.0009756309659685,0.0466968692451715,0.0021717171184718,-0.001490949653089,-0.0006757861701771
0.5218232421875,0.0015257665288634,0.0021934092578943,0.0420616106599569,0.0029126089066267,-0.0014792317524552,-0.0021650260314345
0.53180322265625,-0.0062046633264049,-0.0017466244716197,0.0514823499560356,0.0028989368584007,0.0007461700588464,-0.0014788029948249
0.541783203125,0.0031630854071117,0.00417015269096,0.0549316136270761,-0.0009368139435537,-0.0039875986985862,0.0003808823530562
0.551763427734375,0.0017527071525342,0.0046841026956215,0.0552349804878234,0.0003362309653311,5.62751665711e-05,-0.0020376909524202
0.561743408203125,-0.0042676308492198,0.0097317232077009,0.0528361026525497,0.001108281314373,0.0016571013256907,0.0004622182168532
0.57172314453125,-0.0091049148125573,0.009063039299054,0.0499959107905626,-0.0017397018382325,0.0007429979741573,-0.002436387585476
0.581703125,0.0026696758669801,0.0035338275488,0.0470031587153673,-0.0015162626514211,-0.002021363005042,-0.0033613035921007
0.591683349609375,-0.0020258250054903,-0.0028250490917824,0.0393745635330677,0.0003186728572472,0.0011623734608292,0.00112518039532
0.601663330078125,-0.0003620382454246,0.0026361023909412,0.0462543861746788,4.56988345831e-05,-6.42789527773e-05,-0.0010996244382113
0.611643310546875,0.0023172822327353,-0.004255383289,0.0371294149547815,-0.0015277391066774,0.0017905849963426,0.0023906861897557
0.621623291015625,0.0077497738765552,0.0025945739373099,0.0426642527282238,0.0026150741614401,-0.0010813679546117,0.0008511127671226
0.63160302734375,-0.0084236180175095,0.006085977983335,0.0490992542117834,-0.0006874646060168,-0.0013852594420313,0.0004835226864088
0.641583251953125,-0.0019925072577781,0.0018439108336344,0.0426700979471206,0.0011964554432779,-0.0004382394254207,0.0003317224909551
0.651563232421875,0.0024597411770373,-0.0045839941888581,0.043570261657238,0.0023422907106578,-0.000252841040492,-0.0007262629223987
0.66154345703125,0.0015197021142579,-0.0014852792548481,0.0417728568464517,0.0014448055298998,0.0004899147897958,-0.0029569265898317
0.671523193359375,0.0036533348757773,-0.0004667224626056,0.0426718515127897,-0.0004089376889169,-0.0016947779804468,-0.0011639142176136
0.68150341796875,-0.0019038243273273,-0.0031998828866984,0.0438689523428678,0.0013945550890639,7.75558874011e-05,0.0005879132077097
0.6914833984375,-0.0064056109922938,-0.0068887274672742,0.0365326181054115,0.0024978776928037,0.0015388205647468,0.0016768593341112
0.701463134765625,-0.0022883483991958,0.0018814389655832,0.0317418766975402,0.0001995696220546,-0.0020625721663236,0.001117595587857
0.711443115234375,-0.0035302747516892,0.0016319120507687,0.0474567477017641,-0.0021498720161616,0.0011956710368394,2.20207220991e-05
0.72142333984375,-0.0131717623926699,0.0068919240713585,0.0464075309097766,-0.0009533138945698,0.0004816781729459,0.0019432250410318
0.731403564453125,-0.0045767515973187,-0.0089706300415564,0.0479056605130434,-0.0007456981111317,-0.0017976481467485,5.31921468791e-05
0.74138330078125,-0.0081644556246697,0.0044145285066217,0.0540448939204216,-0.0020708870142698,-0.000885515473783,-0.0010821133619174
0.75136328125,-0.0040570020395331,0.005890007886663,0.0558358689904212,-0.0007184682763181,0.0020033093169331,-0.0007220779079943
0.76134326171875,-0.0018611359630711,-0.0087596633051522,0.0377285498917102,0.0012429498601704,0.0014128871262073,0.0016164438566192
0.7713232421875,0.0010429697142913,-0.0039362526035401,0.0378776029735803,-0.0010435928124934,-0.0004111286252737,1.378866727463901e-07
0.78130322265625,-0.0056950333038344,0.0019924981246236,0.0479039069473743,0.0012595088919624,0.0006109923124313,0.000147144368384
0.791283447265625,-0.0060251785736531,-0.0010327040486037,0.0366834247529506,-0.0015026179607957,0.000507416203618,-0.0013414165005087
0.80126318359375,-0.0047598530792631,0.0025094894697424,0.046563598254323,-0.0012067407369613,0.0003340449184179,-0.0007115789921954
0.8112431640625,-0.0047687305054627,-0.0061842872586566,0.0500035095751285,0.0014730464899912,0.0004344712942838,-0.0001932047307491
0.821223388671875,-0.005508406424243,0.0017372355887666,0.0233715232372283,-0.00056134222541,-0.0011373264715075,0.0024241500068455
0.831203369140625,0.0017291253475472,-0.0003808342774398,0.0401338574677705,-0.002645940054208,0.0008494667708873,0.00040479155723
0.84118310546875,-0.0091185049464926,-0.0059875499770045,0.0550952797561883,0.0016023345524445,0.0002971272915601,-0.0014378495980054
0.8511630859375,-0.0018854849530383,0.006207786865253,0.0541974541336297,-0.0003276178031228,-0.0005404008552432,-0.0005043853889219
0.8611435546875,-0.0181990890353918,0.0020772446654736,0.0342985754430294,0.0009448406053707,0.0016236836090683,0.0021222904324531
0.871123291015625,-0.0069618018366396,0.0015859631503466,0.0405821857571601,0.0007357640424743,0.0014416174963116,-5.07222575834e-05
0.881103271484375,-0.0026834486640058,0.0075316650133114,0.0428244117259979,0.0003575951559469,0.0017846319824457,-0.0008054621284827
0.891083251953125,-0.0081143146063201,0.0004427844645921,0.0438730439960956,-0.000961348589044,6.21117651462e-05,0.0003618511836975
0.90106298828125,-0.0035525413824245,0.0034824626877438,0.0462701682657003,0.0007864839863032,-0.0006106030195951,0.0001589182938914
0.911043212890625,0.0006138210494071,0.0045968628035858,0.0452215359956026,0.0005654203705489,0.0001779841259121,0.0002045600995188
0.9210234375,0.0033110790430568,-0.0018213976077269,0.0495639491140842,-0.0004750767257064,-9.33920964598e-05,0.0002716717426665
0.93100341796875,-0.0049867571703158,-0.0032971601155586,0.043581367573142,0.0007161217508837,0.0002022963017225,-0.0019207972800359
0.940983154296875,0.0127778311716392,0.0056987596308812,0.053911622929573,-0.0002213109401054,-0.0003726808354258,0.0010435672011226
0.95096337890625,0.0114907687694765,0.0053548050314188,0.0477799883067607,0.0013976991176605,-0.0026170322671532,-0.0006113976705819
0.960943359375,0.0040389914588071,0.0013069726790301,0.0459884287148714,0.0027164965867996,-0.0005922317504882,-0.0006385619053617
0.970923095703125,0.0003135594611987,0.0085723057731986,0.0395563498407602,0.0013421743642538,0.0005429750308394,-0.0007500139763578
0.980903076171875,-0.0007137560262344,0.0028964155612513,0.0419511360228061,-0.0009044683538377,0.0021219635382294,0.0003762368578463
0.99088330078125,0.0043624695258215,0.0030407650685403,0.045839960154891,-0.0001573634799569,-0.0008743060752749,-0.0003526622313074
1.000863525390625,-0.001169354306627,-0.0009457016185857,0.0395545962750911,-0.0012990606483072,-0.0005070557817816,0.000317921716487
1.01084326171875,-0.0021836459157057,-0.0051861339336261,0.0495797312051057,-0.0011417546775192,-0.0023087244480848,0.0009144337382167
1.0208232421875,-0.0036602030079811,-0.00271923236344,0.0434428358852863,0.0001890269340947,-0.0006956476718187,-0.0014145006425678
1.03080322265625,0.0005085523103363,0.002270931473514,0.0528676668345928,0.0022606113925576,0.0013138083741068,-0.0024974464904516
1.040783203125,0.0049578050704672,-0.002173361983709,0.0410445425719022,0.0012627252144739,-0.0003767665475606,-0.0010593393817543
1.050763427734375,0.0017075528365559,0.0017322397532407,0.0470323848098516,-0.0001445611123926,0.0019786087796092,-0.0009483811445534
1.060743408203125,0.0027106837308034,0.004942653167108,0.0455342552065849,-0.0004505583201535,-8.21454450488e-05,0.0027169273234903
1.07072314453125,-0.0032276933422312,0.0068735390312969,0.0374538246035575,-2.2750115022e-05,0.0006339093670248,-0.0006870888755656
1.080703125,-0.0043424313847906,0.000539641568344,0.0425420876532793,0.0011434481712058,0.0004019476473331,0.0031294873915612
1.090683349609375,-0.0041882637363858,-0.0009493822798598,0.0458341149359941,-0.000705664162524,0.0016743540763854,0.0021631508134305
1.100663330078125,-0.0072312664277851,0.0026171145626809,0.048227147552371,-0.003501184284687,-0.0005989195778965,0.0011828411370515
1.11064306640625,-0.0080881389854475,0.0056757897472474,0.0503244120925664,-0.0013328624190762,-0.0005184998735785,0.0025845421478152
1.120623291015625,0.0022088168895803,0.0084755126015283,0.041643677508831,0.0032805316150188,-0.0009560575708746,0.0026362075004726
1.130603515625,-0.0050378297704271,0.0030862116454634,0.0361006564289331,0.0019090145360678,0.0026533892378211,-0.0007074772147461
1.140583251953125,-0.0010727803306654,0.0049142490565311,0.0479202735602855,-0.0003397585824131,0.0003351075574755,-0.0003338357782922
1.150563232421875,-0.0053270767742767,-0.0044283378362655,0.0358019657433033,-0.0001977049396373,-0.0001956271007657,-0.001932127866894
1.160543212890625,-0.0016603526939637,-0.0003240991215221,0.0441828405976295,0.0007005792576819,-0.0006265267729759,2.5561908842e-05
1.170523193359375,0.0049231356158852,-0.0067803808551281,0.0498708231061697,0.0025422628968954,-0.0009883465245366,0.0007684511365368
1.18050341796875,-0.0089285901312716,0.004100466721924,0.0494219102948904,0.0009409042540937,-0.0006005903705954,-0.0003823007282335
1.19048291015625,-0.0048597332571633,0.0024956527406349,0.0429874933332204,0.0011482759146019,3.36579978466e-05,-0.000506663811393
1.200462890625,0.0014263430086895,-0.0052319001709576,0.04987023858428,0.0005410751327872,-0.0007738126441836,0.0001711107324808
1.210442626953125,-0.003091097883135,-0.0049351365809328,0.046281858703494,0.0021585174836218,-0.0009084278717637,0.0002909858885686
1.220423095703125,0.0060069305309094,0.0003023348142858,0.0352080915033817,-0.0003115644212812,6.57560303807e-05,-0.0016035869484767
1.230403076171875,-0.0029192301812581,0.0032948311611544,0.0386509254336357,0.0015182624338194,0.0011332621797919,0.0006456687115132
1.2403828125,0.0028629882156848,0.0032545996154658,0.0546598109483718,0.0011544745648279,0.0001289844512939,-0.0030782294925302
1.25036279296875,0.0008970036386512,0.0047791971005499,0.0423854357868433,-0.0006626144750043,0.0040233395993709,-0.0009968585800379
1.260343017578125,0.0020069741745479,-0.0002533993723336,0.041487025642395,0.0014684469206258,0.0003556348383426,-0.0010959280189126
1.270322998046875,0.0015355938031338,0.0033911859414074,0.0450800816982984,-0.0022153663448989,-0.003729473799467,0.0008061041589826
1.280302978515625,0.0014279321775771,0.0030788777223788,0.0393950217992067,-0.0017098982352763,0.0019270805642008,0.0011432603932917
1.290282958984375,0.004367163967248,0.0047148357606027,0.0464238975226879,3.03128035739e-05,0.0009072460234165,2.37536769418e-05
1.300262939453125,-0.0049233913442119,0.0138787507514003,0.0459744001895189,0.0009174117585644,0.0002577006816864,0.0013990100705996
1.310242919921875,0.0041918439329601,0.0012672160573769,0.0444780241519212,-0.0008392324089072,-4.39509749412e-05,0.0006238067289814
1.320222900390625,0.0027485863220877,0.0005940203703939,0.0455225647687912,0.0009866307955235,-0.0005102707073092,-0.0004033745499327
1.330202880859375,-0.0114307639442384,-0.0036851091203745,0.0420779772728681,0.0006266443524509,0.001554780639708,0.0006206054240465
1.3401826171875,0.0013690050645731,0.0025974143483676,0.0438718749523162,-0.000256459810771,0.0002692723646759,0.0006030285730957
1.350162841796875,-0.0011721490519121,0.0010982526986394,0.0528472085684537,0.0038589958567172,0.0004943255335092,-0.0001826219959184
1.36014306640625,0.0037372502995654,0.0024623258597683,0.0396785149157047,0.0011774590238928,-0.000828999094665,-0.0011914273491129
1.370123046875,-0.002901858921349,0.0012420176840387,0.0390787954568862,-0.0009295117342844,-0.0006991308182477,-0.000744480988942
1.380102783203125,-0.0027111221222206,0.0093198362048715,0.0459632942736148,0.0010018126340582,0.001748314127326,0.0001279705757042
1.390082763671875,-0.0025230156715959,-0.0020195779277943,0.0312958864957094,-5.29178651049e-05,0.0017509153112769,-8.22911533759e-05
1.40006298828125,0.0041667277580127,0.0006412113798316,0.0336859965026378,-0.0021357759833335,0.000774067826569,-0.0007701856084167
1.41004296875,-0.000171557174623,-0.0006011990298517,0.0476046317398548,0.0025578988716006,-0.0030403630807995,1.12472607725e-05
1.42002294921875,0.0013113931258209,-0.0009869834770448,0.0488005635261535,-0.0008301746565848,0.0017429403960704,-0.0019168814178556
1.4300029296875,-0.0046980581557378,0.007543821241986,0.0413180988162755,-0.001334402593784,-0.0005868216976523,7.34987552277e-05
1.439983154296875,-0.0058102389150299,0.0110366957258898,0.041018823608756,-0.0003117487067356,-3.50149348378e-05,-0.001230118679814
1.449962890625,-0.0016336656164377,0.0086084456656593,0.0462561397403478,-0.0015381888952106,-0.0018784180283546,0.0002840067609213
1.45994287109375,-0.0073230180981568,0.0022698537612799,0.0425204603433609,-0.0012183432700112,0.0014255000278353,-0.0004086814587935
1.4699228515625,0.0002455905252136,0.0041603162835352,0.040420273193717,-0.0005207416252233,0.0005623633041977,-0.0009438233100809
1.47990283203125,-0.0012901859410107,0.0048337128999177,0.0354804787039756,0.0039778701029717,-3.5585835576e-06,-0.0016719314735382
1.489883056640625,-0.0064380702234804,0.0007694043367635,0.0398170466035604,0.0004443057114258,0.0011938968673348,-0.0024223634973168
1.499863037109375,-0.0075060282485559,0.000101058354834,0.0429600208044052,-7.98043329268e-05,-0.0011100033298134,-0.0025589836295694
1.5098427734375,0.0040052170533686,0.0045303643054794,0.0535877978026866,-0.000622708001174,-0.0012345248833298,-0.0016550596337765
1.51982275390625,-0.002177873762045,0.0057484713909681,0.0369786083072423,0.0015496325213462,0.0008334200829267,-0.0020534682553261
1.529802978515625,-0.0018012590019963,0.0015677242407575,0.041917818275094,0.0009212320437654,-0.0028575919568538,-0.0014136648969724
1.539783203125,-0.0030820012612268,0.0011512432612013,0.0408750312238931,-0.0004116801428608,-0.0005600834265351,-0.001836308510974
1.549762939453125,0.0025981815333478,0.0033247696416918,0.034592005431652,7.98807013779e-05,0.0001805182546377,-0.0013831135584041
1.559742919921875,-0.00468220299948,0.0061664410747122,0.0459656323611736,-0.0006444991449825,-0.0007073795422911,-0.0024073654785752
1.569722900390625,-0.0063601278827525,0.0030371026735752,0.045215106254816,-0.0011034770868718,0.0005375342443585,0.0015489077195525
1.579702880859375,-0.0113021873948164,0.0012088917325716,0.0416191275894641,0.001290971180424,0.0011471323668956,-0.0014740463811904
1.589682861328125,-0.0078951736966148,-0.0004086629992816,0.0473012648791074,-0.0016313553787767,-0.0009093647822737,0.0012107244692742
1.599662841796875,0.0011231222784146,0.0017289244181476,0.0419160647094249,-0.0004638255923055,-0.001151711679995,-0.0024977272842079
1.609642822265625,0.0049586453206837,-0.0028978038007393,0.0487999790042638,-0.0005659530288539,0.0018650908023118,0.0017433842876926
1.619622802734375,-0.0026743155094794,-0.0040014907263219,0.0447556720495223,0.000914764474146,0.0014693448320031,0.0024099736474454
1.62960302734375,-0.0025185769584961,-0.0020469134592916,0.0407154567480087,0.001043296419084,-0.0016215601935982,0.0025269037578254
1.6395830078125,-0.0010644691600464,0.0041692119760438,0.0413169297724962,-0.0002640494494698,0.0008674301207065,0.0017263577319681
1.649562744140625,0.0060661864374764,0.006086325043207,0.0384779069542884,-0.0021074835676699,0.0001416336745023,-0.0004651580238714
1.659542724609375,-0.0019428411634638,-0.0027982524164021,0.0449158310472965,-0.0009511391399428,-0.0013409480452537,-0.0005762118380516
1.669523193359375,0.0076187679080292,-0.0023875253241974,0.0464157142162323,0.0012384470319375,0.0004867631942033,0.0010393798584118
1.6795029296875,0.002982961333543,0.0095982969532255,0.0420773927509784,-0.0013818370644003,-0.0002554599195718,-0.0009579908801242
1.68948291015625,-0.0006240501824766,0.0040080391981173,0.0492605822533369,0.0002268082462251,-0.0023665707558393,-0.0017991460626944
1.699462890625,0.00166736695664,0.0078274056900292,0.0278624049156904,-0.0016680308617651,0.0008526584133505,-0.0007687690667808
1.70944287109375,-0.0004632335975766,0.006828339049546,0.0344470440030098,-0.0007174140773713,0.000297681428492,0.0014961957931518
1.7194228515625,0.0036675825968384,0.0033002197223249,0.0495616110265254,0.0011414723703637,-0.0019545536488294,6.34151074336e-05
1.72940283203125,0.0004440722393803,0.00787395737865,0.0450748210012912,-0.0016939077759161,-0.0001346711069345,0.0017307663802057
1.739383056640625,-0.0025685718463733,0.0045407395690213,0.0464215594351291,0.0001529944129288,0.0004325825721025,-0.0005800584331154
1.74936279296875,0.0026677213719114,0.0004643113098107,0.0450748210012912,0.0018809378379955,-0.0002388032153248,0.0011929566971957
1.759343017578125,0.0035117892469279,-0.000462356814742,0.0328039529711008,0.0023304796777665,0.0026166373863816,0.0004379505407996
1.769322998046875,-0.0049433564200066,0.0008373002075124,0.0407300697952508,-0.0018043449381366,0.0018915003165602,0.0003343627904541
1.779302734375,-0.0011735738240182,-0.0007844283759593,0.0396814375251531,0.0011195396073162,0.0008217077702283,-0.0001569903979543
1.78928271484375,-0.0003560468960553,0.0039754886353854,0.0464157142162323,-0.0025877230800688,-0.0001333197578787,8.12540965853e-05
1.799262939453125,-0.0008196823524311,-0.0013168456190731,0.0417787020653486,-0.000370375055354,0.0004062363877892,0.000993120484054
1.8092431640625,0.0043497379084117,0.0074894515730906,0.0434235466629266,0.000341324834153,0.0001123277470469,-0.0002576459373813
1.819222900390625,-0.001260850248672,0.0002894753327127,0.0521042812466621,0.0019496078602969,-0.0007156487554311,-0.0007194380741566
1.829202880859375,-0.0001090681313537,0.001729591138428,0.0465688589513301,-0.0012432488147169,-0.0005551129579544,-8.7326974608e-05
1.839182861328125,-0.002600008164253,-0.0068323485043831,0.0359445890843868,0.0005032522603869,-0.0013330224901437,-0.0002668240340426
1.849162841796875,0.0074679612604901,0.0015012257426511,0.0509130256354808,0.0007087843259796,-0.0008748145774006,-0.000982413184829
1.859142822265625,0.0001325768711045,-0.0034144115533679,0.0337041166812181,-0.0020723547786474,-0.0017619132995605,0.0017486584838479
1.869121826171875,0.0019462752295657,0.0013926325353328,0.0349012175112962,0.0002178767463192,-0.0001256065443158,0.0006278448272496
1.879101806640625,0.0035376360742375,-0.0090068064666353,0.047171501019597,-0.0026277108117938,-0.0006832722574472,-0.0023429112043231
1.88908203125,-0.0116410456940531,0.0010999788648448,0.0453781878620386,0.0013174611376598,-0.0025405129417777,-0.000757910311222
1.89906201171875,0.0009380480350926,0.0034421854762826,0.0393950217992067,0.0011720525799319,-0.0006981380283832,-0.0021052036900073
1.909041748046875,-0.0043874395702965,0.0031687205634545,0.0352063379377126,0.0014080354012548,-0.0015302514657378,-0.0007235005032271
1.919021728515625,-0.0004527487361803,0.0036632443484384,0.0346066184788942,0.0010455790907144,0.0010708579793572,-0.0007605183636769
1.929001953125,-0.0007678243010304,0.005477919954434,0.0450777436107397,0.0004480000352486,0.0001322496682405,-0.0012229633284732
1.93898193359375,-0.0016901085114106,0.0111441290225833,0.0438800582587718,-0.0002867660950869,0.0018545165657997,-0.0008407996501773
1.9489619140625,-0.0024416757973842,6.0278819873e-06,0.053158174213767,0.0001033348962664,-0.000184504315257,-0.0001969209697563
1.95894189453125,-0.0003409589247778,0.0070147649997379,0.0464198058694601,-0.0006250396836549,0.0009484039619565,-2.11523292819e-05
1.968922119140625,-0.0028244280372746,0.0010399466401431,0.0404360552847385,0.0005214255070313,0.0003031743690371,-0.0011701552430167
1.97890185546875,-0.0028742219957523,0.004579445877904,0.0437274980455636,0.0010913419537246,0.002531973645091,0.0003182855434715
1.9888818359375,-0.0015861366802826,-0.0077991659762337,0.0455178885936737,-0.0012502460740506,0.0009709252044558,-2.74649210041e-05
1.99886181640625,-0.0008467530224472,0.0015306436333805,0.0414735816389322,0.0009404702577739,0.0007943576201796,0.0003507039509713
2.008842041015625,0.0042967838784679,0.0020944332622922,0.0405728334069252,-0.0002991351066157,-0.0012024966999888,-0.0007438253960572
2.018822021484375,-0.00709156569615,0.002542122230865,0.0390776264131069,-0.0003952751867473,-0.0006360420957207,0.0026029692962765
2.028802001953125,-0.001577953373827,-0.0004127729188185,0.0366810866653919,-0.000987829756923,0.0017788214609026,0.0006793065113015
2.038781982421875,-0.0007025405124761,-0.0024848025530576,0.0407207174450159,-0.0002179099246859,-4.14494425058e-05,0.0007325697224587
2.04876171875,-0.006760927235987,-0.0062402278301306,0.050897828066349,0.0002327742986381,-0.0023649744689464,0.0006959196762181
2.058741943359375,0.0006364530063234,-0.0012477441719267,0.0550882654935121,0.0010026941308751,0.0006819488480687,-0.0003672142629511
2.068721923828125,-0.0013673062978312,-0.0010079258003737,0.0464116225630044,-0.0021308558061718,-0.0001220209524035,0.0002135263348463
2.078701904296875,0.0026212336153723,0.0101016342323273,0.0435690926134586,0.0002726470120251,0.0006409743800759,0.0001988789590541
2.088681884765625,-0.0086947631090879,0.0050242487696465,0.0498562100589275,-7.12948385626e-05,-0.0013490486890077,0.0009712931350804
2.098661865234375,0.0062811078297905,0.004878364892397,0.0426741896003484,-0.001078502391465,0.0017767027020454,-0.0033888341858983
2.10864208984375,-0.0003773636787198,0.0051412992780562,0.0456657726317644,-0.0020774437580257,0.0002977671101689,-0.0022246765438467
2.118621826171875,-0.0019098339430056,0.0065415397311095,0.0410270069152116,-0.0014489376917481,-0.0009318152442574,0.0035714271944016
2.128601806640625,-0.0077373345200903,-0.0004571052508894,0.0342944837898015,-0.0017301300540566,0.0027808286249637,-0.0004804263298865
2.13858203125,-0.0068876954208128,-0.0007124499851372,0.0435708461791276,-0.0014134801458567,-0.0008011227473616,0.0002535408420953
2.148561767578125,-0.0075194357194006,0.00331082331473,0.0492529834687709,0.0018830888438969,0.0027266750112175,-0.0021378330420702
2.1585419921875,-3.60394277609e-05,-0.0023649481662083,0.0582294861286878,-0.003685048315674,-0.0006294399499893,-0.0011697737500071
2.16852197265625,0.0004489310775883,-0.0040632491172291,0.0425204603433609,-0.0002650423557497,-0.0010810894891619,-0.0001820405595935
2.178501708984375,-0.0078533803815022,0.0104249387694057,0.0335410350739955,-3.81410354748e-05,-0.0004898672923445,-0.0005610084044747
2.18848193359375,-0.0035320100510492,-0.0027509609422646,0.046261400437355,-0.0017034091288223,-0.002437618561089,0.0001389799726894
2.198462158203125,0.003117072574608,-0.0045919491664506,0.0489572153925895,0.0018537750001996,0.0011363439261913,0.0006361921550706
2.208442138671875,0.0057954066720791,0.0077234064594376,0.0574853897631168,-0.0001281589502468,0.0007193917408585,0.0006956419674679
2.218421875,-0.0007951141667552,-0.0042950485791079,0.0446153867959976,-0.0006269690347835,0.00045121088624,0.002495938912034
2.22840185546875,0.0089101959580555,0.0055218230282422,0.0368348159223794,-0.0013251509517431,0.00143111217767,0.001146076596342
2.238382080078125,0.0036662491562776,-0.0043401115635409,0.0365384633243083,0.0004722164012491,-0.0039442121051251,0.0005055863875895
2.248362060546875,-0.0004392682000994,-0.0001630176751408,0.0464162987381219,0.0002498271642252,0.0009644674137234,0.0022609350271523
2.258342041015625,0.0045019327954389,0.0012179609550163,0.0491062684744596,0.0003393093356862,0.0015756636857986,0.0002553085505496
2.268322021484375,-0.0062894372667185,0.0008712024771142,0.0482066892862319,-0.0003783015417866,-0.0012710941955447,3.93532245652e-05
2.278302001953125,0.0075768101961351,-0.0042219194108154,0.0504506688207387,-0.000101599143818,-0.0007041068747639,0.0005562728038057
2.288281982421875,0.0037108737492933,0.001211622545775,0.0468605353742837,-0.0003632917650975,-0.0007799910381436,0.0017449222505092
2.29826220703125,-0.0052607883387245,0.0070203453571535,0.0387806892931461,-0.0008069743635132,0.0010115168988704,0.0015640936326235
2.3082421875,0.002135605522897,0.0059378747495356,0.0435690926134586,-0.000385413179174,-0.0009222412481904,0.0009830329800024
2.318221923828125,-0.0044887627866119,-0.0014317681024782,0.0483604185432195,-0.0005776933976449,-0.0005331533029675,8.4482380771e-05
2.328201904296875,0.0058669923372566,-0.0009892028335947,0.0473135398387908,0.0011467786971479,1.22161582112e-05,0.001525524072349
2.33818212890625,0.0008096358824521,0.0053760578820016,0.0402770653307437,0.0008093561045825,0.0018846839666366,0.0005092617939226
2.348161865234375,-0.0023530111332423,-0.0057479325348511,0.0477595300406217,0.0014135392848402,0.0002460042014718,0.0006771910702809
2.358141845703125,0.0044019978186115,-0.0024696506496984,0.0470119265437126,-0.0001039300113916,0.0001482665538787,0.0004843781935051
2.3681220703125,-0.0010429697142913,-0.0031342611714266,0.0368359849661588,0.001391036552377,0.0022836532443761,0.0006508199730888
2.378102294921875,-0.0096003701793029,-0.0018289689928293,0.0453618212491273,-0.0013349751243367,0.0002966690808534,0.0011618805583566
2.38808203125,0.0010847630294039,0.0040724188043735,0.0504500842988491,0.0026787456590682,-7.9525634646e-06,0.00102505821269
2.39806201171875,-0.0077750727145932,0.0033448899811133,0.0387806892931461,0.0009205266833305,-7.98571854829e-05,-3.78093245672e-05
2.4080419921875,-0.0053990460319444,0.0006372932565398,0.0399760365575551,0.0031925290822982,-0.0004841908812522,0.0004945130785927
2.418021728515625,-0.0035187121780589,-0.0027169399416539,0.0425175377339124,-0.0002384214312769,-0.0004370529204607,0.0006212794687598
2.428002197265625,-0.0002492803196422,0.0013405096224509,0.0356336234390735,0.0003420035354793,0.0021273717284202,-0.0020539553370326
2.437982177734375,0.0025035985850729,0.007502941242326,0.0335392815083265,-0.0009890443179756,0.0006527798250317,0.0014467700384557
2.447962158203125,0.0023148162810131,0.0030023966863751,0.0482031821548938,-0.0001243076985701,0.0005573295056819,0.0018156314035877
2.45794189453125,-0.0044553171747364,0.0025749467882327,0.0474538250923156,-0.0048109386116266,0.0005011362954974,-0.0014398166676983
2.467922119140625,-0.0067589727409183,-0.0017616759102791,0.0531423921227455,-0.0027010277844965,-0.0004953276365995,0.0003291206667199
2.477902099609375,0.0073246985985897,0.0005022047679405,0.0470090039342641,-0.0015920875594019,0.0015550404787063,-0.0003116358711849
2.4878818359375,0.0033025669430382,0.0030945593487005,0.0404243648469448,-0.000135671114549,-0.0020298436284065,-0.0017669358057901
2.497862060546875,0.0061182819508947,0.0088571962623391,0.0482078583300113,-0.000152182765305,-0.0017414232715964,-0.0002191066159866
2.507842041015625,-0.0003583484509959,-0.007094323908817,0.0414741661608219,-0.0001351368846371,0.002088651061058,-0.0004528528952505
2.517822265625,-0.0021998115992173,-0.0024829028569161,0.0503033693045377,0.0017636968987062,0.0005586650222539,4.56908383057e-05
2.527802001953125,-0.0060978054184466,0.0026233525072224,0.0434194550096988,-0.0005068299942649,-0.0005835462361574,-0.0017327513778582
2.537781982421875,-0.0023730127416551,-0.0046169466103892,0.0441664739847183,-2.6936177164e-06,0.0001277839764952,0.0001282655866816
2.547761962890625,-0.0122918194866739,-0.0045309396942146,0.0399783746451139,0.0009103068150579,-2.98209488391e-05,-2.70234595518e-05
2.557741943359375,-0.0081718534798361,-0.0035529615075327,0.0535942275434732,-0.0014796138275414,-0.0027414513751864,0.0025391983799636
2.56772216796875,-0.0064324989992193,0.0030945319492369,0.0446177248835563,0.0020201613660901,-0.0004036063328385,0.0001134516642196
2.5777021484375,-0.001534972748626,0.0010051675877068,0.0434194550096988,0.0008164125028997,-0.0018196087330579,4.6339999244e-05
2.587681884765625,-0.0016762809154577,-0.0054201801515184,0.0380371774494648,-0.0025542411021888,-0.0016811676323413,0.002612086944282
2.597661865234375,-0.0059087673860602,-0.0053864970776252,0.0350479325056076,0.0010050738928839,-0.0011890148743987,-0.0014484345447272
2.60764208984375,0.0064020125294104,0.0018420750695746,0.0334025033861398,-0.0015914817340672,0.002919940277934,-0.0012016285909339
2.6176220703125,0.0018113968035206,-0.0084049315833486,0.0486655389696359,0.0005702060880139,-0.0047976342029869,-0.0001017430622596
2.62760205078125,-0.0047194845362566,-0.0021459716532845,0.0555570520490407,-2.05915421247e-05,-0.0015666056424379,0.0015348640736192
2.63758203125,1.0777122341e-05,0.00045246560839,0.0453828640371561,0.0003112383419647,-0.0003487421199679,0.0023383398074656
2.647562255859375,-0.0063762022347189,-0.0043397553705144,0.0341582901895046,0.0024599307216703,0.0012958906590938,0.0012223033700138
2.6575419921875,-0.0053119888029992,-0.0003060154755599,0.0510673394143581,-0.0002162799355573,-0.0014700684696435,0.0006854100502096
2.66752197265625,0.0007210442835465,0.0012874368614982,0.0379009838491678,-0.0003675593761727,0.0006677089259028,0.0024918119888752
2.6775009765625,-0.0064054100628942,-0.0029048819954972,0.0458311923265457,-0.0002405266277492,0.0015196539461612,-0.0022094661835581
2.68748095703125,-0.0021225085793063,-0.0035911106939893,0.0370025737047195,-0.0005273008719086,-0.0018096137791872,0.0012752511538565
2.697461181640625,0.0010266944329254,-0.0064869873991236,0.0486748913198709,-0.0016689980402588,-0.0009741801768541,5.01971226185e-05
2.707441162109375,-0.0049991417278535,-0.0081911792348138,0.0432873530626296,-0.0003244316321797,0.0041724164038896,0.0005707666277885
2.7174208984375,0.002845708287321,-0.0003316613734699,0.0380494524091482,-0.0037473924458026,0.0008551832288503,0.0010538640199229
2.727401123046875,0.0002120535817928,-6.54207858722e-05,0.0468809936404228,-0.0034661558456718,-0.0006483728066086,0.0004781403986271
2.737381103515625,-0.0063720375162549,-0.000108483609464,0.0371580565273761,-0.0011542655993252,0.0009892052039504,0.0002909202012233
2.74736083984375,-0.0044502939397469,-0.0044535453427582,0.025035657057166,-0.0023755012080073,-0.0001587737351655,-0.0020157862454652
2.7573408203125,-0.0097520718759857,-0.0026311430880334,0.0461374817967414,-0.0010210174368694,-0.0006791548803448,-0.0002583661407697
2.767321044921875,-0.0042902993387542,0.004270827453304,0.0471831914573907,-0.0013668000465258,0.0009777648374438,0.0008878398220986
2.77730126953125,0.0031165063190273,0.0020716369085945,0.0361094242572784,0.0010920964414253,-0.0013809967786073,1.11271510832e-05
2.787281005859375,-0.0022100041996687,0.0013207272097468,0.0462830277472734,0.0002781780203804,0.0015596328303217,0.0028475765138864
2.797260986328125,0.0022160686142742,-0.0029864867311902,0.0416407548993825,0.0019162885146215,0.0007404442876577,0.0002280912740388
2.807240966796875,0.0074614949870854,0.0013311664053704,0.0507674796849489,0.0018270686268806,-0.0016300957649946,-0.0007965575205162
2.817220947265625,0.005054068519175,-0.0025431908099446,0.0486754758417606,0.0011564847081899,-0.0011342158541083,0.0016538170166313
2.827201171875,0.0023658340821973,-0.0042384412873536,0.0374520710378885,0.0022345571778714,0.000810083001852,0.0008261350449174
2.83718115234375,-0.0016849391459487,0.0042172067030798,0.0423889429181814,0.0003093581181019,0.0004148697480559,-0.0020458179060369
2.8471611328125,0.0030833529680967,0.0044549883811734,0.040442485025525,0.0013248537434265,0.000964256003499,0.0001700084249023
2.857140869140625,-0.0084733023781329,0.0059845177697017,0.0404413159817457,-0.0015023581217974,0.0011735800653696,-0.0020582585129886
2.86712109375,-0.0039999380900524,0.0073143872671294,0.0446340914964675,-0.0004508197307586,-0.0006008921191096,0.0006729974411427
2.87710107421875,0.000619008681178,0.0008656312528531,0.0453770188182592,0.001846422906965,0.0007807556539773,1.20009062811e-05
2.887080810546875,0.000405859120842,0.0018046565354801,0.0392401234984397,-0.0013781407615169,-0.0016711996868252,-0.0012242131633684
2.89706103515625,-0.0021110921361483,0.0030447288576047,0.0417827937185764,-0.0016077051404863,0.0020548291504383,-0.0010162201942875
2.907041259765625,-0.0095053123069927,-0.0012464289976749,0.0533043046861886,-0.0015820662956684,0.0007767183706164,0.002268589567393
2.917021240234375,0.0011354155044071,-0.006205896302266,0.0365454775869846,0.0011633865069597,-0.0012483494356274,-0.0002275913429912
2.9270009765625,-0.003541618129611,0.0001684153694659,0.0332499431729316,0.0018211957067251,0.0030442280694842,-0.0016674471553415
2.93698095703125,-0.0005442812108434,-0.0028541016563307,0.0476157376557588,-0.000585503061302,-0.0008543729782104,0.0006516335415653
2.9469609375,-0.0009987652463838,-0.0007919449621345,0.0395353070527315,-0.0005526251625269,0.0016699200496077,-0.0001875985763035
2.956941162109375,-0.0062925060066394,-0.0051087669816333,0.0446235701024532,0.0005832130555063,-0.0008062869310379,-0.0001093016326194
2.966921142578125,0.0028572708609513,-0.0051611182233784,0.0440256042093038,-0.0007649314356967,-0.0013915346935391,0.0021412810310721
2.976901123046875,-0.0004133665738627,0.0060105381269473,0.0471691629320383,0.0016574799083173,-0.0017345501109957,-0.0008483834099024
2.986880859375,-0.0095629973109811,0.0032280860678758,0.0479208580821752,-0.0022888742387294,-0.0017406549304723,0.0008627825882285
2.996861083984375,-0.007280092271883,-0.0019237437373492,0.0398421810448169,-0.0004699351848103,0.000594139099121,0.0010212406050413
3.006841064453125,0.0047861017653718,0.0033976248153485,0.0458288542389869,0.0013023507781326,7.65696167945e-05,0.0008688403759151
3.016821044921875,0.0010734013851732,0.0041313093847595,0.0408884752273559,-0.0025419222656637,0.000577775761485,-0.0030017979443073
3.026801025390625,-0.0008129238180816,0.0072738999931141,0.0425374114781618,-0.002582034561783,-0.001816970296204,0.0007352810935117
3.036781005859375,0.0004417524181306,-0.0020983239861205,0.0440343720376491,-0.0003194129094481,0.0006994502618908,0.0017374285962432
3.04676123046875,0.0012603570583276,-0.0024091161014977,0.0368500134915113,-0.0011035987408831,0.0018001375719904,0.0022456713486462
3.056740966796875,0.0067161930451169,-0.0068677394781727,0.0344552273094654,-2.47522257268e-05,0.0004653614014387,-0.0014052561018615
3.066720947265625,0.0012308021702803,0.0003395524189807,0.04388356539011,0.0021999001037329,-0.000273766927421,-0.0008679170859977
3.076700927734375,-0.0077747621873393,-0.0027860413888003,0.0459761537551879,-0.0007836391450837,0.001332651823759,0.0005992184160277
3.086680908203125,-0.0022202881316654,-0.0057857529277447,0.0399877269953489,0.0023904247209429,0.0002111895009875,9.40996978897e-05
3.0966611328125,0.0006950147931464,-0.0069514539725612,0.0399888960391283,0.0015725680859759,0.0006356975063681,-0.0007581118261441
3.10664111328125,-0.0045854646267369,0.0023392840019892,0.0419330158442258,-0.0007060378557071,-0.0008060438558459,0.0011921575060114
3.11662109375,0.0005479892715811,0.0013460169146303,0.0432820923656225,0.0013600426027551,-0.0002710148692131,-0.0003199853526894
3.126600830078125,-0.0061997131566517,-0.0037904417915269,0.0405868619322776,0.0037603031378239,0.0001150742173194,0.0009769960306584
3.1365810546875,0.0011663768982514,-0.0056490113381762,0.0485176549315452,0.0013402886688709,-0.0002417899668216,3.0242234061e-05
3.14656103515625,0.001403290926665,-0.0001269508479163,0.0512099627554416,-0.0012401016429066,-0.0016638273373246,0.0011458531953394
3.156541015625,0.0012651610976085,-0.0009700140759348,0.0393880075365304,-0.0031514521688222,0.0018944218754768,-0.0017069249879568
3.16652099609375,-0.0107384342985227,-0.0002871007125359,0.0369938058763742,0.0002728085964918,-5.73247671127e-05,0.0020260084420442
3.176501220703125,-0.0024345884694717,-0.0054601559688802,0.0389420173346996,-0.0020321572665125,-0.001273856498301,0.0004885655362159
3.186481201171875,-0.0050557490196079,0.0026103377620223,0.0410369437873363,-0.0038019765634089,0.0007374882698059,0.0009605202358216
3.19646044921875,-0.0031150632806122,0.0032556681945454,0.0495668717235326,-0.0004948631976731,-9.71462577581e-05,0.0001658329856581
3.2064404296875,-0.0042557942809537,-0.0041897889731917,0.0356482364863157,-0.0013405922800302,0.0009588878601789,0.0003999516484327
3.2164208984375,0.0031781185794621,-0.0045864053416531,0.043728667089343,-0.0005182080785743,0.0011426461860537,-0.0006983359344303
3.226400634765625,-0.0027886808704584,0.0024884101490955,0.0537561401069164,0.0006842266302555,-0.0002353023737668,0.0003489620867185
3.236380615234375,0.0046363545637577,0.0004028999787755,0.0413379725605249,0.0011036744108423,-3.31681221723e-05,0.000378256838303
3.246360595703125,-0.0038638540876097,0.0013879837596789,0.0420873296231031,-0.0008792647277005,-6.27879053354e-05,-0.0016435059951618
3.256339599609375,0.0048453394056297,0.0058426159478258,0.0393950217992067,4.93795378133e-05,-0.0004508104175329,0.0020934415515512
3.266319580078125,0.0029358890551142,-0.0036777660641353,0.041790977025032,-0.0015899928985163,0.0008678911253809,0.002328272210434
3.276299560546875,-0.0008385149170644,0.0014050536254886,0.0361041635602712,0.0004670327762141,0.0006071683019399,0.0012797855306416
3.286279296875,0.0024876703635789,-0.0023813878443557,0.0396919589191675,-1.44665827974e-05,0.0012335320934653,-0.0003081198956351
3.296259765625,0.0046232210875488,-0.0046793534552678,0.0470253705471754,0.0007282890146598,-0.0011444045230746,0.0006112033152021
3.30623974609375,-0.008602609579917,0.001785221182648,0.0381938293159008,0.0016811650712043,0.0023436369374394,-0.0003061193274334
3.316219482421875,-0.003383943349868,0.001627336340351,0.0416337406367063,0.0020585351157933,-0.0004689274355769,-0.0024321207311004
3.326199462890625,0.0011265928771346,0.0004510408362839,0.0414823494672775,0.0014461715472862,-0.001893188804388,0.0020617451518774
3.336179443359375,-0.0107535405361093,-0.001706721719494,0.0402834950715303,-0.0021786568686366,-0.0015807999297976,-0.0001486786350142
3.34615966796875,-0.0039161322641186,0.0024474296847358,0.0494090508133173,0.0012799144024029,0.0013383701443672,0.0010750694200396
3.3561396484375,0.0005564100400544,-0.0025372451263479,0.0429746338516473,0.000989097286947,-4.9402937293e-05,-0.0005068482714705
3.36611962890625,0.0054896834574639,0.0104422734966967,0.0437245754361152,-0.0016750398790463,-0.0005989726632833,-0.0001593491469975
3.376099609375,0.0066578687203116,-0.0032585816708393,0.0510591561079025,-0.0013852879637852,-0.0017696982249617,-0.0020419377833604
3.38607958984375,-0.0058627180209383,-0.005825893141888,0.0449234298318624,0.0006689375732094,0.0015854937955737,0.0012728193541988
3.3960595703125,0.0008249065168201,0.0019478095995262,0.0470177717626094,-0.0002091065980494,0.0001231515780091,-0.0007352042011916
3.40603955078125,-0.0045865788715891,0.0105363541214726,0.0452238740831613,-0.0023586465977132,-0.0014267563819885,-0.0009634247981011
3.416019287109375,-0.0001699497394263,0.0095386483210138,0.0390899013727903,0.0033975096885114,0.0001706071197986,0.0005444569978863
3.42599951171875,-0.0033662067637778,0.0038976467593573,0.0423801750898361,-0.0015222878428176,0.0015568099915981,3.02378684864e-05
3.435979736328125,0.0049394291635602,0.0002185746541246,0.0411824897378683,-0.000347567431163,-0.0009987587109208,-9.81264893198e-05
3.445959716796875,-0.0056832150018773,-0.0039740090643521,0.0262187293618917,0.0002559202257543,-0.0001976462081074,0.0006849720957688
3.455939453125,0.0039990247745998,-0.0028362920050043,0.0422281993985176,-0.0001933550229296,0.0015467246994376,0.0017494375351816
3.46591943359375,-0.0003681939915753,-0.0024238752792123,0.0574912349820137,-0.0003117382293567,7.217749953269958e-07,-0.0010350587544962
3.475899658203125,0.0001629902756772,-0.0027076515235006,0.0519558126866817,-0.0014672838151454,-0.0016395188868045,-0.0005591517547145
3.485879638671875,-0.0019949366768822,0.0040155101185198,0.0525567011892795,0.000434607383795,-0.0009939316660165,-0.0010989555157721
3.495859619140625,-0.0033144217776134,0.0033489907674957,0.0543535214781761,-0.0032016728073358,-0.0009643705561757,-0.0007937572663649
3.505839599609375,0.0005271108803339,-0.0123333022745326,0.0468763174653053,-0.0020171701908111,0.0008774865418672,6.90662418492e-05
3.5158193359375,0.0049922370630316,-0.0018471257040277,0.0402916783779859,0.0003647611010819,-0.0015625013038516,0.000645107938908
3.525799560546875,-0.0076397010982036,0.0021533969079144,0.0498743302375078,0.00122990924865,-0.0015562353655695,-0.0005044633289799
3.535779541015625,0.0041300855420529,0.0049360498963855,0.0549631778091192,0.002061880659312,0.0013474095612764,-0.0023292615078389
3.545759521484375,-0.0031705197948962,0.0027645054104272,0.0488280360549688,-0.0012264549732208,-0.0005256552249193,-0.0022119742352515
3.555739501953125,-0.0007536313788965,-0.008468306542607,0.0474818821430206,0.001851360197179,-0.000845500268042,-0.0018961232854053
3.5657197265625,-0.0017780059905722,-0.0002850822853855,0.0444885455459356,0.0021025077439844,0.0007704384624958,0.0013773072278127
3.57569970703125,-0.0033136180600151,0.0060697392345871,0.0426911407351493,-0.0014703890774399,0.0009110532701015,0.0015850338386371
3.585679443359375,0.0053913559158332,-5.19219834823e-05,0.0398486107856035,0.0016996660269796,-0.0013489406555891,0.0002699063916224
3.595659423828125,0.0009854856397025,-0.0007164868394378,0.0383528192698955,-0.001972832949832,-0.0017042057588696,-0.0004968176945112
3.605639404296875,-0.0031943938608281,0.0049659061785321,0.0385059640049934,0.0009975063148885,0.0008772471919655,0.0009788714814931
3.615619873046875,-0.0029416064098477,0.0047089357427787,0.0446411057591438,-0.0005290175322443,-7.6962634921e-05,0.0005485046422109
3.625599609375,-0.0093161281441338,0.0018732830585911,0.0443429995954036,-0.0001273974776268,-0.0016283709555864,0.0007568690925836
3.63557958984375,0.0020058233970776,-0.0018105108875315,0.0521259085565805,-0.00126217037905,-0.0004709614440798,0.0001272978261113
3.6455595703125,-0.0079016399700194,-0.0016990498696919,0.0400035090863704,0.0010337841231375,-0.0015404475852847,0.0004762876196764
3.65553955078125,-0.005091167392861,-0.0032980734310112,0.0432943673253059,-0.0007097874186001,-0.0008506886661052,0.00143209611997
3.66551953125,-0.0017364501374773,-0.0084774579634424,0.0317746099233627,0.0010634645586833,-0.0010112272575497,-0.0002594373363535
3.67549951171875,-0.0021231661664322,0.002467248630058,0.0426993240416049,0.0010405612410977,-0.0009414525702595,0.0012598960893228
3.685479736328125,-0.0008324322361499,-0.001739272282226,0.0504775568276643,0.0011367489350959,0.0033536311239004,0.0004315387341193
3.69545947265625,0.0018038345515727,-0.0012408212407957,0.0464355879604816,0.0037541035562753,-0.0003500273451209,-0.0005615540430881
3.705439697265625,-0.0028729250878095,-0.0002514266109559,0.0394008670181035,-0.0022789016366004,0.0024588303640484,0.0016688606701791
3.715419677734375,0.0048860550085082,-0.0026122100587002,0.0412006099164485,4.25759935751e-05,-0.0020554941147565,0.0024904459714889
3.7253994140625,0.0059339748925529,0.0018329784476663,0.0459878441929817,0.0006251595914363,-0.0005366317927837,0.000891252188012
3.73537939453125,0.0040346075446344,-0.0028591340244747,0.0441921929478645,-0.0016036399174481,-0.0028192270547151,-0.0002147586201317
3.74535986328125,0.0012973463341593,0.0065124415007885,0.0447919124066829,0.0004643874708563,-0.0018426086753606,0.0003040903538931
3.755338623046875,0.0066855056459084,0.0060571080818772,0.0388064082562923,-0.000134024885483,-0.00096882507205,-0.0002844682603608
3.765318603515625,6.74026804044e-05,-0.0057808940895367,0.0407546197146177,-0.0021728530991822,-0.0016604689881205,6.62674719933e-05
3.775298583984375,-0.0013299882284365,-0.0067809562438633,0.0522767152041196,-0.0001139632659032,-0.0008580582216382,0.0006665439577773
3.785278564453125,0.0067603427140973,-0.0026775486461818,0.0492851321727037,-7.89785408414e-05,-0.0014042863622307,0.0003433423116803
3.795258544921875,0.0025441680574789,-0.0030996556489262,0.0522784687697887,-0.0005871096509508,0.0019028270617127,0.0016600091475993
3.805238525390625,0.0053382192227989,-0.002282366182981,0.0459936894118785,-0.0007567747961729,-0.001531939022243,0.0012040948495268
3.81521826171875,-0.0012160429925657,0.0017261753386352,0.0477899251788854,-0.0012459974968805,-0.0004943711683154,-0.0003368101315572
3.82519873046875,0.0001205576397478,0.0036936942856293,0.0427022466510534,0.0007049569394439,-0.0006482861936092,0.0017930429894477
3.8351787109375,0.000603390986938,0.0043195984984748,0.0462906265318393,0.0010045624803751,0.0038487268611788,-1.44444493344e-05
3.84515869140625,0.0003189662886783,-0.0028875290018972,0.0447901588410139,0.0024388199672102,0.0011808844283223,-0.000112966139568
3.855138427734375,-0.0024867753144353,-0.0038023788244929,0.0386556016087532,-3.49903712049e-05,0.0008394671604037,-2.9775692382e-06
3.865118408203125,0.0021180515998974,-0.0056657250109594,0.0461392353624105,0.000279523897916,-0.0033659422770142,-0.0010344635229557
3.8750986328125,-0.0019889453275129,-0.0010144925384782,0.0379074135899543,-0.0016339573776349,0.0031414916738867,-0.0004381818289402
3.88507861328125,0.0057463798985816,0.0026800602636765,0.0492763643443584,0.0003569369437173,0.0003076726570725,0.0001456303725717
3.89505859375,0.0009194346661679,-0.0044437637342605,0.0446375986278057,0.0001398893073201,0.0003036772832274,0.0013618960510939
3.90503857421875,0.003642813481763,0.0025988208541646,0.055114568978548,-0.0002647548099048,8.80053266882e-05,0.0025615277700126
3.915018798828125,0.0035180363246239,-0.0022805486852303,0.0545160185635089,0.0002345879329368,-0.0007213298231363,0.0013580452650785
3.92499853515625,-0.0068367506848648,0.0038107813266571,0.0422451505333185,6.3951476477e-05,0.0016399472951889,0.0006839133566245
3.934978515625,0.002264182072319,-0.003999618429644,0.0486795674949884,3.0661933124e-05,0.0006969217211008,-0.0012703143293038
3.94495849609375,0.0021159875069744,0.0025566713460255,0.0274327813267707,0.0025806394405663,-0.0028387056663632,0.0006486864876933
3.9549384765625,-0.0022125980155542,0.0011869264959357,0.0483826303750276,-0.002168842125684,-0.0009222952648997,0.001392773585394
3.964918701171875,0.0007109795472584,-0.0064408284361474,0.0501771125763654,-0.0003861049190163,0.0014047529548406,-0.0015996231231838
3.974898681640625,-0.000474814437516,-0.005326473986078,0.0437386039614677,0.0018775820499286,0.0005682539194822,0.0004566035931929
3.98487841796875,-0.0065953796770423,0.0047711142587941,0.0392494758486747,0.001205786014907,0.0008665779605507,0.0011845944682136
3.994856689453125,-0.0067447615524753,0.0046227096308954,0.0392477222830057,-0.0032153278589248,0.0020021498203277,-0.0014790992718189
4.00483642578125,0.0022037023230455,0.003613907047687,0.0244341840326786,0.00032903929241,7.35614448785e-05,0.0005892679328098
4.01481640625,-0.0074898808313533,-0.0005440072162076,0.045233810955286,0.0003098645247519,-0.0004907632246613,0.0014380173524841
4.024796630859375,0.0067902629283256,-0.0022020857546944,0.0485240846723318,-0.0024157720617949,-0.0001879017800092,-0.0002027944719884
4.034776611328125,0.0075161660500802,-0.0052093504124321,0.0513654455780982,0.001271907123737,0.0017535425722599,-0.0005599244032055
4.044756591796875,-0.0013955094790086,0.002249103234196,0.0416407548993825,-0.0012536807917058,-0.0004217764362692,-0.0001306373160332
4.054736572265625,0.0049908853561617,0.0005912347582634,0.0452361490428447,-0.0021202734205871,0.0011116713285446,-0.0001460836501792
4.064716552734375,-0.0051931299299933,-0.0028434249986894,0.0530167199164628,-0.0013228503521531,0.0005861530080437,0.0008086905581876
4.074696533203125,-0.0003565400863997,-0.0050303040510974,0.0458346994578838,0.0012553558917716,0.0007765684276819,0.0031003404874354
4.084676513671875,-0.0066238203202374,4.5410044305e-05,0.0379027374148368,-0.0001566921710036,-0.0021799067035317,0.0027762749232351
4.094656494140625,0.0014445910514332,0.0041518589824438,0.0362590618610382,0.0013107095146551,0.0011208150535821,0.0023965081200003
4.10463671875,-0.004645451185666,0.0028844328625127,0.0471796843260526,0.0014138126280158,0.0002282718196511,0.0011887605069205
4.11461669921875,0.0023381788902916,0.0040949137639719,0.0528647442251443,0.000959743745625,0.0004328023642301,0.0017906349385157
4.1245966796875,-0.0012845781841315,-0.0014083050285,0.054362873828411,-0.0023723444901406,-0.0011375695466995,-0.0012475200928747
4.13457666015625,0.0045883141709491,0.0103522845251485,0.0452367335647344,0.0007616634247824,0.0015146723017096,3.95856186514e-05
4.144556396484375,0.0022164704730734,0.0064923759602941,0.0471790998041629,0.0018735541962087,2.55703926086e-05,0.001173254684545
4.154536376953125,0.0023243512943387,0.001075081885606,0.0482242249429225,0.0014620958827435,-0.0013659307733178,0.0012994884746149
4.1645166015625,0.0013976831697858,-0.0031032815112732,0.0343102658808231,-0.0007028148975223,0.0003492636606097,0.0007921089418232
4.17449658203125,-0.0023363157267682,-0.0008287607080303,0.0531628503888845,0.001496157143265,0.000805196352303,0.0010214070789515
4.1844765625,-0.0008928754528053,-0.0008949760783463,0.054655719295144,-0.0020231972448527,0.000315997749567,-0.0001534374896436
4.194461181640625,0.0057486449209041,0.0012042520900722,0.0381932447940111,0.0013230649055913,0.0019019106402993,0.0003799936675932
4.20444091796875,0.0061416993591003,0.00102535185921,0.0325046777635812,-0.0004290550132282,0.0010301796719431,0.001265644095838
4.214421142578125,0.0036274697821587,0.0047950157241895,0.0509118565917015,0.0013978735078126,0.0005159229040145,-0.0005940411938354
4.2244013671875,-0.008797383233346,-0.0054692708570975,0.0471703319758176,-0.0009095979621633,-0.0010355059057474,0.0020851665176451
4.23438134765625,-0.0013716902120038,-0.0040048517271876,0.0350520241588354,-0.0005071943160146,-0.0003484105691313,0.0004217559471726
4.244361083984375,0.0025890301125124,-0.0066255008206702,0.0335579862087965,-0.0008246349170804,0.0008247047662734,-0.0013062066864222
4.254341064453125,-0.0015869403978809,-0.0044611989262513,0.0504682044774293,-0.0019221235997974,-1.92513689398e-05,0.0006408302579075
4.2643212890625,-0.0023666195334866,0.007265534023568,0.045977907320857,0.001790951588191,-0.000312858261168,0.0002365529944654
4.274301025390625,0.0025637312744744,-0.0007604812447912,0.0431342083275318,-1.76010653376e-05,0.0013912981376051,3.84138111257e-05
4.28428125,0.0054177872650325,0.006211430993909,0.0524094016730785,-0.0026879380457103,0.0003160294145345,-0.0022587047424167
4.29426123046875,0.0046328656987287,0.0022741189444437,0.0422334600955247,0.0019587452989071,0.0021208534017205,0.0003381436399649
4.304240966796875,0.0013995098006911,-0.0032176560054067,0.0399865579515695,-0.0004019303596578,0.0008785361424088,-0.002543487586081
4.31422119140625,-0.0024663170482963,-0.0032495763804763,0.0405862774103879,-0.0012626640964299,-3.19983810186e-05,-0.000712830631528
4.324201171875,-0.0013606938939541,0.0010060900363139,0.0458253471076488,-0.0004289146745577,0.0005131103098392,-0.0007369377417489
4.33418115234375,0.0036830541606061,0.0063070551217999,0.0453746807307004,-0.0003543461789377,-0.0018563037738204,-0.0034078222233802
4.344160888671875,-0.0022057481496594,-0.0029162162402644,0.0464256510883569,-0.0017146544996649,-0.0016454737633466,-0.0005847061402164
4.354141357421875,-0.0051897323965094,0.0086008377479389,0.0416354942023754,0.0002720637712627,0.0024206405505537,0.0005444741109386
4.364121337890625,-0.0020464842010289,0.0006552307720296,0.0352016617625951,-0.0008905694121494,-0.0009514484554529,0.0014687806833535
4.37410107421875,-0.0046098684156313,-0.0089534597110468,0.039092239460349,-0.0016453091520816,-5.68926334381e-05,0.0017279062885791
4.3840810546875,-0.0048541255002841,0.0021401629670057,0.0458247625857591,-0.0003720085369423,-3.85753810405e-05,0.0003964212955906
4.394060302734375,-0.0004159969223663,0.0046305002117063,0.0371487041771411,0.0005917894886806,-0.0017326120287179,0.000952755624894
4.4040400390625,-0.005853950192593,-0.0041305513329338,0.0422363827049732,-0.0015701076481491,0.0007987394928932,-0.0001690458157099
4.41402001953125,-0.0028572891272604,0.001528223347431,0.0361012409508228,-0.0001578333904035,0.0002250941470265,-0.0009504173067398
4.424,0.0091193999956361,-0.0012398987921886,0.0414876101642847,0.0020689917728304,-0.000598763115704,0.0001049578859237
4.43398046875,0.0018627616645768,0.0011841226174961,0.0500181226223707,-0.0007398440502583,-0.0014357948675751,-0.0025321042630821
4.443960205078125,0.0014669124810956,0.0022038210540544,0.0522644402444362,0.0001027813414111,0.0007259063422679,0.0007291786605492
4.453940185546875,0.0020207469715736,0.0019448413243051,0.0543593666970729,-0.0020929949823766,-0.0004568034783005,-0.0019259930122643
4.463920166015625,0.0019625505109317,0.0019998137813992,0.0426893871694803,-0.0004458721377886,-0.0008179191499948,-0.0024661580100655
4.473900146484375,0.001919661217276,0.0009763616183307,0.0362549702078104,-0.0005571922520175,0.0008380338549613,0.0017376418691128
4.483880126953125,-0.0025017536878585,-0.001883101199707,0.0483773696780204,-0.0014349878765642,-0.0002255113795399,0.0016773543320596
4.4938603515625,0.0050116724158637,-0.0035158717670012,0.0516664743512868,-0.0007396365981549,0.0005534635856747,-0.0002411869936622
4.503840087890625,0.0060165386094711,-0.0030142697872593,0.0485258382380008,-0.0021859416738152,-0.0031149620190262,-0.0008200028678402
4.513820068359375,-0.0032131716265343,-0.0065905391051433,0.033262218132615,-0.0014357292093336,0.000595886260271,0.0001520509104011
4.52380029296875,-0.0025673480036668,0.0049257476980797,0.0429863242894411,0.0009566684020683,0.0001536849886178,0.0003381691058166
4.5337802734375,0.0060775846143253,0.0012035305708646,0.0340057299762964,0.0022048922255635,-0.0009121121838688,0.0002636006101965
4.543760009765625,0.0030245902518741,-0.0053834100713953,0.0417839627623558,0.0003915567649528,0.0018773740157485,0.0021667694672942
4.553739990234375,0.0060246488506905,0.0041470184105448,0.0410334366559982,0.0005212526302784,-0.0007761996239423,0.0007672783685848
4.56372021484375,0.0044408319916576,-0.0039518154988531,0.0518120203018188,-0.0002581822918727,-0.0015117265284061,0.0015207886463031
4.5737001953125,0.0076955412049777,-0.0034098723755683,0.0413403106480836,-0.0002286211820319,-0.0040329406037926,-0.0003090693498961
4.58368017578125,0.0079529317658394,0.0037294323192909,0.0453816949933767,0.0022169414442032,-0.0002033319324254,-0.0013778379652649
4.59366015625,0.0022326544228941,0.0014130360025446,0.0563052400678396,-0.0047717257402837,0.000226235948503,0.0017132931388914
4.603639892578125,-0.0080248279582709,-0.000579653918324,0.0389507851630449,-0.0006935213459655,0.0008215028792619,-8.11287463875e-05
4.6136201171875,0.002269716763962,-0.0008730291080195,0.0376034622073173,0.0026178532280027,0.0019288444891571,0.0002355211036046
4.623600341796875,-0.0008209609940648,0.0007907850515097,0.0503185668736696,0.0005934124346822,-0.000310530886054,0.0016401385655626
4.633580322265625,0.003256389713753,-0.0019905710290186,0.0441840096414089,-0.0002486790763214,6.92354515194e-05,0.0006481109885498
4.64356005859375,0.0031060214576311,-0.0004290847328025,0.0370002356171607,0.0009609623812139,-0.0013018026947975,0.0016700167907401
4.6535400390625,0.0008651106630451,-0.0039472671878989,0.0329629429250955,-6.46209227852e-05,-0.0009638480842113,0.0017107632011175
4.663520263671875,0.0007075272148475,0.0050128505927976,0.0455307480752468,0.000535859260708,0.0016856044530868,-0.0003965775249525
4.6735,0.0041962095808237,0.0007034812273923,0.0408925668805837,0.0011601041769608,-0.0013788947835564,0.0003858591953758
4.68347998046875,0.0068207128655165,0.0035533268337137,0.0462795206159353,-0.0021499036811292,-0.000842222943902,-0.0001661309070186
4.693460205078125,0.0004666859299875,-0.0025107955108396,0.0491284803062677,0.0024134228006005,-0.0040958072058856,0.0008357502520084
4.7034404296875,0.0039503633272834,0.0001613463078625,0.0452425787836313,-0.0005354428431019,-0.0030895955860614,0.000236413325183
4.713420166015625,-0.0024393011772073,-0.0032838165767956,0.0486836591482162,0.0019261169945821,0.0002579977735877,0.0004268293560016
4.723400146484375,0.0015766747321933,0.0023945943858008,0.0437450337022542,-0.0006198995979502,-0.001494619064033,-0.0005429948214441
4.733380126953125,0.0055813620625995,-0.0029310758826788,0.039853286960721,-0.0001330737723037,0.0012795962393283,-0.001553664333187
4.743360107421875,0.0035431342332623,0.0054440450842957,0.0347632703453302,0.0004194232169538,0.0008394373580813,-9.05146589502e-05
4.753339111328125,-0.00078499463154,0.0030436694116797,0.0395475820124149,0.001135547296144,0.0005467562004923,0.0016714327502995
4.7633193359375,0.0010313706080429,0.003847323077917,0.0416419239431619,-0.0009362232522107,0.0013241628184914,0.0005918047390878
4.773299072265625,0.0065301324211061,0.0009762520204763,0.0447790529251098,0.0011197371641173,0.0021382914856076,-0.0018812066409736
4.783279296875,0.0051983540943823,0.0080341711753513,0.04507715908885,-0.0033168108202517,-0.0006216438487172,-0.0007372576510533
4.79325927734375,-0.0007848667673766,0.0021714257549494,0.0483726935029029,-0.0010467324173077,-0.0008360287174582,0.0011938004754483
4.803239013671875,0.0025367702023126,-0.0014407825259957,0.0569026214390993,-0.0009891284862533,-0.000884267501533,0.0002164679754059
4.813218994140625,0.0056831784692592,-0.0012933916782494,0.0503185668736696,-0.0013473236467689,0.0010353382676839,-0.0036440503317862
4.82319921875,0.0040317762667313,-0.0011470876758918,0.0482207178115844,8.488423191e-06,0.002452827990055,0.0007053718436509
4.833179443359375,-0.00457441350976,0.0024122944392729,0.0440291113406419,0.0004388552624732,-0.0013664113357663,-0.0022581939119845
4.8431591796875,0.011446235508006,0.0062786144786048,0.0407423447549343,-0.0001826341613195,-0.0012199813500046,-0.0002532832149881
4.85313916015625,0.009248615865875,0.0003631981560494,0.0440349565595388,0.000812589074485,-0.000932359136641,0.0003227585111744
4.863119140625,-0.0013178411329165,0.0021305822879076,0.0387958868622779,-0.0012631097342818,0.0003774352371692,0.0014987743925303
4.87309912109375,-0.0008143485901877,0.0057539969494566,0.0368529361009597,-0.0004268772318027,4.82685863971e-05,-0.0005199016304686
4.8830791015625,0.0061496452035382,0.0012638276570476,0.0497217700242996,-0.0010238074464723,0.0018967650830745,0.000339013262419
4.893059326171875,-0.0045495347968302,-0.0025173531157895,0.0480780944705009,-0.0013953184243291,-0.0001341616734862,0.0009704487747512
4.9030390625,-0.0068574098804034,-0.00043636385696,0.038504794961214,-0.0037017718423157,-0.0008781719952821,-7.8897413914e-05
4.913019287109375,0.000312280819565,-0.0014016926246229,0.0425485173940658,6.66010892018e-05,-0.000317576341331,0.0007352309767156
4.922999267578125,0.0069814563851803,0.0039158582694828,0.0456885689854621,0.0003633919404819,0.0003759190440177,-0.000157261165441
4.932979248046875,0.0056772784514352,-0.0008944828880019,0.0388052392125129,-0.0010606003925204,-0.0008185086771845,0.0014638049760833
4.942958984375,-0.0020079605552367,0.0035855760023463,0.0391033453762531,0.0003215447068214,-0.0009639570489525,0.0005578363779932
4.95293896484375,-0.0042301849156618,0.0037321539993397,0.0356634340554475,0.0011639025760814,-0.0006374539807438,-0.000593448174186
4.96291943359375,0.003478909890633,0.0016043390572536,0.0441916084259748,-6.94158370606e-05,0.0020714690908789,-0.0005996783729642
4.972899169921875,0.0041377025929279,-3.04134045727e-05,0.0497281997650861,0.000257353996858,0.0007718466222286,0.0014192641247063
4.982879150390625,-0.001949837159831,-0.0031693598842713,0.0471849450230598,0.000363425235264,0.0008410830050706,-0.0023245036136358
4.992859130859375,0.0027054778327234,-0.0003339172626379,0.0397036493569612,0.0010161660611629,-0.0019483119249343,-0.000693051260896
5.002839111328125,-4.66704196296e-05,-0.0105767957297153,0.0377595295518636,0.0023464607074856,-0.0010465076193213,0.0026746036019176
5.012819091796875,-0.0015153364663943,0.0016972780377138,0.044940965488553,0.0013320627622306,-0.0019924631342291,-0.0023654287215322
5.02279931640625,-0.0062425841839984,0.0025643705952912,0.0422474886208772,0.0031479322351515,0.0017599342390894,-0.0008636057609692
5.032779296875,-0.0010096519665792,0.0058314552329946,0.0437438646584749,-0.0010209800675511,0.0021945619955658,-0.0015973066911101
5.042759033203125,0.0054312130021862,-0.0042683158358093,0.0491255576968193,-0.0016541139921173,0.0019370848312973,0.0016140760853886
5.0527392578125,-0.0054381541996262,-0.0013020407755859,0.0417915615469217,-0.0015193580184131,0.0002550324425101,0.0005916885565966
5.06271923828125,-0.0011925890517421,0.000600806304207,0.0395487510561943,0.0006144922226667,0.0002151718363165,0.0001167666632682
5.072698974609375,0.0085145477039739,0.0009173157743178,0.0337140535533428,-0.0003346584271639,-0.0008207978680729,0.000937552889809
5.082678955078125,0.0041670200189575,0.0004454056799411,0.0420937593638896,-0.001633174251765,-0.0004247007891535,-0.0001935006293933
5.0926591796875,-0.0030403906092047,-0.0025047493625432,0.0374555781692266,-0.0034478520974516,0.0006962241604924,0.0004531148588284
5.10263818359375,0.0052623957739211,-0.0043581495437305,0.0446399367153644,0.00066916749347,-0.0008829087018966,-0.0004906093236058
5.1126181640625,-0.0001134337792173,-0.0044971196230035,0.0453887092560529,-0.0002624062472023,-0.0014941040426492,0.0002446894359309
5.12259814453125,0.0003011383710429,0.0051332986346911,0.0374561626911163,-0.0015813384670764,-1.40769407153e-05,0.0015321169048547
5.132578125,-0.0007031798332929,0.0067875412482768,0.0411982718288898,0.0008264255011454,-0.0003831908106803,0.0016002937918528
5.14255810546875,0.0060399742839857,0.0048861463400535,0.045088265004754,0.0006791022606194,-0.0022857682779431,-0.0005816908087581
5.1525380859375,0.0015580065643414,-0.0005828870550263,0.0344622415721416,8.175522089e-05,-0.0006388695910573,0.0003988851094618
5.16251806640625,0.0063424460955895,0.0003899400325026,0.0467331096023321,-1.16894952952e-05,0.0007699839770793,-0.0001502584782429
5.172498291015625,-0.0027480748654343,0.0105355230044107,0.0462853658348321,-0.0004138268413953,7.62306153774e-05,-0.0010581300593912
5.182478271484375,-0.0071275685912929,-0.0040647560877259,0.0316238032758235,-0.0009158096509054,-0.0011756895110011,0.0002244942443212
5.192458251953125,-0.0017837964105419,0.0018662413964513,0.0468868388593196,0.0009065914200618,0.0007638912647962,-0.0004671286733355
5.202433837890625,0.0063830521006137,-0.0071871258919592,0.0527203673183917,-0.0002167134080082,-0.0012888964265584,-0.0005107588367536
5.212413818359375,-0.0010750088203698,0.0004919939011801,0.0449392119228839,1.52479624375e-05,0.000639765523374,-0.001271623885259
5.222393798828125,-0.0019537096173502,0.0059082741957157,0.0536181929409503,-1.5526311472e-06,0.0009381994605064,-0.0009898047428578
5.232373779296875,0.0009148498225957,0.0062359991795849,0.0431406380683183,-0.0026258314028382,0.0010519158095121,0.0025415467098355
5.242353759765625,0.0012678097124211,0.0037372229001019,0.0405962142825126,-0.000405206112191,0.0020684134215116,-0.0011261987965554
5.252333984375,-0.0040502983041107,-0.0059094706389587,0.0378998148053884,0.0001511282753199,-0.0002477383241057,1.73625485331e-05
5.26231396484375,0.0042572373193688,-0.0015201587719842,0.0461328056216239,-0.0015331248287111,0.0014678556472063,0.0007361919269897
5.2722939453125,-0.0019551343894563,0.0058123486737255,0.0449357047915458,-0.0022436561994254,-0.001237116754055,0.0003537620068527
5.282273681640625,0.0038748504056595,0.0011958130552899,0.0452361490428447,-0.0008622437599115,0.0005275961011648,0.000665245228447
5.292253662109375,0.001348857325688,-0.0005180233915802,0.0423942036151885,5.52152050659e-05,-0.0009520566090941,-0.0002615348203107
5.30223388671875,-9.21717954799e-05,0.0027464765633922,0.0377566069424152,-0.0024515090044587,-0.0012520607560873,-0.0011969710467383
5.3122138671875,0.0033620055126957,0.0021215221986174,0.043443420407176,0.0016388401854783,0.0011232122778892,-0.0014049640158191
5.32219384765625,0.0021713526897132,-0.0002554908647201,0.0485328525006771,-0.0035393997095525,0.0010054213926196,0.0006249310681596
5.332173828125,0.0050199653201736,-0.0003491696306969,0.041800329375267,-0.0008368239505216,-0.0002928702160716,0.0018824758008122
5.34215380859375,0.0005074745981022,-0.0015626188073772,0.0443435841172933,-0.0014289888786152,0.0006640749052166,-0.0023692771792411
5.3521337890625,0.0004659004786983,-0.000823289948469,0.0432955363690853,0.0020469690207391,-0.0001404657959938,0.0021644881926476
5.36211376953125,-0.0057257755019702,-3.13267200253e-05,0.033866613766551,-0.001836737152189,-0.0006504757329821,-0.0024977764114737
5.372093994140625,0.0021139051477424,-0.0052837490892037,0.0483826303750276,0.0002003147965297,0.0002209106460213,-0.0002660473983269
5.38207373046875,0.0064090633247047,0.0012936474065762,0.0519733483433723,-0.0012947437353432,-0.0008800197392702,0.0002786576224025
5.392053955078125,0.0039482992343604,0.006412972314842,0.0452408252179622,-0.001609263010323,0.0005844524130225,0.001095715444535
5.402033935546875,-0.0013999481921084,0.0019822781247086,0.0452425787836313,-0.0012834563385695,-0.0018284982070326,-0.0010363592300564
5.412013671875,-0.0008708828167058,0.0010881970955058,0.0459895977586507,-0.0009319191449321,0.0016610417515039,-0.0005591207882389
5.421992919921875,5.94020370393e-05,0.0009897051570937,0.0386526789993047,2.32064630836e-05,-0.0004716627299785,0.0002904597786255
5.431972900390625,-0.0045133309722878,0.0031355946119874,0.0397007267475128,0.0019388183718547,-0.0003358414396643,0.0001762101892381
5.44195263671875,0.0089530304527841,0.0016591471175663,0.0382043507099151,-0.0017148116603493,0.0011299541220068,0.0001399272296112
5.451932861328125,0.0055668768795207,0.0051802704484201,0.0349094008177518,0.0014812480658292,0.0009768223389983,-0.0003610133717302
5.461912841796875,-0.0045520738137885,-0.0036899405591189,0.0440355410814285,-0.0009139187750406,0.0010224543511867,0.0033013662323355
5.471892822265625,-0.0007267981708981,0.0018573091713245,0.0429869088113307,0.002103176433593,0.0010999524965882,-0.0020752898417413
5.481872802734375,0.0038572051511146,0.002060558392154,0.0432891066282987,-0.0021190708503127,-0.0038951681926846,0.0014227184001356
5.491852783203125,0.0071603018171153,0.0010156067833304,0.0373071096092462,-0.0003163771471008,-0.0006325291469693,-0.0003514795098453
5.50183251953125,0.0061677105831913,0.0039100587163586,0.0452384871304035,0.0022023392375558,-0.0021224301308393,-0.0001552707690279
5.511812744140625,-0.0093904720219783,0.0067883358327206,0.056015317210555,-0.001025145757012,-0.0002915067598223,-0.000283102504909
5.52179296875,0.0044167752626352,-0.0065567190339323,0.0477846644818782,0.0009105374338105,-0.0019877301529049,-0.0008533941581845
5.53177294921875,-0.0022851883277297,0.0034437107130885,0.0464408486574888,-0.0020839208737015,-0.0001538777723908,0.0006286550778895
5.541752685546875,-0.0017985007893294,0.0003101253950968,0.0482370844244956,-0.0011141879949718,0.0003443099558353,0.0002746136160567
5.55173291015625,-0.0020325287409126,-0.0049000378680881,0.0419546431541442,-0.0009024667087942,-0.0008024470880627,0.0009824818698689
5.561712890625,0.0028314422999508,-0.0050355008160229,0.0446498735874891,0.0002836538478732,-0.0012848135083913,0.0015901798615232
5.571692626953125,0.0047058944023214,-0.0096890348434448,0.0471925438076257,-0.0005858682561665,0.0016513215377926,0.0001667203468969
5.5816728515625,-0.0008211253908462,0.002407837459864,0.0413566772609949,0.0028399203438311,-0.0009249690920114,0.0014308548998087
5.59165283203125,0.0040103498862124,-0.0035954580755438,0.0549736992031335,6.5832864493e-06,0.0001759817823767,0.0001874250592663
5.601633056640625,0.0118657760943286,-0.0025810112028382,0.0458393756330013,-0.0017779041081666,0.001049730926752,0.0013860053149983
5.61161279296875,0.0017512641141191,0.0005522453215904,0.0388093308657407,-0.0012817571405321,-0.0008363202214241,-0.0004739463620353
5.6215927734375,-0.0022020035563036,-0.000440336779179,0.0415028077334165,-0.0024785711430013,0.0011745765805244,-0.0001759305305313
5.63157275390625,0.0058994333021342,-6.10186053905e-05,0.0492816250413656,-0.0007416575681418,0.0019705947488546,-0.0013935277238488
5.641552734375,-0.003916260128282,0.0069975581366103,0.0426987395197153,-0.0011427965946495,-0.0022463919594883,0.0009891813388094
5.651532958984375,0.0070517451424151,0.0005503090928308,0.0461415734499692,-0.0011153660016134,-0.0006937682628631,-0.0006214984459802
5.661512939453125,-0.0018847725669853,0.0062363371063023,0.0533265165179967,-0.0005888066953048,-0.000413367524743,0.0002194719563703
5.671492919921875,0.0085417279718443,0.0019652356583625,0.0597591799139976,-0.0002425957354716,-1.44261866807e-05,0.0016983252717182
5.68147265625,0.0049055086276493,-0.001594922774937,0.0519768554747104,-0.0004792456747964,0.0001618769019842,-0.0001242976577486
5.691452880859375,-0.005842862542998,0.0079307016677223,0.0479378092169761,0.001290424959734,-0.0002810060977935,-0.0020380453206598
5.701432861328125,0.0049737332919612,0.0036174233121797,0.0515296962291002,-5.52901765331e-05,0.0004480797797441,0.0011973126092925
5.711412841796875,-0.0066813409274443,-0.0014745751977432,0.0485340215444564,-0.0011301420163363,0.0006779106333851,0.0020713622216135
5.72139208984375,-0.0053304925740696,0.0002042721341364,0.0358148252248764,0.0013569362927228,-0.0004756329581141,-0.0002465769066475
5.7313720703125,-0.0022376411252655,-0.0081932433277368,0.0407516971051692,-0.0004233869258314,0.0004327706992626,0.0002514342195354
5.741351806640625,-0.005465444065351,0.0061493346762843,0.0346183089166879,3.79686243832e-05,-0.0019597150385379,-0.0001467754773329
5.751331787109375,-0.0009067030487582,0.0033032793290913,0.0416541989028453,-0.0012488707434386,-0.002098998054862,0.0022428787779062
5.761311767578125,0.0025355646259151,-0.0032521062642801,0.0418038365066051,0.0018799684476107,0.0013569938018918,-0.0004783940967172
5.771291748046875,0.0133048324541188,-0.0036356165559962,0.0417979912877082,0.0017324292566627,-0.0004001604393124,0.002053739503026
5.781271728515625,0.0090363248220644,-0.001483872749051,0.0432920292377471,-0.0005070357583463,0.00211186055094,0.0001259852724615
5.791251953125,0.0072361983312293,0.0070335427654441,0.0379050755023956,-0.0016495318850502,-0.0028139222413301,0.0007081523071974
5.801231689453125,0.0014571948046796,0.0054359257099218,0.0473316600173711,-0.000873431272339,-0.000304277986288,0.0005300078773871
5.8112119140625,0.00387503306875,-0.0032375662822742,0.0495762240737676,-0.0027403072454035,-0.0015690131112933,0.0023635942488908
5.82119189453125,-0.0023542349759489,0.0066767104180995,0.0391074370294809,-0.0004497744375839,-0.0024826321750879,0.000233833459788
5.831171875,-0.0012581833675503,-0.006654370722128,0.0452408252179622,0.0009150956757366,-0.000163285061717,0.0005084053846076
5.841151611328125,-0.0005002411397174,-0.0035085652433801,0.0425473483502864,-0.0003900206065736,0.0003816094249486,-0.0047038691118359
5.8511318359375,0.0049449273225851,-0.0043384310631081,0.0489835188776254,6.40483340248e-05,-0.0027814274653792,0.001239240868017
5.861112060546875,0.0074104771859012,-0.0042713115104939,0.0415010541677474,0.0010830282699316,0.0008799005299806,-0.0010592703474685
5.871091796875,0.0050997342918068,-0.0010207944151014,0.0307248086094856,0.0010777018032968,-0.0019742092117667,0.0009761836845427
5.88107177734375,0.0009524236203171,0.0007164137742016,0.0485316834568977,0.0003277107607573,-0.0013963375240564,-0.000114492533612
5.8910517578125,-4.98487574048e-05,-0.0041617867214139,0.055416766795516,-0.001176442601718,-0.003062411211431,-0.0024037456605583
5.901031982421875,0.0100536303721368,-0.0063822027172427,0.0480856932550668,0.0003628761041909,0.0006552776321768,0.001632769475691
5.91101171875,0.0040465354444459,0.0043216443250887,0.0392559055894613,0.0033687858376652,0.001992717385292,-5.67399183637e-05
5.920991943359375,0.0078059245105832,0.0023716336353216,0.0410474651813507,-0.0024980364833027,0.0013395864516496,0.0025149430148303
5.930971923828125,-0.0007986395644024,0.0019556915118824,0.0356628495335578,-0.0012727160938084,-0.0008308896794915,0.0019913655705749
5.94095166015625,-0.0012463650655932,-0.0028186284841503,0.0458382065892219,0.0003858428681269,0.0010868208482861,0.0009842638392001
5.950931884765625,0.0003893646437674,-0.0030700916277244,0.044638767671585,-0.0018738491926342,0.0025145411491394,0.0002548241172917
5.960911865234375,0.0068831471098586,-0.0013570862979162,0.038053544062376,-0.0009518268634565,-0.0024972697719931,-0.002426431979984
5.9708916015625,0.0003991736517287,0.0022877912767697,0.0338671982884407,-0.0017678193980827,-0.0003952365368604,-0.0002197367284679
5.980871826171875,0.0022907047530636,-0.0077102090511471,0.0376081383824348,-0.0025974488817155,-0.0008602319285273,-1.1938300303e-06
5.990851806640625,0.0050101563122123,-0.004306328024948,0.0533177486896514,-0.0010552123421803,0.0032974956557154,-0.002120004966855
6.000830810546875,0.006197740395274,0.0076240377381909,0.0422398898363113,0.0021880040876567,-0.0013239029794931,-0.0001719750289339
6.010810791015625,0.0005339424799196,0.0042865638785529,0.0426882181257009,-0.0004671675269491,0.0003075497224926,-0.0011783835943788
6.020790771484375,-0.0026928192805498,0.0020892090979032,0.04927344173491,0.0025037843734025,0.00222400855273,-0.0010613403283059
6.03077099609375,-0.0003297068784013,0.0063232025390025,0.0401426252961158,0.002458244562149,-0.0008340990170836,0.0001168421149486
6.040750732421875,-0.0031362521991133,-0.002566188093042,0.0447813910126686,0.000317302707117,0.000351664610207,7.02950346749e-05
6.050730712890625,-1.52889006771e-05,0.0031871604024432,0.0383458050072193,0.0020403680391609,0.0010060025379061,-0.0011558242840692
6.0607109375,0.0063876004115678,0.0046311577988322,0.0449263524413108,0.0027512568049132,0.0006251651793718,-0.00038100083475
6.07069091796875,0.0008860986521467,-0.0017659958923701,0.0359457581281661,-0.0006874165264889,-0.000526919029653,0.0011961231939494
6.0806708984375,0.0012500365937128,0.0005079495221376,0.0372948346495628,-0.0026396031025797,-0.0015020919963717,-0.0025926663074642
6.09065087890625,0.0004528766003437,-0.0011623491771053,0.0390928239822387,-0.0007636724621988,-0.0008727870881557,0.0005378794157877
6.100630615234375,-0.0031025691252201,0.0035636746977921,0.0365472311526536,-8.21999274194e-05,0.0016770036891102,-0.00015147535305
6.110610595703125,0.0066954973169602,-0.005454027622193,0.0570464138239622,-0.0013999320799484,0.0009257262572646,0.0014861023519188
6.1205908203125,0.0078428955201059,-0.0067764079329092,0.0509112720698118,-0.0014723571948707,-0.0001299297437071,-0.0003476153069641
6.130571044921875,-0.0034946919816546,-0.0053399271226953,0.0515080689191818,-0.0007264057057909,0.000723878853023,0.0011911591282114
6.14055078125,-0.0069868266800418,0.0038532687615137,0.0441758263349533,-0.0002921062405221,0.0005500139668583,0.0003518557641655
6.15053076171875,0.0011732267641462,0.0069765792806632,0.0366927771031856,0.0009739605011418,0.0011249901726841,0.0015353645430877
6.160510986328125,-0.0003846336697228,-0.0010927910722326,0.0389344185501337,0.0015825957525521,-6.21806830167e-05,0.0013839625753462
6.17049072265625,0.0049204687347635,0.0038464188956189,0.0377367331981658,-0.0019269180484116,0.0003442177549004,-0.0003652015293482
6.180470703125,-0.0015640709789469,-0.0010704605094157,0.0420750546634197,-9.21097234822e-05,1.78012996912e-05,-0.0010913113364949
6.190450927734375,-0.0039289552130736,-0.0010331972389481,0.043122517889738,5.96905010752e-05,-0.0004786122590303,-0.0001469543494749
6.200431640625,-0.0080264171271584,0.0054192485697567,0.0423731608271598,0.001344772754237,0.000114532187581,-0.0029382591601461
6.210411376953125,-0.0038888058657757,0.006756260194024,0.0464122070848941,-0.0021951009985059,-0.0010495353490114,-0.0022591529414057
6.2203916015625,-0.0035185843138955,-0.0011816840652376,0.0399760365575551,-0.0014285165816545,0.0003275014460086,-0.0002263966453028
6.23037158203125,0.0050237464461475,0.0001927004273515,0.0476093079149723,-0.0023273336701095,0.0002998048439621,-0.0008969806367531
6.240351318359375,0.0025427615516819,0.001648643989861,0.0437140540421009,0.0009761104010976,0.0010847896337509,-0.0009392078500241
6.25033154296875,-0.0022024419477209,-0.0009396828697528,0.0395206940054893,0.0015209931880235,0.0003454955294728,-0.0004736873379442
6.260310791015625,-0.0020381364977918,0.0025828013011254,0.0371259078234434,-0.0007145893760025,-0.0007075732573866,-0.0019700792618095
6.27029052734375,0.0049908670898526,0.0012342453695368,0.0341331557482481,0.0001943474635481,0.0017079142853617,-0.0013069522101432
6.2802705078125,-0.0044021987480111,0.0047346090401522,0.0428121367663145,-0.0019195817876607,0.0002687089145183,-0.0024843760766088
6.290250732421875,0.00209987662239,-0.0021197594997938,0.0543371548652648,-0.0011310197878628,-0.0002884240821003,0.0002504239964764
6.300230712890625,-0.0022082871666178,-0.0029095216379966,0.0432651412308216,-0.0005130863864906,-5.58411702513e-05,0.0003623451630119
6.31021044921875,-0.0022555603744462,-0.0038073563937097,0.0417675961494445,0.0003066345816478,-0.0018526762723922,0.0001815165305742
6.320190673828125,0.0014970336247235,0.0024029055564198,0.0414694899857044,-0.0002848464646376,0.0018335301429033,5.83642322453e-05
6.330170654296875,0.0085054876146838,0.0027970468400046,0.0474503179609775,0.0019737803377211,0.0006817132234573,-0.00349109666422
6.340150634765625,0.0081492397892288,0.000316098478157,0.0458054733633995,0.0008054560166783,4.63593751192e-05,-0.0007958313217386
6.350130615234375,-0.0048315118096768,0.0107288718857336,0.0447597637027502,-0.0003002884914167,-0.0016956143081188,-3.7895704736e-05
6.360110595703125,-0.0036555633654817,-0.0008047131121624,0.0449088167846202,0.0036740405485033,-0.000290990807116,0.0006720435922034
6.37009033203125,0.0015333835797384,0.0057165327495895,0.0392208342760801,0.0025211586616933,0.0003215363249182,0.0011106661986559
6.380070556640625,-0.0061109571609646,-0.0033729561649728,0.0450561163008213,-0.000907651730813,-0.0009418493136763,-0.0003899243019986
6.39005078125,-0.0023247714194469,-0.0030333124144468,0.0458095650166273,-0.0035122232511639,-0.0024654436856508,-0.0005374634638428
6.40003076171875,-0.0036188846169039,0.0005680548120755,0.051945875814557,0.0004567420692183,-1.01085752248e-05,-7.09605810698e-05
6.410010498046875,-0.0058160110686905,-0.0011111578459851,0.0350362420678138,-0.0006492687389254,0.0011366484686732,0.0022539789788424
6.419990478515625,-0.0002227393725886,-5.26435026898e-05,0.0378805255830287,-0.0019250253681093,-0.0018419958651065,-0.0011383552337065
6.429970703125,0.0031679259790107,-0.0009375365784391,0.0444663337141275,0.0009296169737353,0.0010155765339732,0.0007610111497342
6.439950439453125,0.0010710450313054,-0.0019286299750208,0.0438642761677503,0.0015199334593489,0.0008231243118643,0.0001949282741406
6.4499306640625,-0.0062445752116851,-0.0013982220259029,0.0473071100980043,0.0002751720603555,-0.0030283387750387,-0.0014333284925669
6.45991064453125,0.0017117540876381,0.0011178524482529,0.0411760599970817,0.0021981545723974,0.0018949676305055,0.002408284926787
6.469890380859375,0.0067284132058732,0.0047541905234567,0.0446153867959976,-0.0007297247648239,0.001022782176733,-0.0009464992326684
6.47987060546875,0.0063475606621243,-0.0004599639282561,0.051945875814557,0.0002777525223791,0.0017551127821207,-0.0004033729492221
6.4898505859375,-0.0041631840940564,0.0002302833582274,0.0504477462112903,0.0009049270302057,0.0009047649800777,0.0001497656048741
6.499829345703125,0.0040454029332846,0.0106031448805239,0.0435632473945617,0.0007261004066094,0.0010983468964695,-0.0013993048341944
6.5098095703125,0.0004970445356331,-0.0017515563750639,0.0446112951427698,0.0009058638243004,-0.0016228714957833,-0.0025982598308473
6.51978955078125,-0.0008194448904134,-0.0055433955392334,0.0577834959268569,0.0001976520870812,-0.0020674373954534,-0.0012944710906594
6.529769775390625,0.0153515906497836,-0.001782947027171,0.0441664739847183,-0.0001181988045573,0.0012319525703787,0.0004024951776955
6.53974951171875,0.0003732537591829,0.0006232007991056,0.0453629902929067,-0.0014697689330205,-0.0007324339821934,0.0002362331142649
6.549729736328125,-0.0021114574623294,-0.0006035919163376,0.0462643230468034,-0.0029326435178518,0.0004140567034482,0.0014596893452107
6.559709716796875,-0.0008654577229171,0.0012321995429228,0.0393798242300748,-0.0023602487053722,0.0011762147769331,0.0011323967482894
6.569689453125,0.0045877296490594,0.008179452264402,0.0482090273737907,0.0005231557879596,-0.0019924137741327,0.001171545125544
6.57966943359375,-0.0049398127560503,0.000687251611799,0.0411760599970817,-0.0014577724505215,0.0025292299687862,-0.0001470956049161
6.5896494140625,0.0028780213880352,-3.52905090898e-05,0.0479068295568227,0.00126451079268,0.0006772680208086,0.0001258784031961
6.599629638671875,0.0040805107792839,-0.0027653091280255,0.0434118562251329,0.0036745511461049,0.0017733974382281,-0.0005981867434456
6.609609619140625,-0.0012190751998685,0.0037634076541289,0.0407142877042293,0.0017996858805418,5.88549301028e-05,-0.0016341563314199
6.619589599609375,0.0044282099721021,0.0030859650502912,0.0434048419624567,0.0020637479610741,0.0003798715770244,-0.0012898902641609
6.629569580078125,0.0007698883939534,-0.0047434408005792,0.0368184493094682,0.0015425671590492,0.0010975934565067,0.0004542139649856
6.639549560546875,-0.0025160927404649,0.008742812635051,0.0428033689379692,-0.0024081559386104,-0.0017397012561559,0.000403141049901
6.649529541015625,-0.0068346683256328,0.0067103386930655,0.0463964249938726,0.0002326346584595,0.0002563381567597,-0.0002930092741735
6.659509765625,-0.0145276705136522,0.0002949004265014,0.0456464834094047,0.0009957349393516,0.0011775223538279,-0.0007515654433518
6.669489501953125,0.0049158838911913,-0.0017117084218654,0.0431014751017093,-0.0008756683673709,-0.0004342226311564,0.0017131901113316
6.679469482421875,0.0077411887113004,-0.0015214922125451,0.0407113650947809,-0.0019526534015312,-0.001580610871315,0.0004638085374608
6.68944970703125,0.0006023863399401,0.0025636673423927,0.0455003529369831,0.0002604334149509,-0.0014133639633655,0.0004944349057041
6.6994296875,0.0008593567756935,0.0030503274813294,0.0345768078625202,-0.0031381980516016,0.0008623143658041,-0.0016126588452607
6.709409423828125,0.0068975957603193,0.0007139478224795,0.0377180284976959,-0.0001866165548563,0.0010205060243606,-0.0009175738086923
6.719389404296875,-0.0040702816462144,-0.0066330082736909,0.0338286198437213,0.0009877383708953,-0.0019650673493742,0.0004085787804797
6.72936962890625,-0.0026627529358491,-0.0028135961160063,0.0330856925219297,0.0016700401902198,-0.0006939405575394,-0.0007368468213826
6.7393486328125,-0.0014273111230693,0.0010273246205877,0.0425128615587949,0.0015204158844426,0.0003757355734705,-0.0001232743670698
6.74932861328125,-0.004652739442978,0.0072749229064211,0.0372737918615341,-0.0013179812813177,0.0019059879705309,-0.0012884072493761
6.75930859375,-0.0009511632449924,0.0031687662292271,0.039217327144742,0.0020746435038745,0.0014611165970563,-0.0018946477212011
6.76928857421875,0.0004262808543629,0.0069588152951095,0.0413110845535993,-0.0020793550647795,-0.0004275972023606,0.0006465406040661
6.7792685546875,-0.0046681562078185,-0.0001798044131603,0.0417605818867683,0.0007322995224967,0.0012896787375211,0.0015920316800475
6.78924853515625,-0.0024216376563534,-0.0027101540078409,0.0422077411323785,0.0028604315593838,0.0011195028200745,0.0020503615960478
6.799228515625,-0.0042856596962548,-0.0039490572861861,0.0380184727489948,-0.0007598091615363,-0.0002045631408691,-0.0005932239000685
6.809208740234375,-0.0025146862346678,0.003035988428723,0.0291898541271686,-0.0003368991892784,-0.0006852634251117,-0.001651297789067
6.819188720703125,-0.0049773682874627,0.0060661042390856,0.0410129783898592,-0.0012181552592664,-0.0013847397640347,0.0003053635591641
6.82916845703125,-0.0062718650774098,0.0032284970598295,0.0574742838472127,0.0015448743943125,-0.0027916878461837,0.0014521207194775
6.8391484375,-0.0025531733478419,0.0023093181219883,0.0419131420999765,-0.000154725916218,-0.0013142237439751,0.0026157132815569
6.84912841796875,0.0028679749180562,0.0019308767310343,0.0383218396097421,0.0002729777479544,-0.0007949071004986,0.0034820395521819
6.859108642578125,0.0069750814433209,-0.0028217154903803,0.040567572709918,0.0003322183620184,0.0019792858511209,0.0008708940003998
6.869088623046875,0.0047174021770246,-0.0013605203640181,0.0495458289355039,0.0004954701289534,-0.0003866665065288,0.0003081680624745
6.879068603515625,-0.0067498213200829,0.0042519400897435,0.055232057878375,0.0006844575400464,-0.0010852804407477,0.0022350859362632
6.889048583984375,0.0007237842299044,0.0018397735146339,0.0558276856839656,0.0016357386484742,0.0006308602169156,0.0004166795697528
6.899028564453125,-0.0013079407934099,-0.0008185863738879,0.04744564178586,0.0010742986341938,0.0025461399927735,0.0002987588231917
6.909008544921875,-0.0010491985256783,-0.002029706596164,0.0395142642647027,0.0027044196613132,0.0003897780552506,0.001439657062292
6.918988525390625,-0.0008742072849534,0.0016903459734283,0.0422071566104888,0.0003701898967847,0.0027610110118985,0.0019346583867445
6.92896875,0.0003420183707028,0.0008185224418062,0.0465402173787355,0.0015513018006458,0.0024166647344827,-0.0004398159799166
6.938948486328125,-0.0075433097853325,0.0027612996731884,0.0359136094242334,0.0002109872875735,-0.0008828882128,-0.000551005534362
6.9489287109375,-0.0017000453835353,-0.0023889044305309,0.0475859270393848,-0.0012092764955013,0.0002335086464881,0.0010114710312336
6.95890869140625,0.0012023797933943,0.0022987327958922,0.0436976874291896,0.0020976418163627,0.0012465268373489,0.0009913808899
6.968887451171875,-0.0029689328081905,-0.0003931183702778,0.0380102894425392,0.0010614057537168,-0.0027823029085993,0.0011530348565429
6.97886767578125,0.0021413228776305,-0.0030211835852358,0.0486345593094825,-0.000504090450704,-0.0001708790659904,-0.0012383605353534
6.98884765625,-0.0076395732340402,-0.0004366469847504,0.0481874000638723,-0.0007879834156483,0.0010488489642739,-0.0004364827473182
6.998827392578125,0.0020622845583595,9.34139044955e-05,0.0522258617997169,-0.001098591950722,5.54798170924e-05,0.001473985845223
7.0088076171875,0.008754402608145,0.0009368150592315,0.0498316601395606,-0.0013329500798135,-0.0004997896030545,0.0007799661252647
7.01878759765625,-0.0025221936876885,-0.0053472245131619,0.0507312393277883,0.0005993829690851,-0.0018158582970499,0.0002797407796606
7.028767578125,0.0026764526676386,0.0007653674824628,0.0447469042211771,0.0014625133480876,-0.0008374126628041,0.0014739022590219
7.03874755859375,-0.0024789025352336,-0.0011631437615491,0.0480389315038919,-0.0012940008891746,0.0003883810713887,0.0008976564276963
7.0487275390625,-3.1564182043e-05,-0.0082949227370787,0.0466910240262746,-0.0015592516865581,-0.0004313392564654,1.10901091829e-05
7.058707275390625,-0.0035139264050871,0.0015883012379053,0.0460930581331253,0.000293365039397,0.0008479012176394,-0.001003396930173
7.0686875,-0.0006099485918879,0.002759591773292,0.0489379261702299,0.0014662211760878,-0.0016858307644724,4.93506231578e-05
7.078667724609375,0.0095862503224052,-0.0021563651831354,0.0422042340010404,9.5342984423e-06,0.0014348151162266,0.0010463541839271
7.088647705078125,0.0039971068121492,0.0019296528883278,0.0389122067183256,-0.0007148454897105,0.0005021756514906,-0.0012319800443947
7.09862744140625,-0.0022958558522164,9.39527606125e-05,0.0474386275231838,0.0045755836181342,-0.0005110222846269,-0.0012057202402502
7.108607666015625,-0.0105027989117428,-0.0063033744605258,0.0416015919327735,0.0012777915690094,-0.0011648284271359,0.0015208239201456
7.118587646484375,0.0010831921268254,8.86463978327e-05,0.0339671515315771,9.3464332167e-05,-0.0005792109295725,-0.0003847614862024
7.1285673828125,0.0013776815613731,0.0042322946743573,0.0442892235815525,0.0002860108506865,-0.0008692294359207,-0.0016247293679043
7.138547607421875,0.0006353022288531,0.0106643004832323,0.0540156678259372,2.84788548015e-05,0.0018803691491484,-0.0014911597827449
7.148527587890625,-0.0027040713269263,-0.0007681896272115,0.0380026906579732,0.0005581816658377,0.0001117633655667,0.0006438965210691
7.1585078125,-0.0020141711003147,-0.0005565013715997,0.051466567865014,0.0014515465591102,-0.0002325996756553,0.0016179040540009
7.168487548828125,-0.0038422815766185,0.0065045869878958,0.0399462259411811,0.0014121318235993,-0.0016659134998917,0.0008253473788499
7.178467529296875,0.0030146351134404,0.0111654275389388,0.0323158771932125,-0.001208649831824,0.0010336246341466,0.0011526717571541
7.18844677734375,0.0013634521066211,0.0069968914163298,0.0374000485897064,0.0012941890163347,0.0009004669263958,0.0001398716849507
7.198426025390625,0.0037137598261237,0.0048890963489655,0.0472737923502922,0.0007114210748113,0.0006643934175372,-0.0010418180609121
7.208406005859375,-0.0035194793630391,-0.0014460066903848,0.0421866983443498,0.0025854876730591,-0.0024594943970441,-0.0029808655381202
7.2183857421875,0.0014738536785356,0.0028957031751982,0.04203706074059,0.0017856761114671,0.0018751500174403,-0.0012624352239072
7.228365966796875,0.0050160015311092,-0.0003783683257177,0.0495171873629093,-0.0014375476166605,-5.29792159795e-05,3.79863777197e-05
7.23834619140625,-0.0017045206292532,-0.0006765201552305,0.0460778605639934,-0.0048961243592202,-0.0011358950287103,-0.0013233206700533
7.248326171875,0.0003775280755013,-0.0042956513673067,0.032615152400732,-0.002096343319863,-0.000238942913711,-0.001103609916754
7.258305908203125,0.0021685396781191,-0.0012766597391571,0.0423427656888961,-0.001091519370675,-0.0003140531480312,-0.0012394979130476
7.268285888671875,0.0076023099635727,-0.0022391389626078,0.0507213024556636,-0.0011176184052601,0.0021536322310566,0.0012438998091965
7.27826611328125,-0.0009591456220485,-0.0042745172477327,0.0457815079659223,-0.0005045714788138,0.0003376621752977,0.0015177716268226
7.288245849609375,0.0084110690631903,0.0012527217411436,0.0394973131299018,-0.0012579797767102,0.0022476818412542,0.0017995340749621
7.29822607421875,0.0027792919876053,0.0008436203504446,0.0550590393990278,-0.0011068761814385,0.000339874997735,0.0012853083899244
7.3082060546875,-0.002592701640632,0.0029482005474157,0.0454787256270647,-0.0006317682564258,0.0015811743214726,0.0018935743719339
7.318186279296875,0.0013800927141681,-0.0035860874589998,0.0409895975142717,-0.0003468639915809,-0.0002251360565423,-0.0001002818462438
7.328166015625,0.0032986031539738,-0.0056098483715672,0.0531102434188127,-0.0008280972251668,0.0011003194376826,0.0015266432892531
7.33814599609375,-2.80205180868e-05,-0.0021942586412653,0.0367962374776601,-0.0012290896847844,0.0003764694556593,-0.0008060338441282
7.3481259765625,-0.0091588004242628,0.0027775749545544,0.0354471609562635,0.0013866671361029,0.0015714298933744,-0.0018598466413095
7.35810595703125,-0.0033924737161956,-0.0018894396089483,0.0492161585897207,0.0008886870928108,0.0009720707312226,0.0011361622018739
7.368086181640625,0.0013780103549361,-0.0022306907946709,0.0376905559688806,-9.16225253604e-05,0.0026589166373014,-0.0011743963696062
7.378066162109375,-0.0017507161248475,0.0011015315011143,0.0340974999129772,-0.0018477668054401,-0.0005182297900319,-0.0002521218266338
7.3880458984375,-0.0046396424993872,-0.0044322559595573,0.0447211852580308,-0.0011164628667756,0.0015867324545979,0.0017572331707924
7.39802587890625,-0.0043018253797665,-0.0002650350112002,0.0379880776107311,0.0004787629004567,0.0004346286877989,0.0014777340693399
7.408005126953125,0.0039123694044537,-0.0003849076643586,0.0468161117106676,0.0002452036133036,-0.0001603215932846,-0.0009534657001495
7.41798486328125,-0.0038168548744171,-0.0006825480372179,0.0453209047168493,0.0003260457888245,0.0005970168858766,-0.0007127959397621
7.42796484375,0.0033289069606922,-0.0027166020149365,0.0403846173584461,-0.0011786402901634,0.0007224520668387,0.0009548755479045
7.437945068359375,-0.0038249651156365,0.0064257495980244,0.0375391647994518,-0.001340017421171,0.0013674506917595,0.0006595572340302
7.44792529296875,-0.0031949966490268,0.0098847766112536,0.0421750079065561,0.0001641359413042,0.002278784289956,-0.0009921352611854
7.457905029296875,0.0064118946026079,-0.0009429434059187,0.0460650010824203,0.0025586776901036,0.0001571383327245,-0.0002498467219993
7.467885009765625,-0.0066527176211588,-0.0005592230516485,0.041125206592679,-0.000353222596459,-0.0017843060195446,0.0006183437653817
7.477864990234375,-0.0055172473178245,-0.001325832643127,0.0474105704724788,0.0010636098450049,-0.0006931498646736,-0.0004864268412347
7.487844970703125,-0.0008462050331756,3.0696532363e-05,0.0364829337447881,0.0024934611283242,-0.000760793685913,0.0016640757676213
7.497824951171875,-0.0037478812914341,0.0036524672260973,0.0463555084615945,0.0018304290715605,0.0010402100160717,-0.0004103725077584
7.50780517578125,-0.0034187954675406,0.0030096849436871,0.0593751490324735,0.0012746271677315,-0.0008298624306917,0.0005073528154753
7.517784912109375,-0.0049174182611517,0.0015474851703271,0.0406733711719512,-0.0011834828183054,-0.0018588658422231,-0.0001063211457221
7.52776513671875,-0.005073138545826,-0.00296701484574,0.0451660064160823,-0.0012061196612194,3.5973265767e-05,0.0002987456391565
7.5377451171875,0.002468636869546,0.002947616025526,0.0307978738456964,0.0023506998550146,-4.3958425521e-06,-0.001442645676434
7.54772509765625,0.0006639072688296,-0.0037906427209265,0.0414233127564191,-0.0008554797968827,0.000605734065175,0.0010860258480533
7.557704833984375,-0.0012577997750602,0.004961878457386,0.0445657024353742,0.0007629177998751,-0.0007245801389217,0.0001118035143008
7.56768505859375,0.0010200272301211,0.0063150100993923,0.0442670117497444,-0.001497573335655,0.0003505377098917,-0.0001747526112012
7.577665283203125,-0.0024637049661017,0.0040321324597578,0.0429179352283477,-0.00109827471897,-0.0015501687303185,-0.0003128766838926
7.58764501953125,1.15260410122e-05,0.0018158720492385,0.0388794734925031,-0.0004399413010105,-0.0011147418990731,-0.0004817211301997
7.597625,-0.0015053447953425,-0.0015152451348491,0.0429226114034652,0.0019689435139298,-3.61073762178e-05,-0.0014122126158326
7.60760498046875,-0.0049779528093524,-0.0010964808666612,0.0348404272347688,0.0009881014702841,0.0014459416270256,-0.0006830391357652
7.617583984375,-0.0049100752049125,0.0081639441680163,0.0352875864803791,-0.0009242043015547,-0.0017747618257999,0.0005823292885906
7.62756396484375,-0.0082247344445437,0.0122261612387839,0.0414268198877573,5.58389583602e-05,0.0003797356039285,0.0013714238302782
7.6375439453125,-0.0035434812931343,0.0079337430081795,0.0343909299015998,0.0015488965436816,0.001647132448852,-0.0001779396552592
7.64752392578125,0.0026029307737015,0.0056136203643865,0.0442670117497444,-0.0002998699783347,-0.0011324090883135,0.0005568264750763
7.657504150390625,-0.0024093626966699,0.0092065668224357,0.040977907076478,0.0005246760556474,-0.0010405415669083,0.000324125168845
7.667484130859375,-0.0013860657972283,-0.0002312606057617,0.0522001428365707,0.0019958061166107,0.0008321935310959,0.0001065449032466
7.677464111328125,-0.0034120369331911,-0.0013816453504376,0.038730420410633,-0.000377582910005,3.27341258525e-05,0.0011970568448305
7.68744384765625,-0.0005545834091491,0.0027497644990216,0.0379834014356136,2.3222877644e-05,0.0007579131051898,0.0019414104754105
7.697424072265625,0.0056734425265341,-0.0011986991321202,0.0355868616878986,6.0739694163e-06,-0.0015141926705837,-0.0004918560152873
7.707404052734375,-0.0084894497953355,-0.0009645615826826,0.0532446834534406,0.0006252588937059,0.000949497334659,0.0003917808644473
7.717384033203125,0.0023619616246782,0.0066032250567805,0.0397761300712823,-0.000704503559973,0.0014540953561663,0.0004785040800925
7.727364013671875,0.0048972339896485,0.0120978952166158,0.0445651179134845,0.0001373216509819,-1.83666124939e-05,-8.60860891407e-05
7.737343994140625,-0.0036157062791287,0.0057086782366968,0.047111879786849,0.0023578652180731,0.0005391677841544,-0.0009558531455695
7.747323974609375,0.0045284006772562,0.0009370433880947,0.0397790526807308,-0.0005598941352218,0.0019636927172541,-0.0013641157420352
7.757303955078125,-0.0031088710018433,-0.0012876195245888,0.0378349328756332,-0.0003853113739751,0.0009607104584574,0.0001838471362134
7.767283935546875,0.001241451428458,0.0042596850047819,0.0496568880945444,0.0008850165177136,-0.0003040246665477,-0.0013139146612957
7.77726416015625,-0.0086926442172378,0.0137788888398092,0.041429157975316,0.0006941208848729,-0.0019713519141077,-0.0010954695753753
7.787244140625,-0.0067022741176187,0.009163367001526,0.034845687931776,-0.0001154800411313,-0.0003156643360853,0.0018084412440657
7.79722412109375,-0.0025957703805528,0.004943329020543,0.0442734414905309,0.001578124705702,-0.0002168100327253,0.0001480376668041
7.8072041015625,-0.0022836356914602,0.0030223891616333,0.0387368501514196,0.0026186215691268,-0.00185252353549,-0.0012653018347918
7.817183837890625,0.0070941960446536,0.009162672881782,0.0339502003967761,-0.001274483394809,-0.0001939376816153,0.0010882051428779
7.8271630859375,0.0044843240735121,-0.0042757045578211,0.04487199190557,5.1770824939e-05,0.0010345792397856,0.0006415930110961
7.83714306640625,0.0015991788249462,-0.0015030341072473,0.0436731375098228,0.0018271099543198,-0.000358460471034,1.47092214319e-05
7.847122802734375,0.0051100547564215,0.0042481041648425,0.0391863474845886,-0.0011159494752064,-0.0010271798819303,0.0025476417504251
7.85710302734375,0.0002832556544803,-0.0021688958711456,0.0390390479683876,-0.0007972018211148,-0.0014751860871911,-0.0003952363040298
7.867083251953125,-0.000184380123578,-0.0008495295014232,0.0382926135152578,0.0013290659990161,-0.0005318941548466,0.0025891019031405
7.87706298828125,0.0047057300055399,0.0034892486215569,0.0432294853955507,-0.0004511728766374,0.0020781671628355,-0.0014888541772961
7.88704296875,-0.0067983001043088,0.0071150470364373,0.0468225414514541,-0.0010317419655621,-0.0019221669062972,-0.0005695309955626
7.89702294921875,0.0067206317582167,0.006332582288701,0.0403928006649017,0.0001719675492495,-0.0005373423919081,-0.0002794850734062
7.907003173828125,-0.0031223880705423,0.0009142927001696,0.044883097821474,0.0009354958310723,0.0001942282542586,-0.0010363555047661
7.916983154296875,-0.0078482292823493,0.0036957218459341,0.0406903223067522,-6.19388883933e-05,-0.000951899215579,-0.000412017427152
7.926963134765625,0.0069215794241055,0.0063324270250741,0.039795419293642,-0.0015897944103926,0.0001341374590992,-0.0005172123201191
7.936943115234375,0.0075565711257047,0.004017473746743,0.0411404041618108,0.000522066373378,0.00139981508255,0.0021637857425957
7.9469228515625,0.0046007717937231,-0.0020986710459925,0.0466740728914737,-0.0022580074146389,-0.0004303092136979,0.0001059612550307
7.956903076171875,-0.007706044332683,0.0063348929767962,0.043083354923129,-0.0013110352447256,0.000949309207499,0.0010460647754371
7.966883056640625,-0.0041257016278803,0.0027011213180143,0.0460807831734418,-0.0012921268353238,-0.0013476675376296,-0.0006240034708753
7.97686279296875,0.0006301693960092,0.0018778953016269,0.0426379492431879,0.0016782341990619,-0.0007405383512377,-0.002112289192155
7.986843017578125,0.0013456789879128,0.0055625477642752,0.0414390948474407,-0.0010102269006893,0.0004072841256856,-0.0001625891018193
7.996822998046875,-0.0054863589892163,0.0024556221243459,0.0463777202934026,-0.0003383121802471,-0.0014536790549755,0.0010890156263485
8.00680322265625,0.0058980633289553,0.0033445520543958,0.0432370841801166,-0.0012579016620293,-0.0013186568394303,-0.0015389916952699
8.016782958984376,0.0061141354987397,0.0007171900923363,0.0414390948474407,-0.0002091713249683,0.0031205238774418,-0.0010938298655673
8.026761962890625,0.0047366366004571,0.0023813147791195,0.0556505755513906,-0.0014150505885481,0.0003223400563001,0.0004135193012189
8.0367421875,-0.0005088263049721,0.0028706052665598,0.0378448697477579,0.0009879285935312,0.0008048135787248,-0.003473516786471
8.046721923828125,0.0013587211325764,0.0043156529757194,0.0339513694405555,0.0013314764946699,0.002959044650197,0.0005563785671256
8.056701904296874,-0.0014278408460319,0.0066162398019805,0.0504056606352329,0.000664796330966,0.0007392633706331,0.0036198899615556
8.06668212890625,0.0013716354130767,0.0036053949476685,0.0456131656616926,0.0008051448967307,-9.32412222027e-05,0.0010326290503144
8.076662109375,-0.0041641522084362,0.0053667055317666,0.0390296956181526,-0.0015564920613542,-0.0001463657245039,-0.0004826257936656
8.08664208984375,-0.0037968715323135,0.0008042473212815,0.0415723658382892,-0.0009580797632224,-0.0005575576797127,-0.0005689121899195
8.0966220703125,-0.0058392640801146,0.0062475800195243,0.0447124174296855,0.0008566518081352,0.0010991711169481,-0.000567074981518
8.106601806640626,-0.002914353076741,-0.0029502646403387,0.0497995114356279,-0.002044329419732,0.0030917478725314,-0.0009252702002413
8.116581787109375,-0.0018043825408443,0.0023775336531456,0.0402209512293338,0.002041061874479,0.0017244052141904,-0.003067372366786
8.126562255859374,-0.0028904790108092,0.0098159582918975,0.0402191976636648,-0.0010988049907609,0.0005914969369769,0.0006317583611235
8.136542236328125,-0.0045754729556851,0.0002242828757036,0.0406675259530544,-0.0020525094587355,0.0024855509400367,0.0007111145532689
8.14652197265625,-0.0044685967814177,0.00167517580376,0.0450064319401979,-0.0001869651605375,-0.0003224862739443,-0.0013421826297417
8.156501953125,0.003760649441462,0.0006149261611048,0.0381231021672487,7.23869306966e-05,0.0010263388976454,-0.0019048964604735
8.166482177734375,-7.16587304137e-05,0.0039445911736227,0.0444055434376001,0.0005546853644773,0.0019627064466476,0.0001827555533964
8.1764619140625,-0.0078799213285557,0.0019035046669188,0.0396159710735082,0.0002857412910088,0.0002794293686747,0.0002300407068105
8.18644189453125,-0.0067135261639952,0.005250385675719,0.0387204835385084,0.0013850941322743,-0.0017970371991395,-0.0011161871952936
8.196422119140625,-0.0016760617197491,-0.000280406110268,0.0364759194821119,0.0022496234159916,0.0013743750751018,-0.0022424773778766
8.206401611328126,0.0044431700792163,0.0049344424611888,0.0503875404566526,0.0004370760871097,0.0033869259059429,-0.0010464517399668
8.2163818359375,0.0029241803510114,0.0052603590804617,0.0370692092001438,-7.06713180989e-05,-0.0005249539390206,-0.0017285502981394
8.22636083984375,-0.0015125051884911,0.003362617434049,0.0351227513074874,-0.0049152276478707,0.0008250018581748,-0.0005501015111804
8.236340576171875,-0.0069203921140171,0.0001941891315393,0.0444002827405929,0.0031274913344532,-0.000957902520895,9.86685190582e-05
8.24632080078125,-0.0049925658565945,0.0128406033426988,0.0484393289983272,0.0010592807084321,-9.71686094999e-05,0.0001210390764754
8.25630078125,0.001582118092291,0.0008229885543696,0.0508335306584835,-0.0003126324154436,-2.79741361737e-05,-0.0012237392365932
8.26628076171875,-0.008864256190788,0.0063513965870253,0.034972529181838,0.0018581101903691,-0.0017675515264272,-0.0003638044581748
8.2762607421875,-0.0061463024689815,0.0167072887082118,0.0408089802503585,0.0001939797075465,-0.0016073556616902,-0.0001718221174087
8.286240966796875,0.003644567047432,0.0087057228945195,0.0430506216973066,0.0008962552528828,0.0007074642926454,0.0001259192940779
8.296220947265626,0.0093028120048344,0.0068390613729599,0.0449959105461835,0.001195136224851,0.0012845853343605,0.00042697211029
8.30620068359375,-0.0046504013554193,-0.0013704937687609,0.0541226353317499,0.0003221520455554,-0.0006358195096254,-0.0002212412655353
8.3161806640625,0.0052014958995394,0.005952907921886,0.0550222145199775,0.0003283589612692,0.0014868164435029,-0.000430257525295
8.32616064453125,0.0030870062299072,0.0076702058343216,0.0402034155726432,0.0002750956919044,0.0032189358025789,0.0025871039833873
8.33614111328125,-0.0033105310537852,0.0005284808535128,0.037507016095519,0.0001537940115667,-0.0013262126594781,0.0006971610127948
8.346120849609376,-0.0023627288096584,0.0080255677437875,0.0473842669874429,8.58833664096e-05,-0.0019163694232702,-0.0003055191482417
8.356100830078125,0.0024470460922457,0.0055920021876227,0.041996144208312,0.0029220355208963,0.0007648710161447,0.0008491003536619
8.366080810546874,-0.0048942383149638,0.0004779105769004,0.0357113648504018,0.0017811374273151,-0.0019978927448391,-0.0016633258201181
8.376060791015625,-0.0081354852585121,0.0149300773020833,0.0385579864531755,0.0013279595877975,-0.000781818293035,-0.0001004841033136
8.386040771484375,-0.0043616658082231,0.0030213845146354,0.0484311456918716,0.0011924046557396,0.0019822772592306,-0.0004933003801852
8.396020751953126,-0.0042439394463784,0.0011623309107962,0.044236032089591,0.000532676349394,0.0008035562932491,0.0003910957020707
8.406000732421875,-0.0004793444821611,0.0034167587740812,0.0406453141212463,-0.0014279428869485,-0.0008854204788804,0.0003466209163889
8.415980712890626,-0.0010048661936074,0.0013378701407928,0.031520342901349,-0.0030753063037991,-0.0008122809231281,0.0014930124161764
8.4259599609375,-0.009159220549371,-0.0012949534476734,0.046487025886774,-0.0009724743431434,0.0017699198797345,-0.0009792000055313
8.435939697265624,-0.0072338054447434,-0.0016095358221791,0.052473699080944,-0.0024781911633908,-0.001351173967123,-0.000606360961683
8.445919677734375,-0.0016392185743898,0.0042715946382842,0.0396054496794939,-0.0013593971962109,0.0006035864353179,-0.0011682879412546
8.45589990234375,-0.0021839381766505,0.0005131645533721,0.0370633639812469,0.0003126204828731,-0.0011680303141474,-0.0017163953743875
8.465879638671876,0.0004603657870553,-0.0015372651704121,0.0394558120757341,0.0026977476663887,0.001273289322853,-0.0001789524685591
8.47585986328125,-0.0057081119811162,0.0032448454064317,0.0345171866297721,4.81160241179e-05,-0.0007254118099808,0.0002863483678083
8.48583984375,-0.0048924116840586,0.0014749587902333,0.0412485407114028,0.0005170987569727,0.0003859251737594,0.002432323526591
8.49581982421875,-0.0127391248627565,0.0003563117575366,0.0482809235662221,0.0011935355141758,-0.0001889308914542,0.0013995385961607
8.5057998046875,0.0015553944821469,0.0021946148342918,0.0464835187554359,-0.0009492439567111,-0.0008467314764857,0.0014916838845238
8.51577978515625,0.0079270118732936,0.0110005010345019,0.0577098461687564,-0.0015218327753245,-0.0008336240425705,-0.0010423037456348
8.525759765625,0.0008821165967732,0.0070231492355931,0.0469371077418327,0.0001200060360133,0.0004313774406909,0.0008621227461844
8.535739501953126,0.0007362601189874,0.0028715916472487,0.0434913512021303,0.0005100496928207,0.0015559028834104,-0.000523937982507
8.545719970703125,-0.0006147160985507,0.0091157832664437,0.0551636688172817,-0.0006638717604801,0.0020653652027249,-0.0004741368466056
8.555699951171874,0.0009691738257184,0.0066587272368371,0.0396007735043764,-0.0023381749633699,-0.0005605239421129,0.0004115112242288
8.5656796875,-0.0046834451084956,0.0003652439826633,0.0413987628370523,-0.0023019560612738,0.0006530787795782,-0.0020090357866138
8.57565966796875,-0.0074053626193664,0.0031720815643202,0.0451408719748258,-0.000632045790553,0.0007951986044645,-0.0002527306787669
8.5856396484375,-0.0088844769949093,-0.0019694551757536,0.0421457818120718,5.31855039298e-05,0.0019491463899612,0.0001067960547516
8.595619873046875,-0.0040590295998379,0.0030478158638346,0.0446866984665393,-0.0012086054775863,0.0002417173236608,-0.0016545774415135
8.605599853515624,-0.0062142896712757,0.0019030754086561,0.0520183565288782,0.0004830343532375,0.001390871591866,0.0013880840269848
8.61557861328125,-0.0020754728334955,-0.0030917006713338,0.0457347462147474,0.0008324070950038,0.000361748971045,0.0012191333808004
8.62555908203125,-0.0002904891128651,0.0044074503118637,0.0443880077809095,0.0014119111001491,0.0013982513919472,-0.0019228640012443
8.635538818359375,-0.0064561538694426,0.0028925339705776,0.0443874232590198,-5.5290292948e-06,-0.0007788017392158,0.0024540401063859
8.645518798828125,-0.0096442641199566,0.0065364616971928,0.0464841032773256,0.0017454993212595,-0.0009122258052229,-0.0011606684420257
8.655498779296876,-0.006189447490964,0.0046065256810747,0.0505243185788393,-0.0011636009439826,0.0013191476464271,-0.0014279037714004
8.665478759765625,-0.0081359053836204,-0.007947945063468,0.0470826536923646,0.0006785075529478,0.0010517667979001,0.0006573513383045
8.675458740234374,-0.0017642149272374,-0.0003126552789006,0.0401975703537464,0.0019190313760191,0.0003763176500797,-0.0011243844637647
8.68543896484375,-0.001389755591657,0.0069225840711034,0.0383995810210704,-0.0001529080909676,-0.0001573795452713,-0.0014985586749389
8.695418701171874,-0.0083939535316079,0.0022286084354389,0.0416881011724472,0.0018317138310521,0.0005241576582193,0.0010859875474125
8.705398681640625,0.0010540390975773,0.0023142226259689,0.0428834484368562,0.0023696722928434,-0.0011293990537524,-0.0010227034799754
8.71537890625,-0.0028119521481916,0.0088569770666304,0.0533569116562604,0.0015615391312167,0.0003639953210949,-0.0004851226112805
8.72535888671875,-0.0042750104380771,0.0119408597576897,0.0518570284873247,-0.0007423615315929,0.0019677514210343,0.0023034731857478
8.735338623046875,0.0044078430375084,0.001998526006611,0.0437725062310695,0.0019934109877794,0.0028152363374829,0.0008077013771981
8.745318603515624,0.0058166138568893,0.001462026243424,0.0434744000673294,-0.0005163520108908,-0.0020639402791857,0.0001730701333144
8.755298828125,0.0024332732952199,-0.0006928502355236,0.0406312855958938,0.0034758043475449,-0.0001951605081558,-0.0001018441107589
8.76527880859375,0.0009608443887904,0.0065696150481235,0.0362917950868606,0.0004126367857679,0.0012541320174932,0.0014593009836971
8.7752587890625,0.006528744181618,0.0022950886672362,0.0454179353505373,-0.0003743019769899,0.0019882870838046,0.0012361315311864
8.78523876953125,-0.0048592400668188,0.0087411230014637,0.0392839626401662,0.0022366612683981,-0.0009643603116273,0.0007607572479173
8.795218505859374,-0.0040603630403988,0.0054771071036811,0.0340472310304641,-0.0020819338969886,8.60011205077e-05,-0.0001763144391588
8.80519775390625,-0.0023938180676661,0.0074303143975324,0.0403337639540433,-0.001437715254724,-0.0020282827317714,-0.0007329151267185
8.815177734375,-0.004152644433733,0.0039539709233213,0.0454226115256547,-0.0030485850293189,-0.0007317634299397,-0.0006939118611626
8.82515771484375,-0.0107063769261352,0.0106043230574578,0.0379424849033355,-0.0012485545594245,-0.002929669804871,0.0003282093675807
8.835137939453125,-0.0031365627263672,0.0008588179195765,0.0416875166505575,-0.0007825235370546,0.0008101370185613,-0.0024567588698118
8.845117919921876,0.0001853665042668,0.0073482438709586,0.0403372710853815,-0.000187839672435,0.0008639330044388,0.001360616297461
8.855097900390625,-0.0004470131151378,0.0008567629598081,0.0573959579139947,-0.0012165575753897,0.0011461796239018,-0.0007149057928472
8.86507763671875,0.0081587017373181,-0.0011392240298446,0.0358504810601472,0.000984811456874,-0.0002565076574683,0.0003229280700907
8.8750576171875,0.0003771444830112,-0.0012490867456421,0.0364466933876276,0.0005155745893716,-0.0011394340544939,-0.0028975238092243
8.885037841796875,0.0004115947418846,-4.98396242503e-05,0.0348012642681598,-0.0015395868103951,-0.0004542032256722,-3.06310539599e-05
8.895017822265626,0.0026480850896798,0.0015721812201663,0.0403431163042783,-0.0002661040052771,-0.003001432865858,0.0016283794539049
8.904997802734375,0.0092654391365125,-0.0034820882284082,0.0295697933554649,0.000997033319436,0.0026639094576239,-0.0024236200843006
8.914977783203126,-0.0049701530953869,-0.0016306608085986,0.0313642755568027,-5.85592351853e-05,3.66484746336e-05,0.0008331245044246
8.9249580078125,-0.0003584397825412,0.004543406450143,0.0491682277947664,0.0007654227665625,0.0006422512233257,0.0011758733307942
8.934937744140624,0.0001614741720259,0.0043074148703366,0.045724224820733,-0.0009728177101351,7.04871490597e-05,0.0021456601098179
8.944917724609375,-0.0063828694375231,0.0019032672049012,0.042134091374278,0.0002042994601652,-0.0002038180828094,0.0005789223359897
8.95489794921875,-0.0045732992649078,-4.41405358258e-05,0.0487198995053768,-0.0015217340551316,-0.0016092620790004,-0.0009886212646961
8.964877685546876,-0.005397182868421,0.0025216365652624,0.0482739093035459,-0.0009395671077072,-0.0009376127272844,0.001565083861351
8.97485791015625,0.0010101086243055,0.0057316663866396,0.0437871192783117,0.001385367824696,-0.0032399520277976,-0.0019456301815807
8.984837890625,0.0080659636862576,0.0068916866093408,0.0479775567054748,0.0008119891863316,-0.0004247250035405,0.0014483022969216
8.994816650390625,-0.0007027231755666,0.0101762338384985,0.0500736522018909,0.0015268368879333,0.0002591731026768,-0.0020478279329836
9.004796875,-0.0073916080886498,0.004552393474197,0.0354097515553235,0.000662374892272,-0.0006090179085731,-0.0009625897509977
9.01477685546875,0.0036195056714117,0.0055714525899384,0.0436404042840003,0.0012342027621343,-0.0015308139845728,0.0008193810353986
9.024756591796876,0.007506046514865,0.0077454630276188,0.0361591086179018,-2.97334627248e-05,0.0028114700689911,-0.0001513411407358
9.03473681640625,-0.011489910252951,0.0089622549388557,0.0418406613856554,-0.0002725830418057,0.0019056722521781,-0.0015645928215235
9.044716796875,0.0052639484101906,0.0066144223042298,0.0451321041464805,0.0021450344938784,0.0003328099846839,0.0011238682782277
9.05469677734375,-0.0039772513342089,0.0062315239338669,0.0479781412273645,0.0001610045437701,-0.0028502196073532,0.0012354570208117
9.0646767578125,-0.0063181519045494,0.0010534819751512,0.0425888494044542,0.0020332068670541,0.0020665079355239,0.0001981558743864
9.07465673828125,0.0026512268948368,0.0079556991116609,0.0473749146372079,0.0046628541313111,0.0001772847026586,0.0022718699183315
9.08463671875,0.0074830674980767,0.0099534579332917,0.041986791858077,0.0015229871496558,-0.0002871714532375,-0.000169183476828
9.09461669921875,0.0041481874543242,-0.0035038799351081,0.0454307948321104,0.0012432591756805,0.0004454823210835,-0.0015749129233881
