seconds_elapsed,ax,ay,az,gx,gy,gz
0.0461953125,0.0036802046163938,-0.003905172478687,0.0461351437091827,0.0015185056254267,-0.0011728042736649,-0.0008926768787205
0.056174560546875,-0.0041925928516313,0.0031701544687151,0.0509253005951642,-0.0003462396562099,-0.001691055484116,-0.0019789803773164
0.0661533203125,-0.0016096819526515,0.0085675382665358,0.0413496629983186,-6.00084895268e-05,0.0013632969930768,-0.0009717062930576
0.076132568359375,-0.0013394501765258,0.0026328144553117,0.0519768554747104,0.0006870081415399,-0.0004223519936203,0.0004565469571389
0.086111328125,-0.0098778719464316,0.00371768708257,0.0440524922162294,0.0001469349954277,-0.0027388138696551,-0.001595968613401
0.096090576171875,-0.0088218418211676,0.0058046676907688,0.0489905331403017,-0.0007159291417337,-0.0008903136476874,0.0002962072903756
0.1060693359375,-0.0131670862175524,-0.0048664004599675,0.0507815082103014,0.001582141034305,0.0025172084569931,-0.001277205417864
0.116048583984375,-0.0068036521328613,-0.0017663886180147,0.0444973133742809,0.0004987671272829,0.0009893532842397,-0.001670820522122
0.12602734375,0.0031474494465626,-0.0068440572084859,0.043005028989911,0.0007151277968659,-0.0029160222038626,0.0010129802394658
0.13600732421875,-0.0001349514912813,-0.0007872048549354,0.0457008439451456,-0.0002622522879391,-0.0010302374139428,-0.0008789293933659
0.1459853515625,0.0024432101673446,0.0047621546342037,0.0436047484487295,-0.003654375905171,-0.0005684625357389,-0.0018996944418177
0.15596533203125,0.0047275399785488,0.0023516046274453,0.0489922867059707,0.0009574200958013,-6.35273754596e-05,0.0020268701482564
0.1659443359375,0.0099824465657584,0.0031332199918106,0.0445043276369571,0.0017219131113961,-0.0019513806328177,0.0002113625523634
0.17592333984375,-0.0043851380153559,0.0049765097709372,0.0491471850067377,-0.0016994499601423,0.0001964587718248,-0.0018464619060978
0.18590234375,0.0091005126320756,0.0070621569385752,0.0515413866668939,-0.0009511077078059,-0.0021022213622927,-0.0001358631125185
0.19588134765625,-0.0035353345192968,0.0082812321384437,0.0448100325852632,0.0017575934762135,-0.0004310877993702,0.0012657586485147
0.205860595703125,-0.0016303594144992,0.0068224846974946,0.032839024284482,-0.0025290907360613,0.0005208579823374,0.0032723320182412
0.21583935546875,-0.0005040222656913,0.0069563767428509,0.0374766209572553,-0.0020358732435852,-0.000912987627089,-0.0011157583212479
0.225818603515625,-0.0142071515887044,0.0049495304324664,0.0500438415855169,-0.0032310183160007,4.76511195302e-05,-0.0008958729449659
0.23579736328125,-0.0087179430552758,0.0051093241040594,0.043159927290678,0.0008950169431045,-0.0004282556474208,-0.0002575131948105
0.245776611328125,-0.0063871437538415,-0.0002059161019511,0.048697103151679,-2.77683138847e-05,-0.0019521163776516,0.0005475603393279
0.25575537109375,-0.0061578467763029,-0.0016615217377431,0.0404693730324506,0.0010369248921051,-0.001330392435193,0.0015860190615057
0.265734619140625,-0.0046917197464965,-0.0040129437020979,0.0419657490700483,0.0015378656098619,0.0012110620737075,0.001262909383513
0.27571337890625,-0.0079660835083574,0.0076712287476286,0.0452554382652044,0.0006662129890173,0.0030193487182259,0.0008139004348777
0.285692626953125,-0.0014832790940068,0.0019885252024047,0.0370230319708585,-0.0004148856387473,-0.0005251495167613,0.0002437277871649
0.29567138671875,-0.0006086516839452,0.001705141683761,0.0419604883730411,0.0005270744441077,-0.0012202346697449,-0.0004955657059326
0.305650634765625,0.0040174372141249,0.0015591390755027,0.0491489385724067,0.0022494145669043,0.0001577632501721,0.0008969897753559
0.31562939453125,0.0082221040960401,-0.0007340864282101,0.0528892941445112,-0.0006164128426462,4.88394871354e-05,0.0004234797379467
0.325608642578125,-0.0075737231899052,-0.0010536372387781,0.0478027846604585,-0.0008018990047276,-0.0037905862554907,0.0004159742966294
0.33558740234375,-0.0007550561510026,0.0053832091419957,0.0551373653322458,-0.0007979042711667,0.0004212027415633,0.000562181812711
0.34556640625,-0.0064131184453144,-0.0004469400499016,0.0536380666851997,0.0020006133709102,0.0018125185742974,-0.0007414640858769
0.35554541015625,-0.002635335205961,-0.0071506206733174,0.0386754753530025,-0.0006969023961573,-0.0011169584468007,-0.0013635784853249
0.3655244140625,0.0014644647956825,0.0001528159415349,0.0400233828306198,-0.0003313840716145,-0.0019726855680346,-0.0016418101731687
0.37550341796875,0.0034546704985201,0.0050583793681114,0.0490022235780954,-0.0021857433021068,0.0005250936374068,8.8179251179e-05
0.385482421875,-0.000968351841811,0.0060657845786772,0.0380757558941841,-0.0011030888417735,0.0009975740686058,7.99656991148e-05
0.39546142578125,0.0102338640435598,-0.0020584303671494,0.0404652813792228,-0.0001379592576995,0.0003642747178673,0.0011636059498414
0.4054404296875,0.0074722721094265,-0.0016737784311175,0.0364262351214885,-0.0018730224110186,-0.0014970721676945,-0.0005719974287785
0.41541943359375,0.008261924649775,0.0028646321834996,0.0497428128123283,0.0025837775319814,-0.0020270412787795,0.0006325503345578
0.4253984375,0.0048875528458505,0.0045940132593736,0.0439075307875871,-0.0019936710596084,0.0004155049100518,8.69241775944e-05
0.43537744140625,-0.0052118346304632,-0.002305756191723,0.0479465770453214,-0.0022306924220174,-0.0012148823589086,-0.000777005276177
0.4453564453125,-0.0082644271341152,-0.001002290644031,0.0467483071714639,-0.0017258813604712,3.42987477779e-05,-0.0008234039414674
0.45533544921875,-0.0043663054507225,0.0059296092446893,0.0424070630967617,0.000382276950404,0.0005168635398149,0.0034040978644043
0.465314453125,0.0065743916879408,0.0044422932963818,0.0518348166555166,0.0026423595845699,0.0003771549090743,0.0014229235239326
0.47529345703125,0.0028536541317589,0.0011947992751374,0.0498912813723087,0.0027355703059583,-0.0002540135756134,-0.0009126687655225
0.4852724609375,-0.0023514767632819,-0.002473513974063,0.0436082555800676,0.0005781085928902,9.93805006146e-05,0.0005445908172987
0.49525146484375,-0.0068759136514738,0.0030906960243359,0.0412111313104629,-0.0031465883366763,0.0003582397475838,0.0013374139089137
0.50523046875,0.0033999994355253,0.0046222895057871,0.0382154566258192,-0.0001912579173222,0.0001091780140995,-0.0004772923421114
0.515209716796875,0.0002446406771428,0.0039105975724756,0.0422556719273328,-0.0014394815079867,0.0014937557280063,-0.0010232403874397
0.5251884765625,0.0051648902161978,0.002865801227279,0.0404600206822156,-0.0001006652018986,-0.0011601727455854,0.001278833951801
0.535167724609375,0.004041037285421,0.0003703676823526,0.0497398902028799,0.0010341076413169,0.0018614502623677,-3.1973930163e-05
0.545146484375,0.0107500882036983,0.0010466960413381,0.0413607689142227,-2.623652108e-06,0.0008114902302622,0.0025353538803756
0.555125732421875,0.0042744807151146,0.001567906903848,0.0473439349770545,-0.0018388732569292,-0.0004002479836344,0.0020197660196572
0.5651044921875,0.0001302205172367,-0.0052278541835024,0.0440519076943397,-0.0007768094656057,-0.0005476716905832,0.0001452806318411
0.57508349609375,-0.0074867390261963,0.0004879661800339,0.0509334839016199,-0.0026854970492422,0.001026788726449,-1.3976401533e-05
0.585062255859375,-0.00855685247574,-0.0004508855726569,0.0575163694232702,0.0008567594923079,-0.0005690632387995,-0.0004997091018594
0.59504150390625,0.0020233407874591,-0.0039648119777441,0.0444955598086118,-0.0010830870596691,0.0020197955891489,0.0007751461234875
0.605020263671875,-0.0157632949895225,-0.002316149721574,0.0530196425259113,-0.0002696560695767,-0.0010397527366876,0.0005324652884155
0.61499951171875,-0.0129332591953687,-0.0009328786696307,0.0446434438467025,-0.0014672796241939,0.0010188715532422,-0.0002126871841028
0.624978271484375,0.0015650025607086,-0.0060491805037483,0.0407522816270589,0.0005508298054337,0.0006240764632821,-0.0008174005197361
0.63495751953125,0.0021131744953803,-0.0005771788334473,0.0419493824571371,-0.0003107028314843,0.00033725425601,-0.0017641542945057
0.644936279296875,0.0068311794606037,0.003390172161255,0.0501800351858139,0.0007108082645572,0.0017219129949808,-0.0006861514411866
0.65491552734375,0.0087266560846939,0.0022545374611392,0.0443470912486314,0.0034852896351367,-0.0016046408563852,0.0025791502557694
0.664894287109375,0.0060649808610789,-0.0024173268074169,0.042553778091073,0.0013157136272639,0.0002972753718495,0.0016920577036216
0.67487353515625,0.0051356275890953,0.0080468388606794,0.0578197362840175,-0.0002291861455887,-0.0003983424976468,-0.0012110541574656
0.684852294921875,0.0003362462170422,0.0014649945186451,0.0489905331403017,0.0032031247392296,0.001258778385818,-0.0019337751436978
0.69483154296875,0.0031134923780336,0.0014246625082567,0.043904023656249,0.00010693364311,-0.0014315461739897,0.0011349852429702
0.704810302734375,0.0057535037591122,0.0006885119871236,0.0474970797121524,0.002446023048833,-0.0017552580684423,3.40696715284e-05
0.71478955078125,0.0006083594230003,-0.0034922625625506,0.0455506218194961,-0.0009737419895827,1.1483207345e-05,0.0009065212216228
0.724768310546875,-0.0038565292976796,-0.0054920580776408,0.0394213252842426,-0.0010078802006319,-0.0026560919359326,0.0001336321438429
0.73474853515625,-0.0035740773607976,-0.0088258969417773,0.0512450340688228,0.0023857860360294,-0.0021112095564603,-0.001516995136626
0.7447275390625,-0.007411098240409,-0.0123693234359845,0.047954760351777,-0.0009409402846358,0.0003390833735466,-0.0025650903116911
0.75470654296875,-0.0141821632779203,-0.0126326140146702,0.0470545966416597,0.0008095554658211,0.000229095108807,0.0016112788580358
0.764685546875,-0.0050882630497217,0.0058841809340752,0.0413689522206783,0.0004698477569036,-0.0018047718331217,0.0018287461716681
0.77466455078125,-0.0102933208795264,0.0060354442393407,0.0486994412392377,-0.0013291175710037,-0.0010982351377606,0.0015802732668817
0.784647216796875,-0.0115763098947703,-0.0062946431647986,0.0510907202899456,-0.0032002034131437,0.0018328269943594,0.0011270244140177
0.79462646484375,0.0003342734556645,0.0061242550339549,0.0362725058645009,-0.0006616781465709,-0.0006923824548721,-0.0014908629236742
0.804605224609375,-0.0009713109838776,0.0096010460327379,0.0440589219570159,0.002259453292936,-0.0012035835534334,0.0002307850227225
0.81458447265625,-0.0099669567356817,0.001333276164066,0.0485462965041399,0.0012136296136304,0.0050111692398786,0.000525330659002
0.824563232421875,-0.0008933138442225,-0.0033902634928002,0.0468961912095546,0.003035229165107,-0.0012994511052966,-8.440005331e-06
0.83454248046875,0.0057437860826961,-0.0034672194528393,0.0498918658941984,-0.0011834839824587,0.0006316071376204,0.0012538983719423
0.844521240234375,0.0051002274821512,-0.0109084023042581,0.0430091206431388,-0.0008056439692154,-7.27558508515e-05,7.2218295827e-05
0.854500244140625,0.0118023372029885,-0.0116432741837576,0.0488274515330791,-0.0010802157921716,0.0087633458897471,0.0008690360700711
0.86447900390625,-0.0003423836968839,-0.0135778041766025,0.0476373649656772,0.0026424215175211,-0.0079739987850189,-0.0012945763301104
0.874458251953125,0.0084462134418077,-0.0093896317717619,0.0111316348671913,0.0003422491718083,-0.0011062389239668,0.0014679206069558
0.88443701171875,0.0044154783546924,-0.0001607983185909,0.0578191517621278,-0.0045869955793023,-2.71257013082e-05,-0.0005773871671408
0.894416259765625,0.0067259837867692,-0.0004749057690612,0.041057986575365,0.0006296396022662,-0.0010005123913288,0.0006168195977807
0.90439501953125,-0.0056108073527924,-0.0032715690165758,0.045849312505126,5.28504024259e-05,-0.0004090145230293,0.0003457629936747
0.914374267578125,-0.0128155876324512,0.0059033605585806,0.0468944376438856,0.0003929360536858,-0.0006867824122309,0.0003092777042184
0.924353271484375,-0.0068621043218299,0.0075234360410831,0.0361193611294031,-0.0011314639123156,-4.27328050136e-05,-0.001819604774937
0.934332275390625,-0.0093954404580406,0.00672211132925,0.0513818121910095,-0.0013485115487128,0.0009013572707772,-0.0018395785009488
0.944311279296875,-0.0050744171874597,0.0055722289080731,0.0452472549587488,0.0009180686902254,0.0006032632663846,-0.0002524906594771
0.954290283203125,-0.008234908778686,0.0068146301846019,0.0415063148647546,-0.0013980824733152,0.0001665046438574,-0.0013643604470416
0.964269287109375,-0.0188217875109985,0.0108004849503748,0.0465939933925867,0.0001801290782168,-0.0018794480711221,-0.0001607630110811
0.974248291015625,-0.0084259743713773,-0.0010229498395696,0.0524304444611072,0.000986001570709,0.00031712744385,0.0004839882894884
0.984227294921875,-0.000122347738035,-0.0031586284277029,0.0382125340163707,-0.0002351524308323,0.001163343898952,-5.19236346e-06
0.994206298828125,-0.0025840068775229,0.0012645035104826,0.0429980147272348,0.0016524961683899,0.000656277872622,0.0004416860756464
1.004185302734375,-0.0027887722020037,-0.0040974984467029,0.0415045612990856,0.0008176716510206,-0.0017962474375963,-0.0009617487085051
1.014164306640625,-0.0002934117223136,-0.0033526714287698,0.0394090503245592,-0.0014060678659006,-0.0014207419008016,-0.0013574943877756
1.024143310546875,-0.0071356788325123,-0.0070374060898087,0.0446457819342613,-0.0001798634184524,0.001869591884315,0.0014486270956695
1.034122314453125,-0.0024552476650103,-0.0089597341882064,0.0471849450230598,-0.0003708120202645,7.62194395065e-05,0.0001942781964316
1.044101318359375,-0.0046252669141627,-0.0055547115176916,0.0413502475202083,0.0016654897481203,-0.0016543818637728,0.0013097391929477
1.054080322265625,-0.0060338916030712,-0.0009864902867004,0.0476385340094566,0.0001972891623154,0.0013251630589365,0.0012556770816445
1.064059326171875,0.0013371120889671,0.0037769247228279,0.0495844073802232,0.0011238455772399,-0.0015901559963822,0.000107113213744
1.074038330078125,0.0031810594552196,0.0062918666858226,0.046446109354496,-0.0022296069655567,-0.0005842801183462,-0.0025941310450434
1.084017333984375,-0.0058464610058814,-0.0010212876054458,0.054528878045082,-5.07733784615e-05,-0.0030433433130383,-3.83844235329e-05
1.09399609375,0.0009191972041502,-0.0013125073706731,0.0451028780519962,0.0004871851415373,0.0012344922870397,0.0012362045235931
1.10397509765625,-0.001471223330032,0.0031290735396556,0.0488432336241006,0.0001446985406801,0.0007970472797751,0.0005523828440345
1.1139541015625,0.0024066592829301,-0.0012269845116883,0.046897360253334,-0.0007791520329192,0.0026559336110949,-0.0006130164256319
1.12393310546875,0.0008514109312556,0.001725252890028,0.046446109354496,-0.0002624887856654,0.0005618212744593,-0.0011742018396034
1.133912109375,7.22249859943e-05,-0.0007127513792365,0.033124270966649,-0.0027658601757138,0.0010379943996667,-0.0023153664078563
1.14389111328125,0.0075136452994309,-0.0010339278913103,0.034170565149188,0.0016457040328532,-0.0001442218199372,0.001485152519308
1.1538701171875,0.0047334034637548,-0.0056718898902647,0.0536240381598472,-0.0011309076799079,0.0020233253017067,0.0001562351098982
1.16384912109375,-0.0052066835313104,-0.0064450114209204,0.0479395627826452,-0.0003837469848804,-0.0016605136916041,-0.0004209984617773
1.173828125,0.0033529819560237,-0.0128043538523837,0.0431529130280017,0.0016724795568734,0.0018519293516874,0.0006740933167748
1.18380712890625,-0.0066619786398485,-0.0079247833835892,0.0358189168781042,0.0016666256124153,0.0006806598976254,0.0002129021886503
1.1937861328125,-0.0010863156656734,0.001512121596001,0.0434516037136316,0.0006096169818192,2.36583873629e-05,-0.0001721908920444
1.20376513671875,-0.0011798757006414,-0.0030157310919836,0.0507809236884117,-0.0013082806253805,-0.0003095883876085,-0.0009116440196521
1.213744140625,-0.0084152520479634,-0.0013086531794629,0.0447924969285726,-0.0011514204088598,0.0019461084157228,-0.0021654602605849
1.22372314453125,0.007740001401212,-0.0022412761207669,0.0325216288983821,0.0001220381818711,0.0006495639681816,-0.0011176032712683
1.233702392578125,0.0009820150409825,0.0021107450762763,0.0422480731427669,0.0007281736470758,0.0006809895858168,0.0013607343425974
1.24368115234375,-0.0044356808925047,0.0050012971523217,0.0441904393821954,-0.0008862141985446,-0.0004862360656261,0.0011788775445893
1.253660400390625,0.0028394977422431,-0.0085442304561845,0.0531663575202226,0.0014467149740085,-0.0013288604095578,0.0005442462279461
1.26363916015625,0.0065344798026606,-0.0002814838225021,0.0513701217532157,-3.80250858142e-05,0.0007573328912258,-0.0031577635090798
1.273618408203125,-0.0017430625413544,0.000897642959468,0.0461310520559549,0.00100007513538,-0.0006719855591654,8.11729114502e-05
1.28359716796875,0.0024944471642374,0.0024756328659132,0.0432908601939678,0.0011201687157154,-0.0003261324018239,8.75197583809e-05
1.293576416015625,-0.0024036636082455,-0.0048453759382478,0.0398503643512725,-0.0031510088592767,0.0020078616216778,-0.0006957159494049
1.30355517578125,0.0001367415895685,-0.000854662334267,0.0393967753648757,-0.0006271011661738,-0.0003259759396314,-0.0005757732433266
1.313534423828125,0.0008204130047932,0.0009941621365025,0.0325151991575956,0.0025239509996026,0.0007081292569637,0.0015638103941455
1.323513427734375,0.0021634616442024,0.0060690177153795,0.0473293219298124,-0.0007112507009878,0.0008821794763207,0.0009637711918912
1.333492431640625,0.0002061352976597,0.0006349551689811,0.045685061854124,0.0010240650735795,0.0006741872057318,7.72048369981e-05
1.34347119140625,0.0080815996468067,-0.0026478476276621,0.0405985523700714,0.0032377988100051,0.0019297963008284,0.0006934828707017
1.3534501953125,-0.0177113785836845,0.0010984992938116,0.0405950452387332,-0.0024701543152332,-0.0013522841036319,0.0010261116549372
1.36342919921875,-0.005459909373708,-0.0042163025207817,0.0444862074583768,0.0028730023186653,0.0010952465236186,0.0004821136244572
1.373408203125,0.0012558818126097,0.0008070420665666,0.0506195956468582,-0.0008184051839634,0.0005128132179379,-0.0003378736728336
1.38338720703125,0.0029790158107876,0.0028293599407188,0.0473275683641433,0.0015982913319021,0.0010319054126739,-0.0007442421047016
1.3933662109375,-0.0022939926886931,0.0082985851320438,0.0488245289236307,0.0006699131918139,0.0007014069706201,-0.001284331199713
1.40334521484375,-0.0046277328658849,0.0052314709126949,0.04927344173491,-0.0009874741081148,-0.0009045396000146,-0.0011469353921711
1.4133251953125,-0.0044134507943876,0.0079706318193115,0.0498714076280593,0.0016301469877362,-0.0001689745113253,0.0010690808994695
1.423303955078125,0.0049941915581002,0.002063161341194,0.0461281294465064,-0.0030335425399243,0.002160738222301,0.0016489905538037
1.433283203125,-0.0091564623367041,-0.0031897724846377,0.0366986223220825,0.0015353765338659,0.0014928178861737,0.0002345856919419
1.443261962890625,-0.0107673863983713,-0.0042608175159431,0.047024201503396,-0.0006351331830956,0.0010477257892489,-0.0001229202462127
1.4532412109375,-0.0059531179844401,-0.0094272055694833,0.0567436314851045,-0.0039286646060645,0.0009422646835446,-0.0004033511213492
1.46322021484375,0.010936769882217,-0.0039047523535788,0.0486626163601875,0.0024362197145819,0.0013390248641371,-0.0025795698165893
1.47319921875,-0.0016936704416759,-0.0062092299036681,0.0555424390017986,0.0023805596865713,0.0007696412503719,0.0001054293679771
1.48317822265625,-0.0062685223428532,-0.0021633703126572,0.0512011949270963,5.3901982028e-05,-0.0007400177419185,-0.0003692454774864
1.4931572265625,-0.0003307480580173,0.009934826298058,0.0416261418521404,0.0011274220887571,0.0024400632828474,0.0012329121818765
1.50313623046875,-0.0024962920614518,0.0006246529706753,0.0395317999213933,-0.0002088734181597,-0.0006417613476514,-0.0006637211190536
1.513115234375,-0.0034368973798118,-0.0057334290854632,0.0500093547940254,0.0045709679834544,-0.0006883665919303,0.0013634770875796
1.52309423828125,0.0009562960778363,0.0010990290167741,0.0528553918749093,-0.0001719922875054,0.0006034886464476,-0.0007753145182505
1.5330732421875,-0.0003087554219178,0.0051698586522601,0.0547995116800069,0.0015548013616353,0.0015486450865864,0.002884401474148
1.54305224609375,-0.0054212030648253,0.0056966407390311,0.0500058476626873,-0.0023531320039182,0.0006206128746271,-0.0003751237527467
1.55303125,-0.0078186013290658,-0.0026981530427932,0.0534434208959341,0.0016511970898136,0.0001279283314943,-0.0030007343739271
1.56301025390625,-0.0047893166357651,-0.0055557344309985,0.04207447014153,0.0007460213964805,0.00103326048702,0.0002859840460587
1.5729892578125,-0.003333674467355,-0.0086268489720299,0.0544943912535905,0.0022360598668456,0.0003072824329137,0.0020604482851922
1.58296826171875,-0.0010415997411124,0.0007329721833579,0.0552419947504997,0.0024632783606648,0.0016491385176777,0.0021680598147213
1.592947265625,-0.0042165947817265,-0.004733841855172,0.0432686483621597,-0.0007197318482212,-4.51644882559e-05,0.0013781663728877
1.60292626953125,-0.0112629878955893,0.0037955746243707,0.0435714307010173,0.0027591311372816,-0.001558743417263,-0.0021892022341489
1.6129052734375,0.0033603067459538,0.0036073585758917,0.0535977346748113,0.0016238255193457,0.0031457310542464,0.0022630705498158
1.62288427734375,0.0158680157393217,-0.0061405303153209,0.0467149894237518,0.0024672462604939,0.0009527401998639,-0.0010482182260602
1.63286328125,0.0085491806259378,-0.0083904098676517,0.0458200864106416,-0.0019024685025215,3.10204923152e-05,0.0002705791848711
1.64284228515625,0.0128279539236798,0.0071376333275809,0.0417822091966867,-0.0044317687861621,-0.0016531916335225,-0.0005979536217637
1.652821044921875,0.005499748193752,0.0005611775467172,0.042378421524167,-0.0014319841284304,-0.0001130858436226,0.000483023468405
1.66280029296875,-0.0005439706835895,0.0079599825611338,0.0410293450027704,7.86538585089e-05,0.0011010933667421,0.0004428003740031
1.672779052734375,-0.0182690307327546,-0.0003073489161208,0.0455161350280046,-0.0014974048826843,-0.001829182729125,-0.0026227643247693
1.68275830078125,-0.0182201135571114,-0.0013910342332907,0.0435685080915689,-0.0032115723006427,0.0022373367100954,-0.0015078358119353
1.692737060546875,-0.0039251375544816,-0.0075159285880625,0.0441629668533802,0.0006619954947382,-0.0008141128346323,-0.0002255237486679
1.70271630859375,0.0025718415156938,-0.009591730215121,0.0389238971561193,-0.000621133367531,0.0030205864459276,0.0004561253008432
1.712695068359375,0.0091319672162644,-0.0106361064352095,0.0473030184447765,-8.606351912e-06,-0.0008585741743445,-0.0006307107396423
1.72267431640625,0.0132565180666744,0.0067686904173344,0.0411707993000745,-0.0001814900315366,-0.0029038935899734,-0.0005932640051469
1.732653076171875,0.001866305328533,0.0091896522202529,0.0417728568464517,0.000750616309233,-0.0009459378197789,-0.0014998040860518
1.74263232421875,-0.0003540010694414,0.0117276645315811,0.035785599130392,-0.0013167788274586,0.0019402541220188,-0.001074138097465
1.752611083984375,-0.0056869778615422,0.0135742239800281,0.0470101729780435,0.002059044316411,-0.0016571441665291,-0.0014754764270037
1.76259033203125,-0.0044904067544266,0.0070072484135627,0.0476128150463104,0.0016892165876924,-0.0002668565139174,-0.0001515002659289
1.7725693359375,0.0031547011712566,0.0048751317556947,0.0410275914371013,0.0014351508580148,0.0016426295042037,-0.0001722729211905
1.782544921875,0.0025713300590403,-0.0083476667044684,0.0395294618338346,0.0008668276714161,0.0012643970549106,-0.0003307609586045
1.79252392578125,0.0038565658302977,-0.0119289227247238,0.0467132358580827,0.0017672423273324,0.0015642689540982,-0.001348887453787
1.8025029296875,0.0005806859647855,-0.0128980965504422,0.0458136566698551,0.0016850072424858,0.0009205257520079,-0.0004503983072936
1.81248193359375,0.000290105520375,-0.012320296662487,0.0449187536567449,-0.0004354017728473,0.0018574260175228,-0.0015225869137793
1.8224609375,-0.0064980019834823,-0.0037417255452834,0.0402817415058612,0.0023658410646021,0.0001809410750865,-8.00327252363e-05
1.83243994140625,-0.0040892603413201,0.0041601518867537,0.0423790060460567,-0.0005133023951202,-0.0005690054967999,-0.0001807002117857
1.842419189453125,-0.0174240495422855,0.0058890580385923,0.0485188239753246,0.0019988208077847,-0.0026540486142039,-0.0010774192633107
1.852397705078125,-0.0050340121118351,0.0158327252302318,0.0467237572520971,0.0006850832724012,0.0002594497054815,0.0021801593247801
1.862376953125,0.0104234135325998,0.0153782411946915,0.0537602317601442,0.0029706303030252,-0.0018325513228774,-0.0002814065373968
1.872355712890625,0.0143412628297694,0.0086264836458489,0.0476315197467803,0.0013490315759554,-0.0018333503976464,0.001509302877821
1.8823349609375,0.0092455653922632,0.0024762173878028,0.0455395159035921,-6.56892661936e-05,-0.0006176810711622,0.0012028446653857
1.892313720703125,0.0101974958222359,-0.0014742555373348,0.0394049586713314,0.0010312667582184,-0.0015340745449066,-0.0016006650403141
1.90229296875,0.0115035917184315,-0.006385609383881,0.0473386742800474,0.0024664034135639,-0.0009052380919456,-0.0008506798767484
1.912271728515625,0.0074022756131365,-0.0021482092761434,0.0497357985496521,0.0002426641294732,-0.0016964636743068,-0.0009939579758793
1.9222509765625,-0.0091281312913633,0.0012463650655932,0.0530260722666978,-0.0013138251379132,0.0014154193922877,0.0001787856745067
1.932229736328125,-0.0118327688738703,-0.0067307330271229,0.0506271944314241,0.001522175152786,0.0013075610622763,0.0001910362043417
1.942208984375,-0.0051121371156536,-0.006418178212922,0.0431418071120977,0.001092379912734,0.0007596649229526,5.50553231732e-05
1.952187744140625,-0.0039071817726828,0.0015450557512231,0.0492775333881378,0.0011059620883315,-0.0021378546953201,-0.0002296365855727
1.9621669921875,-0.0016021927659399,-0.0017563786806538,0.0437485408335924,0.0021183099597692,-0.0002018427476286,8.8207998487e-06
1.972145751953125,0.0085173059166409,-0.0059223757863044,0.0461415734499692,2.1070591174e-05,-0.0007973248139023,0.0007438532775267
1.982125,-0.000313997852616,-0.0013536613649688,0.0531733717828989,-0.000823023263365,-7.87740573287e-05,0.000284775509499
1.992103759765625,0.0061702313338406,0.0061318172859027,0.0467401238650083,-0.0009649697458371,-0.0017696153372526,0.0010168784065172
2.0020830078125,0.0045248022143729,0.0052918593304231,0.0413520010858774,-9.50705725699e-05,0.0015029050409793,0.0014322040369734
2.012061767578125,-0.0001990114371292,0.0057487362524494,0.0509264696389436,-0.0001139789819717,-0.0001160306856036,-0.0006266857963055
2.022041015625,-0.008841405038163,-0.0010987367558293,0.0389572149038314,-0.0007711945218034,-0.0010614898055791,-0.0001299471332458
2.032019775390625,-0.0015022212564945,-0.0092826094670221,0.0465899017393589,-0.0005464237183332,0.0010695718228816,0.0002365038089919
2.0419990234375,0.0067816777630709,-0.0032471469613723,0.0418067591160535,-0.0012390464544296,-0.0037280535325407,-0.0009133609128184
2.051977783203125,0.0036959319084882,0.0066654492385685,0.0468967757314443,-0.0025067110545933,0.0016571246087551,-0.0016848786035552
2.06195703125,-0.0087006448606029,0.0090233922752551,0.0458481434613466,-6.0208607465e-05,0.0017623296007514,-2.70336477115e-05
2.071935791015625,0.0003763042327947,0.009580277239345,0.0443523519456386,-0.0007164115086197,0.0004248907789587,0.0011077392846345
2.0819150390625,-0.008338168223761,0.003272354467865,0.0442050524294376,0.0011154222302138,-0.0016133030876517,0.0022800536826252
2.0918935546875,-0.0071132295386865,0.0044013402314856,0.0561778142958879,0.0023844183888286,0.0016285628080368,0.0018840414704754
2.1018740234375,0.0025525522933341,0.0071207369917072,0.0504898317873477,0.0003459108993411,0.0042196800932288,-0.0004876319435425
2.11185302734375,-0.0022989611247554,0.0025412089154124,0.0470475823789834,0.003613076871261,-0.0019218353554606,0.0005794967291876
2.12183203125,-0.0048259588517248,0.0025370441969484,0.0491489385724067,0.0011584463063627,-0.0008790120482444,-0.0008369482238776
2.13181103515625,0.0044848537964746,-0.0033423692304641,0.0404693730324506,0.00016748404596,0.0005982434377074,0.0011817278573289
2.141789794921875,0.0034197635819204,-0.0129675815900787,0.043161680856347,-0.0005729099502786,0.0005186414346098,0.0010523000964894
2.151768798828125,0.0055805400786921,-0.0066880994617938,0.0398708226174116,3.3981050364e-06,-0.0023189568892121,0.0010043631773442
2.161747802734375,0.0087552611246705,-0.0035951932140626,0.0406225177675485,0.0007034701993688,0.0008595865219831,-0.0014752304414287
2.171726806640625,-0.0023876988541334,0.0132514765653759,0.0522942508608102,0.0012448908528313,0.0017946232110261,0.0011975180823355
2.181705810546875,-0.0041566264891065,0.0146247924788855,0.0500531939357519,-0.0006500938907265,-0.0015733623877167,0.000276829698123
2.191684814453125,-0.0013127448326908,0.0067780245012603,0.0509498505145311,-0.0014112254139035,-0.0014471281319856,-0.0001303676108364
2.201663818359375,-0.004977824945189,-0.0034344862270168,0.0454167663067579,0.000843271438498,0.0011012507602572,0.0006285816198214
2.211642822265625,-0.0058305510506965,0.0046938021057285,0.0431733712941408,-0.000222791917622,0.0031649339944124,-7.02317920513e-05
2.221621826171875,-0.0002853197474032,-0.0057864379143342,0.0463122538417577,-0.0010316901607438,0.0004490278661251,0.0009028633357957
2.231600830078125,0.0020162534595467,-0.0017663886180147,0.0398790059238672,0.0012514379341155,-0.0002732211723923,-0.000669733271934
2.241579833984375,0.000196161892917,0.002196578462515,0.0395803152382373,0.0002941733109764,0.0009517045691609,-0.0017935549840331
2.251558837890625,0.0010503127705305,0.0091843549906276,0.0566395865887403,0.0017557160463184,0.0021461322903633,-0.0002073762298095
2.261537841796875,0.0016963373227976,0.0076553735913708,0.0406283629864454,0.0025445469655096,-0.0002391217276453,-0.0013325895415619
2.271516845703125,-0.0101152608988806,-0.0036710166629403,0.0425771589666605,0.003821266349405,0.0006104269996285,0.0004794252745341
2.281495849609375,-0.0099041571651585,-0.0091850673766806,0.0401835418283939,0.0013917167671024,0.0009945966303348,0.0006707123247906
2.291474853515625,-0.0045352870757691,0.0049329263575375,0.039884851142764,0.0005030198954045,0.0006984528154134,-0.0006267797434702
2.301453857421875,0.0131885308643802,0.0030324264984577,0.0418266328603029,-0.0017318266909569,0.0007120883092284,0.0012030223151668
2.311432861328125,0.0136875846940092,0.0032461057817563,0.0570890839219093,-0.0002913228818215,-0.001947876997292,-0.0042772307060658
2.321411865234375,0.0047894627662375,0.0086852280957624,0.0430225646466016,0.0007342605385929,0.0019288389012217,-0.0010270202765241
2.331390869140625,0.0130861847347579,0.0040321233266033,0.0545423220485448,0.0008732775459066,-0.0002168705686926,-0.0012334152124822
2.341369873046875,-0.0155424553130753,0.0064651226271875,0.0596323386639356,0.0020228181965649,0.0012677041813731,-0.0011107163736596
2.351348876953125,-0.0160662234588526,0.0019320092421956,0.0367377852886915,0.001438520848751,0.0022323010489344,-0.0008971309289336
2.361327880859375,-0.0079488949115388,-0.0023619981572963,0.0433230088979005,-0.0034310519695281,-0.0004690643399953,-0.0024560282472521
2.371306884765625,-0.0005875906296074,0.00225895790793,0.0502010779738426,-0.0002818640205077,-0.0008914424106478,0.0020151527132838
2.3812861328125,0.0013379340728744,-0.0035730361811816,0.0428682508677244,0.0003911285893991,0.0007460797205567,0.0011399020440876
2.3912646484375,0.0082535952128469,-0.0026043372794985,0.0497498270750045,0.0007924669189378,0.0008134571835398,0.0025537742767482
2.401243896484375,0.0187219621320255,0.0011372969342395,0.0594727641880512,-0.0015299159567803,0.0035741189494729,-0.0005357592599466
2.41122265625,-0.0073952978830784,0.0004285458766855,0.0364250660777092,5.65291848033e-05,0.0004896465688943,5.86583119002e-05
2.421201904296875,0.0006582081804051,0.0045728974061086,0.0415139136493206,0.0001550857559777,0.0011469693854451,0.0004345293855294
2.4311806640625,-0.0048311647498048,0.0054319436545483,0.046897360253334,0.0001705320901237,0.0006721271201968,0.0005122936563566
2.441159912109375,-0.0017404687254689,0.0114740368303842,0.0497439818561077,0.0022728641051799,-0.0026643918827176,0.0007057731272652
2.451138671875,-0.0071867331663146,0.0101436467431485,0.0482528665155172,0.0018566120415925,-0.0006630262359976,-6.49456997052e-05
2.461117919921875,0.0003768339557573,0.0033503698738291,0.0313408946812152,-0.001283144345507,-0.0001879883930087,-0.0015008677728474
2.4710966796875,-0.0028012298247776,-0.0045382462178356,0.0412140539199113,-0.0009867345215752,0.0001691421493887,-0.0003221527149435
2.481075927734375,-0.0022068075955845,-0.0057066141437739,0.050192894667387,0.0025629266165196,-0.0008529471233487,0.0007912638247944
2.491054931640625,-0.0070689520055428,-0.0015155921947211,0.0548334139496088,0.0007636949303559,-0.0003560008481144,0.0003201506915502
2.501033935546875,-0.0120407490687444,0.0006315211028791,0.050496846050024,0.000403054698836,0.0009139450266957,0.0004406518419273
2.511012939453125,-0.0071883040688931,0.0022389928321354,0.0479500841766595,0.0002195628476329,0.0016963817179203,-0.0003596280585043
2.520991943359375,-0.0075198558445088,0.0075349072831682,0.056925417792797,-0.0010652015917003,0.0016635730862617,-0.0017849534051492
2.530970947265625,0.0010988463536836,0.0093318189036101,0.0537789364606142,-0.0011765217641368,-0.0010384703055024,0.0001077551132766
2.540949951171875,-0.0025129144026897,0.0096174674445763,0.0465957469582557,0.0007100488874129,0.0004472164437174,-0.0027710313443094
2.550928955078125,0.0051202838894911,0.0077101177196018,0.0377642057269811,0.0008922090637497,0.0014485651627182,0.0004607145965564
2.560907958984375,0.0125493013790808,0.0073602448360063,0.0307312383502721,0.0006186763639561,-0.0010022586211562,-0.0006711062742397
2.570886962890625,0.0197915275922976,0.0016048413807526,0.0509352374672889,-0.0001104971161112,2.5518238544e-06,-0.0024998988956212
2.580865966796875,0.0038976102267391,-0.0029841121110133,0.0431540820717811,-2.26713600568e-05,-0.0013471255078911,-0.0006140531040728
2.590844970703125,-0.0073753328072838,-0.0095530056399293,0.0416541989028453,0.000366949068848,0.0007210858166217,0.0011281868210062
2.600823974609375,0.0006023863399401,-0.0071724854452535,0.0464402641355991,0.0010704499436542,0.0001097368076443,-0.0004864761140197
2.610802978515625,-0.0119072040832601,0.0059672378413379,0.040754035192728,-4.43493481725e-05,-0.0006929403170943,0.0018648287514224
2.620781982421875,-0.0050914231211878,0.0066532473441213,0.0391086060732603,0.0028329989872872,0.0004526181146502,-0.0004485130775719
2.630760986328125,0.000760061119683,-0.0017833032201975,0.0627501784235239,-0.0004815713036805,-0.0003005238249897,-7.83337090979e-05
2.64073974609375,-0.0009202566500753,0.0053954658353701,0.0485369441539049,-0.0007562824757769,-0.0016684560105204,0.0001162969128927
2.65071875,0.008496902449429,0.004662438853085,0.0468874233812093,0.0017052772454917,0.002867174334824,0.0006936702411621
2.66069775390625,0.0045181350115686,0.00285228415858,0.0585568183869123,-0.0009599620243534,0.0006661107763648,0.0004366629873402
2.6706767578125,0.0027853198695927,0.0150974880245514,0.0456891535073518,-0.0009474451653659,-0.0023041125386953,0.0009804805740714
2.68065576171875,-8.71302941814e-05,0.0026451990128494,0.0504822330027818,0.0022090116981416,0.0002330634742975,0.0026500259991735
2.690634765625,-0.0038116672426462,0.003074110215716,0.047943654435873,0.0009035302209667,0.0008903322741389,0.0013317613629624
2.70061376953125,-0.005593673554901,0.0027332060898654,0.0398603012233972,-0.002538037719205,0.0006171874701976,-0.0009441327420063
2.710593017578125,-0.0072495692694559,-0.0060047385738231,0.0385123937457799,0.0010090265423059,0.0010065417736768,0.0014588374178856
2.72057177734375,0.0002908361727371,0.0015882373058237,0.0335772754311561,-0.0006869141361676,0.000930868089199,0.0015575648285448
2.730551025390625,0.0004457892724312,0.0045996758151799,0.041056233009696,0.0013922157231718,0.0007873233407735,-0.0012776365038007
2.74052978515625,-0.0071260890202596,0.004116933799535,0.0456926606386899,-0.0009374430519528,-0.0018786611035466,-0.0010262671858072
2.750509033203125,-0.0070550148117356,0.0090196294155903,0.045097617354989,0.0021709986031055,-0.0012059463188052,-0.001258494798094
2.76048779296875,-0.0099516495686955,0.0115126700740307,0.0344768546193838,0.0014978756662458,-0.0040204743854701,-0.000546152179595
2.770467041015625,-0.007354600546509,0.0159087861411273,0.0331324542731046,-0.0009421124705113,0.0002131527289748,-0.0002263065543957
2.78044580078125,-0.0009908924671821,0.0026489436062052,0.0430091206431388,0.0030471249483525,-0.0019044065847992,0.0002495260268915
2.790424560546875,0.0037217422031797,-0.0009309424408711,0.0454074139565229,0.000263322959654,0.0006245309486985,0.001605873927474
2.8004033203125,0.0005401164923794,0.0054015119836665,0.0555804329246282,-0.0005548001499846,0.0001970939338207,-0.0007363762124441
2.810382568359375,0.0047196489330381,-0.0046891807295382,0.052287236598134,-0.0011884807609021,0.0006730714812874,-0.0004168679297436
2.820361083984375,0.0018638393768109,-0.0024803455736488,0.0474976642340421,-0.0004831773112528,0.0006363382562994,0.0012336602667346
2.83034033203125,-0.0013519260656088,-0.0001128127247095,0.0397176778823137,-0.0007755924016237,-0.0017783492803573,-0.0003197615151293
2.8403193359375,-0.0030026889473199,0.0010803973815403,0.0418161114662885,-0.0018058225978165,-0.0013841139152646,0.0003277505747973
2.85029833984375,-0.0129253498835489,-0.0003443747245706,0.0442114821702241,-0.0013634716160595,0.002719284966588,0.0025203311815857
2.86027734375,-0.0084911120294593,0.0025298655374906,0.0519920530438423,-0.0010888798860833,-0.0002437876537442,0.0003058197034988
2.87025732421875,-0.004950443747919,0.0073604822980239,0.0537871197670698,0.0015172895509749,0.0019285529851913,-0.0006539835012517
2.880236083984375,-0.0071113663751631,0.0012836831349879,0.0650093555271625,-0.0011007423745468,0.0011505596339702,-0.001606504432857
2.89021533203125,-0.0071977842832915,0.0060451071168296,0.0504921698749065,0.0003810403868556,0.00108078494668,-0.0015013095689937
2.900194091796875,-0.006298241627682,0.0053938949327915,0.0566238044977188,-0.003749745665118,0.0003209030255675,-0.0003434604732319
2.91017333984375,-0.0002724602658301,0.0032162221001461,0.0552729744106531,-0.0020554424263536,0.0014759162440896,0.0012786708539351
2.920152099609375,-0.0067205221603624,0.004665891185496,0.046143911537528,-0.0022239661775529,-0.001236118376255,-0.0013276133686304
2.93013134765625,-0.0075141019571572,0.0015810038474388,0.0373129548281431,0.0002929874463006,0.0021831141784787,0.0011576485121622
2.940110107421875,-0.0017455102267675,0.0088916739206761,0.0521247395128011,0.0005601932061836,0.0011369753628969,0.0006693887407891
2.95008935546875,-0.0022416049143299,0.0083568363916128,0.0515261890977621,0.0004328940995037,0.0020690821111202,0.0003500757738947
2.960068115234375,-0.0046315505244769,0.0005837912373244,0.0428442854702472,-0.0013704412849619,0.0038928911089897,-0.0014010288286954
2.97004736328125,0.0006856076439842,0.0022213110449723,0.0477764811754226,0.0012671534204855,0.0015517063438892,0.001070917234756
2.980026123046875,-0.0042872123325243,0.0005764481810852,0.0471750081509351,0.0003985381918027,-0.00063082203269,0.0014619709691032
2.99000537109375,-0.0054964602581225,-0.0003142718472518,0.060192895156145,0.0008848314173519,0.0014219433069229,0.0013514498714357
2.999984375,-0.0102667981987819,0.0043089675066061,0.0431347928494215,0.0005300196353346,0.0001335591077804,0.0013217600062489
3.00996337890625,-0.0140426634756848,0.0068182651801034,0.0552571923196315,0.0008365494431927,-0.000535693950951,-0.0002806639822665
3.0199423828125,-0.0046308564047329,0.0069420924891717,0.0515156677037477,0.0019293295918032,0.0002128481864929,-0.0010981712257489
3.02992138671875,-0.0121612701758742,0.0076824259950779,0.0488268670111894,-0.000587623915635,-0.0006220526993274,-0.000429185165558
3.039900390625,0.0009210603676736,0.0153956855198368,0.0383493121385574,9.76769952103e-05,0.0022734459489583,-0.0007782346219755
3.04987939453125,-0.0017273717818781,0.0063739006797783,0.0482218868553638,0.000433501554653,-0.0017979945987462,0.0013935732422396
3.0598583984375,0.0047502084680832,0.0109796591758728,0.0426858800381422,-0.0006643973174504,-0.0023234765976667,-0.0021128237713128
3.06983740234375,-0.0027723507901653,0.0051376551494002,0.0383522347480058,-0.0009709271253086,-0.0019189426675438,-0.0009418317931704
3.07981640625,-0.0009174801710993,0.0022606018757447,0.0525660535395145,-4.34834510087e-05,-0.001210207119584,0.0002900117542594
3.08979541015625,0.0058548817743547,-0.0033299481403082,0.0536111786782741,-0.0008365727844648,-0.0008192555978894,-0.0007901663775555
3.0997744140625,-0.0059456287977285,0.0004534611222334,0.0600444265961647,-0.0007432298734784,0.0014448398724198,0.0006000993307679
3.109753173828125,-0.0054401086946949,0.0061936852746643,0.0516641362637281,-0.0011666724458336,-0.0005514658987522,-0.0012936745770275
3.119732177734375,0.0007178842120803,0.001809113514889,0.0375982015103101,0.0012488218490034,0.0001744916662573,0.0002163518511224
3.129711181640625,0.0026799597989767,0.0030993359885178,0.0422352136611938,0.0010871679987758,0.0008642505854368,0.0009660316864028
3.139690185546875,-0.0037532150536775,0.0035221827767789,0.0458288542389869,0.0003414900274947,-0.0005538072437047,-0.0006713184411637
3.149669189453125,-0.0081605649008415,0.0042467159253545,0.0429810635924339,-0.0003741013351827,0.0015639383345842,0.0012400323757901
3.1596484375,-0.0054968438506126,-0.0019179076516069,0.0423836822211742,0.0036805728450417,0.0011220835149288,-0.0002571894438005
3.169627197265625,-0.0048331375111825,0.0072871795997954,0.0411836587816476,-0.0036740128416568,0.0014760168269276,0.0035322224721312
3.1796064453125,-0.009853742152173,0.0011986717326566,0.0426765276879072,-0.0001038397895172,0.0009607728570699,0.0009472210076637
3.189585205078125,-0.0039400611289776,-0.0008572561501525,0.0398293215632438,-0.0005469897878356,0.002048940397799,0.000211123318877
3.199564453125,-0.0089444452875293,-0.0026238639638759,0.0516501077383756,0.0021430363412946,-0.0006069913506507,-0.0022877545561641
3.209543212890625,-0.003518748710677,0.0029141704136505,0.0485047954499721,-0.0003358339308761,-0.0001175021752715,0.0001562284160172
3.2195224609375,-5.66803569905e-05,0.0046588951891288,0.0468611198961734,-6.2986509874e-06,0.0002181585878133,0.0010379017330706
3.229501220703125,-0.0004336421769112,0.0081618800750933,0.050604982599616,0.0002251300611533,-0.0008771996945142,-1.5300083759e-06
3.23948046875,-0.0031515776324085,0.0060931657759472,0.0529985997378826,0.0006706482963636,-0.0006645377725362,0.0005574934766627
3.249459228515625,0.0004357610687613,-0.0048666379219852,0.0516536148697137,0.0016051514539867,0.000487545505166,0.0001167403097497
3.2594384765625,-0.0014501257430762,-0.0051494369187392,0.0449216762661933,-8.74789548106e-05,0.0009957468137145,0.0011595672694966
3.269417236328125,-0.0128563580342568,-0.0085609258626587,0.0425274746060371,-0.0013764488976448,0.0004423419013619,-0.0013999968068674
3.279396484375,-0.0064667117960751,0.009042060443107,0.0378863708019256,0.0001552245230413,0.0005385354161262,0.0013084940146654
3.289375244140625,0.0031220227443613,-0.0063933908315375,0.0444669182360172,-0.0007446575909852,0.0016131205484271,0.0014560332056134
3.2993544921875,-0.0060159723538905,-0.0070951276264153,0.062872928020358,0.0012512169778347,-0.0002907821908593,0.0014902304392307
3.30933349609375,-0.0136294430322945,-0.0006292012816295,0.0422241077452898,0.0015558826271444,-0.0004124892875552,-0.0003132621932309
3.3193125,-0.0117040279276669,0.0036549788435921,0.042973464807868,-0.0003905036719515,-0.0006631603464484,0.0002326705580344
3.32929150390625,-0.0045002157623879,0.0070033942223526,0.051503977265954,0.0031480386387556,0.0005469797179102,-0.0015260810032486
3.3392705078125,-0.008278930583503,0.0184763168078847,0.0356406377017498,-9.4101997092e-06,-0.0012872489169239,-0.002467026701197
3.34924951171875,0.0033428258881904,0.011651731484849,0.0377390712857246,0.00048780196812,0.0008041309192776,0.000190808030311
3.359228271484375,0.0037561924620531,0.0015915617740713,0.0381891531407833,0.0014299645554274,-0.0003376444801688,0.0004184891586191
3.369207275390625,-0.0109538306148722,-0.0011011113760061,0.0410310985684394,-0.0007833887357264,0.0002154940739274,-0.00030615698779
3.379186279296875,-0.0004694441426545,-0.0056766025980003,0.0524023874104023,-0.0020816491451114,-0.0013238107785582,-0.0002668416709639
3.389165283203125,0.0017009404326789,-0.0017731471523642,0.0473164624482393,0.0003820411511696,-0.0005190037190914,-0.0008649876690469
3.399144287109375,0.0022626477023586,-0.0039746575183235,0.0541997922211885,0.0003105099312961,-0.0006210673600435,6.86040148139e-05
3.409123291015625,-0.0043865262548439,0.0009746719847433,0.0432727400153875,-0.00039549410576,0.0028634127229452,-0.0004405923828016
3.419102294921875,0.0006250548294745,0.0079846238120459,0.0473106172293424,0.0014165989123284,0.0009329738095402,-0.0014820108190178
3.429081298828125,0.0050375740421004,0.008527060125675,0.0452127681672573,-0.0011448294389992,0.0008139302954077,-0.0008793374290689
3.439060302734375,-0.0007543802975676,0.0058146228292025,0.049705987933278,-0.0005323210498318,-0.0009973486885428,-0.0004745672631543
3.449039306640625,0.0009233984552323,0.0131542632685974,0.0408785383552312,-0.000538712600246,-0.0003592548891901,0.0015299940714612
3.459018310546875,-0.0087150387121364,0.0079796919086016,0.0390858097195625,0.0001725102774798,-0.0005234079435467,0.000641913851723
3.468997314453125,0.000629402211029,0.0024189525089226,0.0443272175043821,-0.0006583959329873,-0.0013729557394981,0.0024789622984826
3.478976318359375,-0.0083879987148568,0.0036880591292865,0.0503127216547727,0.0001756553538143,-0.0002437699586153,0.0003208749985788
3.488955322265625,-0.0176256913279183,-0.0090315025164745,0.0621317542642354,-0.0004041148349642,-7.014721632e-06,0.0014340763445943
3.498934326171875,-0.0053639564522542,0.0029421361328102,0.0438718749523162,0.0008697615703567,0.0005077002570033,0.0010931800352409
3.508913330078125,0.0021692703304812,-0.005546546477545,0.0522539188504219,0.0010173007613047,0.0008568409830331,0.0008652135147713
3.518892333984375,-0.0006311009777709,-0.0051024925044737,0.0440209280341863,0.0021190592087805,-0.0006163828074932,0.0027420916594564
3.528871337890625,-0.0035500936970114,-0.0014065423296764,0.0434200395315885,0.0001272810040973,-0.0010488806292414,0.0017221008893102
3.538850341796875,-0.007752806083858,0.0026323943302035,0.0556897385179996,0.000804265611805,-4.3660402297e-06,0.0011216755956411
3.548829345703125,-0.0104929716374725,0.0081299323005601,0.0467167429894208,-0.0022881971672177,-0.0023498116061091,-0.0003012513625435
3.558808349609375,-0.0005756261971779,0.0048681905582547,0.0441717346817255,0.0005814869073219,0.000979452393949,-0.0016274531371891
3.568787353515625,-0.0105263807167299,1.67319390922e-05,0.0479126747757196,0.0013205141294747,0.0012945048511028,0.0013321177102625
3.578766357421875,-0.0062284277944825,0.0021212299376726,0.0452186133861541,-0.0016201352700591,0.0003132224082946,0.0015089238295331
3.588745361328125,-0.0005702741686254,0.0011309402586892,0.0446177248835563,-0.0024893910158425,-0.0008772108703851,0.0001840012555476
3.598724365234375,0.0034690460837446,-0.0061652080988511,0.0510498037576675,-1.13964779302e-05,0.0025114333257079,-0.0010484848171472
3.608703125,0.0065252187839709,0.0012890534298494,0.0471592260599136,-0.0007568153087049,0.0006570741534233,0.0004410211113281
3.61868212890625,0.0020351408231072,-0.0004486570829525,0.0434194550096988,0.0011899177916347,3.84850427508e-05,-1.38863942993e-05
3.6286611328125,-0.0003015036972239,-0.0017903722818009,0.0456657726317644,-0.0014977443497627,-0.0003953445702791,-0.0013079163618385
3.63864013671875,-0.0126658586971461,0.0061172407712787,0.0517956536889076,-0.0007923040539026,-0.0007492685690522,0.0010715840617194
3.648619140625,-0.0036768436155281,0.0053796654780395,0.0490986696898937,0.0005475322832353,0.0027663707733154,0.0004931455478072
3.658598388671875,-0.0077730086216703,0.0053282640843652,0.0461041640490293,-0.0014222506433725,-0.0017380975186824,-0.0005255605792626
3.6685771484375,-0.0046407567442394,-0.0001856404989026,0.040567572709918,0.0001452859141863,0.0011389153078198,0.0004840437904931
3.678556396484375,-0.003197480867058,-0.0018918050959706,0.0562795211046934,0.0003013503737747,0.0020254980772733,0.0031022962648421
3.68853515625,0.0066816697210073,0.0081897909953258,0.0529886628657579,-0.0013237105449661,0.0002297284081578,-0.0010751382214948
3.698514404296875,-0.0067528352610766,0.0044123182832263,0.047895139119029,-0.0015370787587016,0.0004027858376502,-0.0015825757291167
3.7084931640625,-0.0050814862490631,-0.002361906825751,0.0489396797358989,-0.001104847760871,0.0009513972327113,0.0006097383447922
3.718472412109375,-0.001637209280394,0.0021011369977146,0.0550748214900493,8.10632482171e-05,0.0006344709545373,0.0011713068233802
3.7284521484375,0.0031783743077889,0.0062089376427233,0.0453466236799955,-5.28937089256e-05,0.0013346159830689,-0.0002628053771331
3.738431396484375,-0.0041440775347873,-0.0032088242449797,0.0456423917561769,-0.0001487469417043,-0.0013967202976346,0.0015030377544462
3.74841015625,-0.001392550336942,0.0067059456457383,0.0498345827490091,-0.0010299868881702,-0.0007072277367115,0.0001815771829569
3.758389404296875,-0.0060092686184681,0.004417761643324,0.0362198988944292,0.0023409000132232,-0.00021861679852,0.0013928025728091
3.7683681640625,-0.0052432709483429,0.0023588746184483,0.0404097517997026,0.0017166549805551,0.0007225442677736,-0.0008639601874165
3.778347412109375,-0.0074618603132665,0.0009636391340754,0.0508832150191068,-0.0013097270857542,0.0008859671652317,0.0008528571925126
3.788329833984375,-0.0076545516074635,-0.0053080067476257,0.0501315198689699,-0.0003821481368504,0.0007189866155385,-0.0001841777411755
3.79830908203125,-0.0080027805232442,0.0010667341823689,0.0541693970829248,0.0001010450068861,0.0001952135935425,3.41436680173e-05
3.808287841796875,-0.0126338561236858,0.0034194347883574,0.0466845942854881,-0.0016792780952528,0.0011046836152672,0.0008751699351705
3.818266845703125,-0.0056576239028945,0.0018113968035206,0.0511707997888326,-0.0024452558718621,2.96784564852e-05,-0.0008178455755114
3.82824560546875,-0.0035614188086241,0.0008915054796263,0.0471299999654293,-0.0006939611048437,0.0010563265532255,0.0010370461968705
3.838224853515625,-0.0070224094500765,0.0050250798867084,0.04802373393476,-0.0013384470948949,0.0014862427487969,-0.0015166663797572
3.84820361328125,0.0027072679310105,0.0052398003496229,0.0477232896834611,-0.0001951520680449,-0.0009537450969219,8.68228671606e-05
3.858182861328125,-0.0001990479697473,0.0032966303925961,0.0463747976839542,0.0004638359532691,0.0010870229452848,-0.0006390570197254
3.86816162109375,-0.000961410644371,0.0025803170830942,0.0456236870557069,0.0013975400943309,0.0010457439348101,-0.0023610568605363
3.878140869140625,-0.0081501165720634,0.0042709553174674,0.0547457356661558,-0.0014994023367762,0.0022100582718849,-0.0012447307817637
3.88811962890625,-0.0057316389871761,0.0013750146802514,0.0478588987618684,0.0007970415754243,0.0015756925567984,-0.0001613569038454
3.898098876953125,-0.0037648872251622,-0.0066349810350686,0.0382832611650228,0.0015343227423727,0.0007563335821032,-0.0002257368469145
3.90807763671875,-0.0075575940390117,-0.0001343121704645,0.0300531929582357,-0.0001685023889876,-4.79407608509e-05,0.0024374241475015
3.918056884765625,-0.0134807187439873,0.0026936595307663,0.042770051190257,-0.0004069799906574,0.0029690265655517,0.0002084693114738
3.92803564453125,-0.0048352929356507,-0.0104358528890647,0.0487497101217508,-0.0019239166285842,0.0007631303742527,-0.0002621112216729
3.938014892578125,-0.0046448483974672,0.0040224969817325,0.0369242477715015,0.0021303563844412,0.0020210668444633,0.0007572259637527
3.94799365234375,-0.0020098237187601,0.0060187305665574,0.0447089102983474,-0.0005975194508209,0.0009909560903906,-0.0023144641891121
3.957972900390625,-4.73097404465e-05,0.0037798655985854,0.0506920763611793,-0.001277734292671,-0.0005389302968978,0.0007997134816832
3.96795166015625,-0.0131913621422834,0.0052014411006122,0.0480003530591726,-0.0007091493462212,0.0002981014549732,-0.0014623756287619
3.977930908203125,0.0005401712913066,0.003204750858061,0.0454582673609256,-0.0016211508773267,-0.0015680538490414,-0.0013461452908813
3.98790966796875,-0.0011546316615305,0.0071637358832173,0.0465033924996852,-0.0010917144827544,0.0019893972203135,-6.83606776874e-05
3.997888916015625,0.0031508835126645,0.0074279763099737,0.047992169752717,0.0002002579858526,0.0030261315405368,-0.0016779848374426
4.00786767578125,-0.0048276210858486,0.0071392042301595,0.0488894108533859,-0.0009523581247776,0.0005680341273546,5.20045796292e-05
4.017846923828125,-0.0129882590519264,-0.0104499910122714,0.0453004464507103,0.0025480783078819,-0.0002746470272541,0.0003027175844181
4.02782568359375,-0.0034262481216341,-0.003700370621588,0.044851533639431,0.0005621590535156,-0.0001846319064497,0.0001077741835615
4.037804931640625,0.0009595657471567,-0.0024960911320522,0.0381190105140209,-0.0004708555643446,-3.94871458411e-05,-0.0008754926966503
4.04778369140625,-0.002822144748643,-0.0048694144009612,0.0472474888652563,-0.00043064187048,-0.0011257911100983,-0.0007511230651289
4.057762939453125,-9.18064692988e-05,-0.0038463549635373,0.0545838231027126,-0.0023994648363441,-0.001122367568314,0.0024699545465409
4.067741943359375,-0.0017829926929436,0.0040323973212391,0.0535381134420633,-0.0006713395705446,0.0014132279902696,0.001508819987066
4.077720703125,-0.0045378078264184,0.0057026320884004,0.0450040938526392,0.0004589292802847,0.000923529267311,3.6288402043e-06
4.087699951171875,-0.0095251312523148,-0.0058586811666376,0.0430593895256519,-0.0006028730422258,-0.0015635965391993,0.0002065617009066
4.0976787109375,-0.0083543887061998,0.0028084267505444,0.0423141241163015,-0.0004298840358387,-0.0014159865677356,0.0012128292582929
4.107657958984375,0.000937828839384,0.0077872015438042,0.0411176078081131,-0.0004597114457283,0.000530251301825,0.0005068252212367
4.11763671875,-0.0031740269262343,0.0022355222334153,0.038719314494729,-0.0011847667628899,0.002568133175373,-0.0012321471003815
4.127615966796875,-0.0002962430002167,0.0077292973441071,0.0415589218348264,-0.0025230052415281,-0.0009717401117086,-0.0019895501900464
4.1375947265625,-0.0042639227884821,0.0035912111586891,0.0396136329859495,0.0009726067655719,0.0010844646021723,0.0001503376406617
4.147573974609375,0.0008496573655866,-0.0007180668751709,0.0381155033826828,-0.0009041228913702,-3.14004719257e-05,0.0001167818190879
4.157552734375,-0.0029252580632455,0.0005042962603271,0.0460498035132884,0.0001788407098501,-9.18786972761e-05,-0.0014554181834682
4.167531982421875,-0.0011089110899716,-0.0006773878049105,0.0441050991863012,-0.0003556556766852,0.0007720505818724,-0.0001262345613213
4.1775107421875,-0.0084335914222523,-0.0057335386833176,0.040813656425476,-0.0001692743971943,-0.0005536191165447,0.0005584058817476
4.187489990234375,-0.0050848107173107,-0.0014825667079538,0.0402180286198854,0.0013881421182304,0.0001196283847093,-0.0018544180784374
4.19746875,-0.0049711394760757,-0.0025207323829643,0.042760698840022,-0.0005954330554232,0.0004219589754939,0.0005801396328024
4.207447998046875,-0.0105442086343653,-0.0035319004531949,0.0502402409404516,-0.0007195363286882,-0.0008845878764986,0.0009111705585382
4.2174267578125,-0.0064052091334946,0.0055669316784478,0.0375192910552024,0.0002426303108222,-0.0002004196867346,0.0020208698697388
4.227406005859375,-0.0027415537931025,0.005598861186672,0.0539811810344457,0.0002831103629432,-0.0002369051799178,-0.001408482552506
4.237384765625,-0.0021786409470252,0.0031953802415169,0.0496411060035228,0.0009131456026807,-0.0011965837329626,-0.001093984930776
4.247364013671875,0.0024556129911914,0.0083071337646804,0.0473965419471263,-0.0025273922365158,0.0002119615674018,-0.0017105067381635
4.2573427734375,-0.0031123963994905,0.0052038887860253,0.0406640188217163,0.0015569956740364,-0.0022700512781739,-0.0014722844352945
4.267322021484375,-0.0001887457714416,0.0028864786891266,0.0533802925318479,-0.0010576958302408,0.0032320395112037,-0.0004514947941061
4.27730078125,-0.0031273747729137,-0.0032823096062988,0.049782560300827,-0.0031914701685309,-0.0002278871834278,0.0013328241184353
4.287280029296875,-0.0046721199968829,-0.0064576334404759,0.0470873298674821,-0.0004265763272996,0.0003193924203515,0.00305668823421
4.2972587890625,-0.007379205264803,-0.0020337891162373,0.0428986460059881,0.0005549489287659,-0.0031318627297878,8.97379650268e-05
4.307238037109375,-0.0056467554490081,0.0025575389957055,0.0487380196839571,0.0010130127193406,-0.0006660418584942,-0.0014074912760406
4.317216552734375,0.0055937100875191,0.0009324768108315,0.0491851789295673,-0.0010936815524473,-0.0009464966133236,0.0011702280025929
4.32719580078125,-0.0021932539942674,-0.0009918788478709,0.0527735588103532,0.0013550951844081,0.0008894866332411,0.0015108463121578
4.337174560546875,-0.0134842989405617,0.0015805471897125,0.0466407551437616,-0.0010229019680991,-0.0024099769070744,0.0009800938423722
4.34715380859375,-0.0075794588109478,0.010105689352937,0.0431944140821695,-0.0001970557495951,0.0038409940898418,-0.0010862528579309
4.357132568359375,-0.0115478692515753,0.0060359922286123,0.0511228689938783,0.0004482449148781,0.0006499150767922,0.0008895804057829
4.36711181640625,-0.0104290943547151,0.0061850818431004,0.0463350501954555,0.0004357280558906,0.0008219555020332,0.0023367418907582
4.377090576171875,-0.0053431693925522,0.0039308914418332,0.0443897613465785,-0.0002698967582546,0.0007053902372717,-0.0001025668461807
4.38706982421875,-0.0011549056561663,0.0035992118020541,0.0484317302137613,0.0035613267682492,-0.0008435044437646,0.0001184755165013
4.397048583984375,0.0053586226900108,0.0014601904793642,0.0506762942701578,0.000523283611983,0.0019235322251915,-0.00079420855036
4.40702783203125,-0.0013297690327279,-0.0030456147735938,0.0451373648434877,0.0017467398429289,0.0009983507916331,0.0003975560539402
4.4170068359375,-0.0087872454318217,-0.002292239123024,0.0399006332337856,0.0027469838969409,0.0010812347754836,0.0001056492037605
4.42698583984375,-0.0106464816987514,-0.0019771635581739,0.0451402874529361,0.000673979287967,0.0014812415465712,-0.0013111524749547
4.43696484375,-0.0034157267276197,0.0038067170728929,0.0557610501885414,8.68647475726e-05,0.0005765501409769,-0.0013340908335521
4.44694384765625,-0.0021373773548752,0.0087708605526015,0.0455845240890979,0.0034525678493082,0.0002724174410104,-0.001013180008158
4.4569228515625,-0.0128750810010358,0.0066214091674424,0.0388531700074672,0.0014647917123511,-0.0012903735041618,-0.0023524852003902
4.46690185546875,-0.0068098809442482,0.0027943982251919,0.0460386975973844,0.0007899467600509,-0.0002104612067341,-0.0006603127694688
4.476880859375,-0.0019139438625425,0.000705992844887,0.0354138432085514,0.0017033671028912,0.0008863182738423,0.0002407683350611
4.48685986328125,0.0038748138730414,0.0064983673096634,0.0416968690007925,5.27398660778e-05,0.0020610382780432,0.0008016300853341
4.4968388671875,-0.0083827197515405,0.0010714651564136,0.0384042571961879,-0.0009864940075203,-0.0001935977488756,-0.0011040077079087
4.50681787109375,-0.003459145744238,0.0007586180812679,0.0499257681638002,-0.0034323411528021,0.0019273441284894,-0.0005087912431918
4.516796875,-0.0103393337120302,-0.0035520847246982,0.0509679706931114,0.0004530325531959,0.000407800078392,-0.0002544209128245
4.52677587890625,-0.0149085595900192,-0.0004261529901996,0.0431879843413829,-0.0016138467472046,-0.0008292384445667,-0.0003431041550356
4.5367548828125,-0.0080934362150728,0.00452659231266,0.0418441685169935,-0.0019849371165037,-0.0027111498638987,0.0004729641368612
4.54673388671875,-0.0035460385764017,0.0010906447809189,0.0481254407435655,-0.0034107936080545,0.0010138135403394,-0.000405879021855
4.556712890625,-0.0038696810401976,0.000660929860454,0.03884790931046,-0.0019020881736651,0.0011683087795972,0.0025447036605328
4.566691650390625,-0.0011632168267853,0.0039562085461802,0.0394464597254991,0.0010055510792881,-0.0027526635676622,-0.0012130168033763
4.5766708984375,-0.0085367960684001,0.0007692308068275,0.0521703322201967,0.0009103072225116,-0.0002026390284299,0.0017596627585589
4.586649658203125,0.0008482325934804,0.0049728747754357,0.0418441685169935,0.0001409199903719,0.0005254689604043,0.0013372853863984
4.59662890625,-0.0085843067382462,-0.0025231070031411,0.0431909069508314,-0.0003333261120133,2.63545662164e-05,-0.0010148008586838
4.606607666015625,-0.0076275540026836,-0.0081649670813232,0.0403460389137268,8.69207433424e-05,0.0006708391010761,0.0018883110024034
4.6165869140625,-0.0082465992164798,0.0050175176347605,0.0430395157814025,0.0003484110347926,-0.0001838477328419,-0.000393395894207
4.626565673828125,-0.0090685100586153,0.0041047867040149,0.0536620320826768,0.0007577389478683,0.0011448031291365,-0.0015401530545204
4.636544921875,-0.0046838652336038,0.0022650588551536,0.0430342550843954,0.0009382842690683,0.000673291273415,0.0004162021796219
4.646523681640625,-0.0057854150010272,0.0012315876215696,0.0472229389458894,-0.0027006589807569,6.7688524723e-05,-0.0002759533817879
4.6565029296875,-0.0010132869620807,0.0021552052725106,0.0488689525872468,0.002425568178296,-0.000872760079801,-0.0020608026534318
4.666481689453125,-0.0066839712759479,0.0016261764297261,0.0581505756735801,-0.0004740816366393,-0.000446387566626,-0.0014621241716668
4.6764609375,-0.0005563004422001,0.0008970219049602,0.0485743535548448,0.0011684435885399,0.0030704224482178,0.0012371011544018
4.686439697265625,0.0016240758041851,0.001579359879624,0.0502197826743125,-0.0017061724793165,0.0004525352269411,-0.0013283219886943
4.6964189453125,0.0001702785329893,-0.00461529350942,0.0427408250957727,0.0012010568752884,-0.0004247846081852,-0.001066125347279
4.706397705078125,-0.0057271454751491,-0.0016432188960723,0.0436404042840003,-0.0012447901535779,-0.0033760997466742,0.0010699961567297
4.716376953125,-0.0012860942877829,-0.0026483773506246,0.048581367817521,0.0006521145114675,0.000923441722989,-0.002304894849658
4.72635693359375,-0.0181874899291433,0.0083919625039212,0.041095395976305,-0.0019324833992868,0.0006723059341311,0.0012959652813151
4.736335693359375,-0.0094907905912958,0.0041792036470957,0.0469277553915977,-0.0012484542094171,0.0021319650113582,-0.00144280702807
4.74631494140625,-0.0113427386009134,0.0064535052546299,0.0580003535479307,0.0002618244616314,-0.0016140379011631,0.0005519005935639
4.756293701171875,-0.0115852603862062,-0.0028111118979752,0.0428852020025253,-0.0023340967018157,0.0012207925319671,0.0017508859746158
4.76627294921875,0.0005304718811996,0.0038248555177822,0.0355482832431793,-0.0009196917526423,0.0020551607012748,-0.0034721055999398
4.776251708984375,0.0013370390237309,0.0101679774668067,0.0377893401682376,-0.0001004376099444,0.0016957195475697,0.0004854472063016
4.786227294921875,-0.0100195089068263,0.0064054465955123,0.0503612369716167,0.0020735007710754,-0.0002467902377247,-0.0005758225452154
4.796206298828125,-0.0015038104253821,0.0071655442478135,0.0434779071986675,-0.0002106911269947,-0.0010148296132683,0.0025054682046175
4.806185302734375,-0.0020297522619366,-0.0020913097234442,0.0434773226767778,-0.0019731710199266,0.000573213212192,-0.0012067119823768
4.816164306640625,-0.0011309037260711,8.90117240138e-05,0.0353957230299711,0.0004384742351248,0.0012448588386178,-0.0001301634911214
4.826143310546875,-0.0029325097879394,-0.0013182612580247,0.0419786085516214,-0.0015743429539725,0.0001971712335944,0.0022797309793531
4.836122314453125,-0.0156823204414919,-0.0009522774898447,0.0400339042246341,0.0010194000788033,-0.0001008659601211,0.0005374352913349
4.846101318359375,-0.005827281381376,-0.0012766323396936,0.0461678769350051,0.0009578809840604,-0.0012617381289601,-0.001032764557749
4.856080322265625,-0.0085008114395663,0.0052906354877166,0.0500590391546487,-0.0005058184033259,0.0004477119073271,-8.10499623185e-05
4.866059326171875,-0.0073841371682472,-0.0032691761300899,0.0560416206955909,-0.0013700141571462,0.0001401165500283,-0.0008975751698017
4.876038330078125,-0.0099495672094635,-0.0029712160968221,0.0508002129107713,-0.0009240166982635,0.0009750500321388,0.0020461385138332
4.886017333984375,-0.0185278460657224,-0.0004435425164178,0.0419727633327245,0.0017226327909156,-8.16928222775e-05,-0.0016308880876749
4.895996337890625,-0.0105318788757547,-0.0024569829643703,0.0496048656463623,-0.002208889927715,-0.0006916001439094,0.0003699875669553
4.905975341796875,-0.0079349394514225,0.0039105062409304,0.0460100560247898,-0.0011119338450953,0.0009265365079045,0.0022392603568732
4.915953369140625,-0.0042890024308115,0.0002946903639473,0.0466056838303804,-0.0011132365325465,-0.000714398920536,0.0003196556062903
4.92593212890625,-0.0054124900354072,0.0064733789988793,0.0386713836997747,-0.0012767546577379,0.0006954791024327,-0.0017176625551655
4.935911376953125,-0.0074349905726499,0.0073955901440232,0.0527361494094133,0.0024595998693257,0.0020993845537304,0.0002476932422723
4.94589013671875,0.0025709647328592,0.00367854238227,0.0498965420693159,0.0033413723576813,-0.0016064038500189,0.0001981584355235
4.955869384765625,0.0012308935018256,-0.0035800139112398,0.0534890136033296,0.0017735387664288,0.0006121080368757,-0.0015186342643573
4.96584814453125,-0.0050806825314648,-0.0034122561288997,0.0397246921449899,0.0001828325912356,0.0002485858276486,-0.0001851894485298
4.975827392578125,-0.0071291942927986,-0.0049002479306422,0.0388245284348726,0.0015310120070353,0.0009558741003274,-0.0012414543889462
4.98580615234375,-0.0073294113063253,-0.0010808540392667,0.0442114821702241,0.0023507331497967,0.0027995808050036,-0.0005884473212063
4.995785400390625,-0.0029058957756496,-0.0015980280474759,0.04166413577497,0.001671991078183,0.0001185033470392,-0.0036945967003703
5.00576416015625,-0.0011115231721661,-0.0088020228758454,0.0397182624042034,-0.0002651921822689,-3.96883115172e-05,-0.001686040777713
5.015743408203125,-0.00305609963499,0.0037214682085439,0.0527361494094133,-0.0006695291376672,-0.0011800406500697,0.0020517823286354
5.02572216796875,-0.0026328327216207,0.0010126293749548,0.0398661464422941,2.20938236452e-05,0.0007486212998628,-0.000302718457533
5.035701416015625,0.0036363106757402,-0.0004967340083792,0.0418137733787298,0.0012757392833009,0.0006944863125681,-5.42789566679e-05
5.04568017578125,-0.0035616745369508,0.00356554699447,0.0476519780129194,0.0020256852731108,0.0017059547826647,-0.0013911857968196
5.055659423828125,-0.009959796342533,0.003388436861895,0.0536380666851997,-0.0009499221341684,-0.0006367499008774,0.0023379335179924
5.06563818359375,-0.0088161792653612,0.0007622165441513,0.0469049590378999,-0.0015131807886064,-0.0019891029223799,0.0009823845466598
5.075617431640625,-0.0148635331382043,-0.0016741802899166,0.047798108485341,-0.0015312600880861,0.0028557088226079,0.0026885466650128
5.08559619140625,-0.0155057582981884,-0.0066962645019404,0.0600683919936418,0.0004125811392441,-0.000522244721651,0.0002163341559935
5.095575439453125,-0.0093078352398239,0.0042607444507069,0.045106969705224,-0.0014396060723811,-0.0003234623000025,0.0006593379657715
5.10555419921875,0.0030376141302287,0.0039797538185492,0.0468985292971134,0.0005252741975709,0.0011197049170732,0.0010798511793836
5.115533447265625,0.0011726422422565,0.0055308557180687,0.0434562798887491,0.0015348724555224,0.0010016271844506,0.0020900145173072
5.12551220703125,-0.0052015506984665,0.0005752608709968,0.0412152229636907,0.0006789325270801,-8.49431380629e-05,-0.000313221826218
5.1354912109375,-0.0118993130377493,0.0014080219007097,0.044207975038886,-0.0002875578938983,-0.0001838728785514,0.0008228129008784
5.14547021484375,-0.0136040528627112,0.0010329780432395,0.0391173739016056,-0.0006116646109148,0.0001444946974515,-0.0003700169618241
5.15544921875,-0.0160947371672838,0.0003885609261691,0.0456985058575868,0.0030935681425035,0.0013467343524098,0.0016965076792985
5.165428466796875,-0.0065208714024163,-0.0043500119030475,0.0521358454287052,0.0014482672559097,-1.60057097673e-05,0.0004283104499336
5.1754072265625,-0.0034777043142355,-0.0059678588958457,0.0486959341078996,0.00159034691751,-0.0002224519848823,-0.0008657953003421
5.185386474609375,-0.0013180603286251,-0.0016275464029051,0.0455552979946136,-0.0014400639338418,-3.44328582286e-05,0.0001549943262943
5.195365234375,-0.0080923950354568,-0.0018125475809909,0.0525865118056535,-0.0004679393023252,0.0001541879028081,0.001225599902682
5.205344482421875,-0.0031041582941077,0.0017553009684197,0.0570727173089981,-0.0003132096608169,0.0002434039488434,-0.0016556740738451
5.2153232421875,-0.0080906597360968,0.0058471733919344,0.0458498970270156,0.0016304280143231,-0.0011776983737945,0.0005417356733232
5.225302490234375,-0.0090818992631509,0.0058625901567749,0.0479465770453214,-0.0005807946436107,-0.0010815579444169,0.0008637118153274
5.23528125,-0.0030690869807265,0.0018877499753609,0.0419628264605999,-0.0020895034540444,0.0020603258162736,-0.0015686859842389
5.245260498046875,-0.0038633974298834,-0.0042780061127617,0.0368733943670988,-0.0001810821704566,-0.0016710292547941,0.0014228428481146
5.2552392578125,-0.0081820826129056,0.0025778511313721,0.0551291820257902,-0.0007132840109989,0.0031867129728198,0.0001951223821379
5.265218505859375,-0.0036531887453049,-0.0064560990705154,0.0456985058575868,0.0004635668592527,-0.0002636788412928,-0.0018909317441284
5.275197265625,-0.0088530589433386,0.0085317363007925,0.0418090972036123,-0.0002776386099867,-0.0010153446346521,-0.000709967687726
5.285176513671875,-0.0070039787442423,0.0020027181245386,0.0470487514227628,0.001703220536001,-1.29304826259e-05,-0.0002910525072365
5.2951552734375,-0.0160259097147732,-0.0016423055806197,0.0527355648875236,-0.0002480530529282,-0.0018438100814819,0.0002022713306359
5.305134521484375,-0.0130793166025541,-0.004576477602683,0.0536333905100822,0.003709404496476,0.0038151405751705,-0.001360471593216
5.31511328125,-0.0096870620820671,0.0060250689757987,0.0460001191526651,0.0027184346690773,-0.0007270537316799,-0.0015803826972842
5.325092529296875,-0.0104839115481823,0.0063272850590758,0.0425607923537492,0.000863010471221,-0.0039833006449043,0.0002140552387572
5.3350712890625,-0.0091003299689851,-0.0035869003097526,0.0480979682147502,0.0005233568372204,-0.0001772437244653,-0.0003287114668637
5.345050537109375,-0.007098488627281,-0.0010941884448751,0.0407663101524114,-0.000201821909286,0.0018669990822672,-0.0013271305942907
5.355029296875,0.0007753865529783,0.0017616576439701,0.0434586179763078,0.0006556146545335,-0.0005438905209302,0.0006848470075055
5.365008544921875,-0.0008784268023446,-0.0016261946960352,0.0524409658551216,-0.0010488084517419,0.0001711677759885,-0.0003074468113481
5.3749873046875,-0.0064390383378602,-0.0021149828599765,0.0430161349058151,-0.0005269061075523,-0.0006304970011115,0.0005060661351308
5.38496630859375,-0.0093898509674705,0.0035148214542306,0.0401730204343795,0.0005032045883126,0.0005050748586654,-0.0006627952679991
5.394945068359375,-0.01779611599138,0.0082188892256468,0.0525935260683298,-0.0023966419976204,0.0012793559581041,0.0003394073573872
5.40492431640625,-0.008494820090197,0.0030621640495955,0.0537900423765182,0.000214587431401,0.0003845337778329,-0.0002906965382862
5.414903076171875,-0.0096355693568475,0.0041371728699654,0.0434679703265428,-0.0012558421585708,-0.0009927861392498,-0.0011690488317981
5.42488232421875,-0.003813347743079,0.0051935317887924,0.0421206473708152,-0.0003144147340208,0.0008333437144756,-0.0002995267277583
5.434861083984375,-0.0017703524070791,-0.0013977927676402,0.0491501076161861,-0.0027372583281248,-0.0004237592220306,-0.0013370759552344
5.44484033203125,0.0035901151801459,-0.0011370594722218,0.0470534275978803,0.0007570752059109,-0.0010176440700888,0.0005447136936709
5.454819091796875,-0.001219951982703,0.0037704767157323,0.0433154101133346,3.63964936695e-05,-0.0020044855773448,-0.0015247097471728
5.46479833984375,-0.0018261377149261,0.007247852236405,0.0500496868044137,-0.000706092803739,-0.0017277831211686,0.000144559686305
5.474777099609375,0.0041845374093391,-0.0004225910599343,0.0391255572080612,-0.0004206335870549,-0.0008977903053164,-0.0003011516237165
5.48475634765625,-0.0103789350700564,0.0009338285177014,0.0341875162839889,-0.0003316840156912,-0.0007033795118331,-0.0010838547023013
5.4947353515625,-0.014005327139981,-0.0033337840652093,0.0470569347292184,0.0021545176859945,0.000629398971796,0.0007768457289785
5.50471435546875,-0.0062914282944053,-0.0002225932421162,0.0463093312323093,0.0017771478742361,0.0010640267282724,-0.0022532988805323
5.514693359375,-0.0055592598286457,0.005370824584458,0.0490033926218748,-0.0018932294333353,0.0005262782797217,0.0003824107116088
5.524674072265625,-0.0161168759338557,-0.0001644881130196,0.0434656322389841,0.0004665976157411,5.1436945796e-05,-0.0001728583592921
5.5346533203125,-0.007894205582235,-0.0004082337410189,0.0461608626723289,-0.0007747537456452,-0.0016226982697844,-0.0007065086392685
5.544632080078125,-0.0062391683842055,-0.0032534123053774,0.0434679703265428,0.0014306099619716,0.0009504482150077,-0.0004140934906899
5.554611328125,-0.009236487036664,-0.0041497035579755,0.0485556488543748,-2.47774878516e-05,0.0007668575271964,-0.0025013575796037
5.564590087890625,0.000144194243662,-0.0011414433863945,0.0478062917917966,-0.002657312201336,-0.001590572297573,0.0009921771707013
5.5745693359375,0.0024735870392993,0.0106169816096313,0.0379313789874315,-0.0012579245958477,-0.0011084200814366,0.0016171021852642
5.58454833984375,0.0011040522517636,0.000144870097097,0.0511024107277393,0.0005370459984987,0.0004402082413434,0.0008836676133796
5.59452734375,0.0012131934483535,-0.00297569134254,0.0515472318857908,0.0001904909149743,0.0019850507378578,-0.0012042929884046
5.60450634765625,-0.0035803975037299,-0.0015195559837855,0.0449620082765817,-0.0008702461491338,0.0005496069788932,-0.0008772567380219
5.6144853515625,-0.0020525120830163,0.0014433489424176,0.0519978982627391,0.0008282140479423,-5.50802797079e-05,0.0002019561070483
5.62446435546875,-0.0118150322877801,0.0014347089782357,0.0430161349058151,0.0016199718229472,-0.000704625621438,0.0012845310848206
5.634443359375,-0.001523190979287,0.0057368631515651,0.0487035328924655,-0.0019779433496296,-0.0008311448618769,0.0001646985474508
5.64442236328125,-0.0096505111976526,0.0158254004403017,0.0430149658620357,-0.0007022893405519,0.0005979072302579,0.0003215587348677
5.6544013671875,-0.0055492498912848,0.0082650116560049,0.0368763169765472,0.0009041933808475,0.0009431801736354,-0.0015556007856503
5.66438037109375,-0.0090083225702866,0.0094625691438093,0.0492956535667181,0.0003409348428249,0.000867280177772,0.0034383588936179
5.674359375,-0.0225260853890329,0.0090758348485454,0.0406166725486516,-0.0007934967870824,0.0005908710882067,-0.0010093379532918
5.68433837890625,-0.0076923446008935,-0.0059699047224596,0.0498930349379777,-0.000319986778777,0.0003759544342756,0.0018050906946882
5.6943173828125,-0.0098124237610958,0.0002482026074081,0.0473509492397308,0.0023796744644641,-0.002205048687756,-0.0002585359325166
5.70429638671875,-0.0009654292323626,-0.0059381213447079,0.0440548303037881,5.73981669731e-05,0.0024192640557885,0.0001358782174065
5.714275390625,-0.0009878602598793,-0.0088562190148048,0.0579658667564392,-0.0024515688419342,0.0012678205966949,-0.0016218008240684
5.724254150390625,-0.0060540576082654,-0.003218614986632,0.0552718053668737,0.0022425185889005,-0.0009189015254378,-0.0003717130166478
5.734233154296875,-0.0167564159464091,-0.0048147798705846,0.0473439349770545,0.0001153536140918,-0.0004424303770065,0.0011685737408697
5.74421240234375,-0.0148687938352115,-3.79391239024e-05,0.0533276855617761,0.0003491790848784,0.0007208380848169,0.0012732358882203
5.754191162109375,-0.0173652137608267,-0.000109871848952,0.0474918190151453,-0.0018310183659195,9.7183510661e-06,-0.0026397253386676
5.76417041015625,-0.0116053898587822,0.0091514025690965,0.0512345126748085,-2.83247209154e-05,-0.0003559337928891,-0.0015283881220966
5.774149169921875,-0.0029815913603641,0.0074683631192892,0.0458522351145744,-0.0037634586915373,-0.0032097660005092,0.0007042470388114
5.78412841796875,-0.0058184770204126,0.0004258789955638,0.0473527028053998,0.0047820922918617,0.0002837684005498,0.0025540785863995
5.794107421875,-0.0072574055160395,0.0015870134631171,0.0490016390562057,-0.0024170787073671,-0.0009535681456327,0.0001753675896907
5.80408642578125,-0.0030715163998305,-0.0019439919409342,0.0394271705031394,-0.001178708858788,-0.0004390459507703,0.0007450177217833
5.8140654296875,-0.002839826535806,-0.0053143816894851,0.0379302099436521,-0.0006534412968903,0.0002867085859179,0.000139237876283
5.82404443359375,-0.0072719272317364,-0.0019767799656838,0.0395750545412302,0.0011545786401256,-0.0003822771832346,0.002287343610078
5.8340234375,-0.0083977346575818,-0.0061378634341992,0.0476537315785884,0.0003998213214799,-0.0001528998836874,-0.0012768064625561
5.844002685546875,-0.0029779746311716,-0.0033244682475924,0.0466068528741598,0.0001076725893653,0.0001405803486704,0.002178378868848
5.853981201171875,-0.0054946518935263,-0.0068333896839991,0.0558837997853755,-0.0004754916590172,0.0007712552323937,0.0010766579071059
5.86396044921875,0.0032374658175744,-0.003246014450211,0.050644145566225,-0.0003641715447884,-0.0003696428611874,0.0004651961789932
5.873939208984375,0.0010549158804118,0.0096307105186395,0.0448094480633735,9.2437840066e-06,-0.0007100421935319,-0.0012629667762666
5.88391845703125,-0.0026149865376763,0.0045096411778591,0.0478033691823482,0.0018681302899494,0.00094058457762,0.000283264555037
5.8938974609375,0.0010026742365211,0.0059664341237396,0.0470581037729978,0.0012827093014493,0.001235275529325,0.0006220149807631
5.90387646484375,0.0021970533865503,-0.0062108556051738,0.0497469044655561,0.0015546180075034,0.0012808153405785,0.0010065754177048
5.91385546875,-0.0160578392229974,-0.0089012637329287,0.0376233359515666,-0.0030387360602617,0.0005128495395183,-0.0005857480573467
5.92383447265625,-0.015242211991176,-0.006221303933952,0.0455558825165033,0.0015171334380283,0.0006132507696747,0.0015090944943949
5.9338134765625,-0.016707517037075,-0.0028545674472115,0.048999300968647,0.0004061827203258,0.0012111756950616,5.52268029423e-05
5.94379248046875,-0.0112068737941794,-0.0032677513579837,0.0425637149631977,0.002291434444487,0.0012314151972532,-0.000417484290665
5.953771484375,-0.0120515992563217,0.0024413835364393,0.0421130485862493,0.0007239556871354,0.001516405493021,0.0012452607043087
5.96375048828125,-0.0076551909282803,0.0026374540978111,0.0289431858897209,0.0011695026187226,-0.0008383616805076,0.0001760014274623
5.9737294921875,-0.0087318254501558,-0.0015437771095894,0.0452606989622116,-0.0021764212287962,-0.0021711578592658,0.0008323538932017
5.98370849609375,-0.0127563682585023,-0.006235862182267,0.0409206239312887,-0.0002142043085768,0.0004049176350235,0.0002355394826736
5.9936875,-0.0142169240640476,0.0024750300777144,0.0442138202577829,-0.0019286528695374,0.0013669524341821,-0.0014114878140389
6.00366650390625,-0.0059831660628318,0.0007474756327457,0.0436164388865232,0.0017278674058616,0.0008196728304028,0.0007557926583103
6.0136455078125,-0.0098315120540559,0.0096469492673873,0.0424193380564451,-0.0010942595545202,0.0010225251317024,0.0007870780536904
6.02362451171875,0.0015413111578673,-0.0007077829431742,0.0497533342063426,-0.000860700267367,0.0001966785639524,0.0007284885505214
6.033603515625,-0.007632558971364,-0.0007476948284544,0.0466091909617185,1.73669541254e-05,0.0009814333170652,0.0005584916798397
6.04358251953125,-0.006836147896666,-0.000161857764516,0.0555886162310838,0.0001310839434154,-0.0013211360201239,0.0019444008357822
6.0535615234375,0.005421075200662,-0.0044774376749992,0.0352414092510938,-9.49932145886e-05,-0.0005214130505919,-0.0013896537711843
6.06354052734375,-0.0064094651835039,0.0014503997377119,0.0434703084141016,0.000771333114244,-0.0004324633628129,-0.0004266547039151
6.07351953125,0.0004219334728084,-0.0110551355648785,0.0502051696270704,-0.0016557401977479,-8.91778618097e-05,-0.0025001745671033
6.08349853515625,-0.016251790892519,-0.0072578804400749,0.0403290877789258,0.0005054149660281,0.0002136239781975,0.0008676588768139
6.0934775390625,-0.0107714780515991,0.0071173759908415,0.0454155972629785,0.0004667173488996,0.000540561042726,0.0005401651142165
6.103456298828125,-0.0131993993182666,0.0096195680701173,0.0466080219179391,0.0015849785413593,-0.0013082046061754,-0.0001269567001145
6.113435302734375,-0.0109091146903112,0.0007594400651752,0.043316579157114,0.0021189332474023,-0.000531536526978,0.0005679981550201
6.123414306640625,-0.013533983301185,-0.0042518852908164,0.0539437716335058,-0.0014614204410463,-0.0006183562800288,-0.0022176683414727
6.133393310546875,-0.006132602737192,0.0004760017476044,0.0452677132248878,-3.23641579598e-05,-0.0019482113420963,0.0025732547510415
6.143372314453125,-0.0027897951153106,0.0055164983991533,0.0388327117413282,0.0005894839414395,0.0026401486247777,-0.0003279928350821
6.153351318359375,-0.0029385011373087,0.0057611573426052,0.0427186132639646,-0.0009741108515299,0.0002974309027194,-0.002222342416644
6.163330322265625,-0.0061317076880484,-0.008096614552848,0.0472112485080957,-0.0019943679217249,0.0002074167132377,0.0010237847454845
6.173309326171875,-0.0087269483456388,-0.0039938371428288,0.0466097754836082,0.0006631619180552,0.0018034968525171,-0.0001721309381537
6.183288330078125,-0.015156269007083,-0.002326196191553,0.0469096352130174,0.0008969874470494,0.0005022762343287,0.0023623995948582
6.193267333984375,-0.0080879197897389,0.0058302405234426,0.0499012182444334,0.0006777524249628,0.0005841078236699,0.0010778236901387
6.20324658203125,0.001788673515059,0.0079913640800863,0.0371831909686326,0.0008777558105066,-0.0003272257745265,-0.0001272567315027
6.213225341796875,-0.0115918727900832,-0.0029603659092448,0.0498977111130952,-6.88310246914e-05,0.0010803742334246,0.0011785546084865
6.22320458984375,-0.0126799054888077,-0.0003453976378776,0.0558808771759271,0.000858215324115,-0.0006413590162992,-0.0027139214798808
6.233183349609375,-0.0146149834709241,0.0026117534009739,0.0466056838303804,0.0021416721865534,-0.0017975233495235,0.0008694956777617
6.24316259765625,-0.0070612618894316,0.0011510697312653,0.0434656322389841,-0.0001808706438168,0.0019926875829696,-5.83496439503e-05
6.253141357421875,-0.00679557842426,0.0004840571898967,0.0466086064398288,-0.0003223309176973,-0.0001488514244556,-0.0006365011213347
6.26312060546875,-0.0094936766681261,0.0003417626423761,0.0460100560247898,0.0009136421722359,0.0008373176679015,-0.0015329211018979
6.273099365234375,-0.0059976512459106,0.0034388336085714,0.0481043979555368,0.0028079214971512,0.0019042454659938,0.0003885845653712
6.28307861328125,0.0032879904284141,-0.0046340712751261,0.0515466473639011,0.0002086762106046,-0.0016284380108118,-0.0005938555113971
6.293057373046875,-0.0009428338080644,0.0039017749452032,0.0498994646787643,-0.0028597966302186,0.0012808963656425,0.0003713639453053
6.30303662109375,-0.0022773886137641,-0.0032542890882119,0.0488490788429975,0.0015080538578331,-0.0004189992323517,-0.0009375797817483
6.313015380859375,0.0019502938175573,0.0082709847390651,0.0512467876344919,0.0004212651401758,0.0002838596701622,6.91921086399e-05
6.32299462890625,0.0026396095222793,-0.0001717581040225,0.0554378095835447,-0.0018576016882434,-2.63983383774e-05,0.0007586845313198
6.332973388671875,-0.007625636040233,0.0027245843919925,0.0481079050868749,0.0011340508935973,4.13972884416e-05,-0.0011432053288444
6.34295263671875,-0.0124778618443757,0.0018981617715209,0.0512473721563816,-0.0015791775658726,-0.000417198985815,0.0012296711793169
6.352931396484375,-0.0063795084366574,0.0032994251378811,0.0365893167287111,0.0008756976458244,-0.0019077602773904,0.000808362616226
6.362910400390625,-0.0082152359638363,0.0053915568452328,0.0476648374944925,-0.0012825280427932,-0.0011759242042899,0.0001167397131212
6.372889404296875,-0.0035802513732574,0.0044729989618994,0.0437742597967386,0.0027736644260585,0.0016633160412311,-0.0020072299521416
6.382868408203125,-0.0059687722112983,-0.0006591032295487,0.0514040240228176,0.0002082414575852,0.0009759543463587,0.0020642108283936
6.392847412109375,-0.0154243453587405,-0.0033043387750163,0.0515536616265773,0.0016465426888316,-0.0001055048778653,-0.0016889312537387
6.402826416015625,-0.0010796484628692,0.0024337664855644,0.04886310736835,0.0015930130612105,-0.000645593740046,-0.0001485589018557
6.412805419921875,-0.0030004969902336,0.0027543036768212,0.0439285735756158,0.0024104488547891,0.0010462058708071,0.0016109331045299
6.422784423828125,-0.0080404456525109,-0.0043991482743993,0.0406382998585701,0.0005121475551277,0.0003671003505587,-0.0005542168510146
6.432763427734375,-0.0098074005261063,-0.0061158890644088,0.0385451269716024,0.0016021906631067,-0.0002503553405404,-0.0007802158943377
6.442742431640625,-0.0030164800106547,0.0010897131991572,0.053510640913248,0.0012770186876878,0.0008924063295125,0.0002701348566915
6.452721435546875,-0.0044273879881948,-0.0017475925859995,0.0497685317754745,0.0018580794567242,0.0008243210613727,7.87683093221e-05
6.462700439453125,-0.0059127311751246,-0.0009918788478709,0.0449807129770517,0.000307587091811,0.0006442917510867,-0.0008858286309987
6.472679443359375,-0.011261855384428,-0.0002306304180994,0.0490220973223447,0.0007064252858981,0.0002743797376751,0.0010053465375676
6.482658447265625,-0.0002199811599217,-0.0016706183596514,0.0443809935182333,-0.0041306740604341,-0.0015986217185854,-0.0002375507319811
6.492637451171875,0.0018135704942978,-0.0021686675422824,0.0446814377695322,-0.000615092460066,0.0007152454927563,0.0001076200715033
6.502616455078125,-0.0139682830652222,-0.000489719745703,0.0457277319520711,-0.0001431803102605,0.0007168436422944,-0.0004122289537917
6.512595703125,-0.0106308457382023,0.0010934943251311,0.0371983885377645,-0.0021238201297819,-0.0001901816576719,-0.0007830471731722
6.522574462890625,-0.0112510234631598,-0.0075192895889282,0.0186450792372226,-0.0023091761395335,-0.0017313528805971,-0.001946848584339
6.5325537109375,-0.0067608724370598,0.0039031631846912,0.0487228221148252,-0.0003248949069529,0.0005606524646282,-0.0004795854911208
6.542532470703125,-0.0052079256403259,0.0060481758567504,0.0487216530710458,0.0018098949221894,0.0017721243202686,0.0007036569295451
6.55251171875,-0.0055525560932233,0.0016793131227605,0.0551543164670467,-0.0009728555451147,-0.0003471057862043,3.51976232195e-05
6.562490478515625,-0.001916555944737,0.0075683894276618,0.0482704021722078,-8.44250316731e-05,0.00126463919878,-0.0012971818214282
6.5724697265625,0.0057385984509252,0.0034971761996857,0.0503618214935064,0.0015803845599293,0.001095987856388,0.0003297693328931
6.582448486328125,-0.0007253185998648,0.0021254677213728,0.0563426494687795,-0.0001317616552114,0.0017676372081041,0.0006714529008604
6.592427734375,-1.36084002442e-05,0.0055714799894019,0.0469148959100246,0.0009635575697757,-0.0002934923395514,-0.0012586747761815
6.60240625,-0.0103504030953161,-0.0023098113123327,0.0455722491294145,0.0004535621847026,-0.0020365314558148,0.0002396195777691
6.612385498046875,-0.0041474933345802,-0.0031321057469584,0.0464729973614215,0.0002992930822074,0.0005373721942305,0.0010955642210319
6.6223642578125,-0.0051656391348689,-0.0041165684733539,0.039139001211524,0.0018798791570588,0.0008124774321913,0.0004880971973761
6.632343505859375,-0.0057819809349253,-0.0018530805207788,0.0476677601039409,-0.0007845248328521,3.72240319848e-05,0.0011846839915961
6.642322265625,-0.0051062005652114,0.0025724991028197,0.0512567245066165,-0.0005184750771149,0.000223378650844,-0.0010763397440314
6.652301513671875,-0.0208000653140246,0.0010621310724876,0.041975685942173,-0.0018282264936715,0.0011537335813045,-0.0023356117308139
6.6622802734375,-0.0095172950057312,0.004542173474282,0.04526362157166,0.0007465176167897,0.0002128388732671,-0.0004932368756271
6.672259521484375,-0.0057990234012715,0.008344068241585,0.0418196185976266,-0.0023658648133277,0.0008433992043137,-0.0001011561689665
6.68223828125,-0.0062597362481988,-0.0032489370596595,0.0337345118194818,-0.0029301890172064,0.0002077026292681,0.0014277645386755
6.692217529296875,-0.01381849933099,-0.0003527954930439,0.0410632472723722,-0.0010551072191447,1.396983861923218e-07,-0.0006747959996573
6.7021962890625,-0.0078662033304572,-0.002919175382331,0.0413613534361124,-0.0009618965559639,-0.0001972001045942,0.0019398954464122
6.712175537109375,-0.0013623195954598,-0.0075566259246319,0.0503407787054777,-0.0012371479533612,-0.0009097354486584,0.0019259708933532
6.722154296875,-0.0078175784157589,-0.0014085881562903,0.0434609560638666,-0.0007098420173861,-0.0017947042360901,0.0001203477222588
6.732133544921875,-0.0132408273071981,-0.0021635712420567,0.0480985527366399,0.000298406346701,0.000645556487143,0.0028782633598893
6.7421123046875,-0.0010230777037329,-0.0052323111629113,0.0433101494163274,-3.15593206323e-05,0.0007725898176431,0.0010460087796673
6.752091552734375,-0.0022610220008529,0.0030268187415786,0.0403173973411321,0.000680262746755,-0.0005864007398486,0.0005114543018862
6.7620703125,-0.0120294056908227,0.0096565938785672,0.0380699106752872,-0.0002747467951849,-0.0005773454904556,3.52810893673e-05
6.772049560546875,0.0030398243536241,0.0118555834938772,0.0368769014984369,0.0017939871177077,0.0007635215297341,-8.05380914243e-05
6.7820283203125,0.0021371581591665,0.0119596283902414,0.0463034860134124,0.0010823905467987,0.0014551440253853,-0.0010552550666034
6.79200732421875,-0.0054707595612853,0.0116684086250141,0.058421209308505,0.0016363416798412,0.0006694523617625,-0.0014985735761001
6.801986083984375,-0.0016524981810711,-0.0030343627272173,0.0470522585541009,0.0026456795167177,-9.6531584858e-06,-0.0014266682555899
6.81196533203125,-0.0066149976929649,-0.0034935777368023,0.0451052161395549,0.0013367293868213,0.0018588565289974,6.96329370839e-05
6.821944091796875,-0.0066973604804836,-0.0008996339871548,0.0442097286045551,-0.0002350683207623,-0.0010884637013077,-0.00028510010452
6.831923095703125,-0.0023326441986486,-0.0067017443946562,0.0482487748622894,-0.0035588275641202,-0.000454006716609,0.0007283193990588
6.841902099609375,-0.0037380722834728,-0.0018058621118776,0.0383715239703655,-0.0013649156317114,0.0014448268339037,0.0026945311110466
6.851881103515625,0.0014440978610888,-0.0051545514852739,0.037624504995346,-0.0014821777585893,-0.0008209412917494,-0.0003577074094209
6.861860107421875,-0.0032115641913376,0.0010658391332253,0.04824760581851,-0.0014140007551759,-0.0004315869882702,-0.0014530655462294
6.871839111328125,-0.0140958184350281,0.0037349122120067,0.0554307953208684,-0.0014665987109765,-0.0017281956970691,-0.0002252133854199
6.881818359375,-0.0141565539126284,0.0028369952579028,0.0614215601682662,-0.0007984116091392,-0.0021452466025948,-0.0027267206460237
6.891797119140625,-0.0099506997206248,0.0038894086539745,0.0458598338991403,0.0008905876311473,0.0002672933042049,0.001083003822714
6.9017763671875,-0.0067711015701293,0.0035000805428251,0.0416746571689844,0.0015646337997168,-0.0014680223539471,-0.001880295574665
6.911755126953125,-0.0095881500185467,0.013543682711292,0.0482657259970903,0.0019887508824467,-0.0037961644120514,-0.0011723366333171
6.921734375,-0.0094268767759203,-0.0009512728428468,0.0469242482602596,-0.0030108015052974,-0.0015487223863601,-0.0034709107130765
6.931713134765625,-0.0051314446043223,-0.005941281416174,0.0532107811838388,0.0002172801760025,-0.0010106535628437,0.0004977872595191
6.9416923828125,6.32562282495e-05,-0.004084346704185,0.0500683915048837,0.0024271712172776,0.001707368530333,-0.0012612306745722
6.951671142578125,0.0031113186872564,0.0022533318847417,0.0451285970151424,0.0027102432213723,-0.0004271091893315,-0.0006026320043019
6.961650390625,0.0039435317276977,-0.0041362960871309,0.0439344187945127,0.0002841034438461,-0.0010196631774306,-0.00106202729512
6.971629150390625,-0.0187883236328139,0.0012411591675132,0.0404927539080381,0.0005457512452267,-3.14302742481e-05,0.0014934637583792
6.9816083984375,-0.0111538832316175,0.0082538509411737,0.03929565307796,0.0024629610124975,0.0003344872966408,-0.0004426543891895
6.991587158203125,-0.0131692233757115,0.0059355823277495,0.0367547364234924,0.0005993628292344,-0.0010664584115147,-0.0024535574484616
7.00156640625,-0.0156386274302378,0.0049023120235651,0.0565092382073402,0.0005381100927479,0.0001055989414453,0.0010668750619515
7.011545166015625,-0.0136005822639912,-0.0006801460175774,0.0584551115781068,0.0015760839451104,0.0015010647475719,0.0021983473561704
7.0215244140625,-0.0084366784284822,0.0046836095052771,0.0448357515484094,-0.0004697563417721,-0.0002648774534463,-0.001278675859794
7.031503173828125,-0.0101233346074819,-0.0010232238342054,0.0478273345798253,-0.0019625581335276,-0.0002462221309542,-0.0015900763683021
7.041482421875,-0.0049707010846585,0.0040899909936822,0.0493231260955333,0.0011149910278618,0.00019346550107,-0.000894725031685
7.051461181640625,-0.017335878068488,0.0021855456118471,0.0395984354168176,-0.0006688424036838,-0.0022211149334907,0.0021812671329826
7.0614404296875,-0.0114177583321928,-0.0016253727121278,0.0521685786545276,-0.0008760363562032,-0.0006599696353077,-0.0008150553330779
7.071419189453125,0.0020643121186643,0.0051131600289605,0.0400485172718763,-0.0014061706606298,-0.0007808087393641,0.0013740563299506
7.081398193359375,-0.0088258786754682,0.0007035268931649,0.0406470676869153,0.0004617705708369,0.001955322921276,0.0013849753886461
7.091376953125,-0.002429839229118,-0.0031388825476169,0.0373544558823108,0.0013615411007776,0.0030189380049705,-0.00016364538169
7.101356201171875,0.0046687772623263,-0.0008266783487983,0.0392938995122909,-0.0031144334934651,0.0009049214422702,-0.0014851058367639
7.1113349609375,0.0020836926725693,-0.0011496814917773,0.0368985288083553,0.0022239694371819,0.0003209766000509,0.0005349033162929
7.121314208984375,-0.0043320013223215,0.0038766587702557,0.050517304316163,-0.0014493286143988,-0.0012540165334939,0.0001689849596004
7.13129296875,-0.0090697521676309,0.0084659045229665,0.0443850851714611,0.0029273740947246,0.0007549710571765,0.0012735223863273
7.141272216796875,-0.0170431969985365,0.0075353456745855,0.0524637622088193,-0.0013403414050117,0.0012625698000192,0.0014245236525312
7.1512509765625,-0.0042119734055362,-0.0098498331620357,0.0424368737131357,0.0003591539571061,-0.0012152958661317,3.45245789503e-05
7.161230224609375,-0.0190729492604732,0.0038439803433604,0.0479775567054748,0.0002065547741949,-0.0008911890909075,0.0008744855877012
7.171208984375,-0.0118124567382037,0.0092092337035574,0.0446866984665393,-0.0002261720364913,0.000680286437273,-0.0005030411412008
7.181188232421875,-0.0056402709092944,0.001640332819242,0.055163084295392,0.0013554793549701,-0.0006971005350351,0.0020147112663835
7.191168212890625,-0.0058906289411708,0.010171886456944,0.0461889197230339,0.0020514242351055,-0.0009864242747426,0.0024364166893064
7.201147216796875,-0.0084362400370649,0.0032167883557267,0.0550222145199775,-0.0017776687163859,-0.0024165417999029,0.0003144100192002
7.211125,-0.0041111068469472,0.0120237431350164,0.0393131887346506,-0.0007586891879327,-0.0003579724580049,0.0012495871633291
7.221104248046875,-0.0100577585579827,0.0011380093202926,0.0382674790740013,-0.0008833251195028,0.0018868055194616,0.0002727395913098
7.231083251953125,-0.0039413945695385,0.0158936616372317,0.046798576053977,0.0001868901890702,-0.000833979807794,-0.0005803068634122
7.241063232421875,0.001177665477246,0.0127369329056702,0.0518845010161399,-0.0044816308654844,-0.0024851402267813,0.0014159987913444
7.251042236328125,-0.0071106905217282,0.0022559257006272,0.0421563032060861,0.0004927480476908,0.0017582094296813,-0.0001254395465366
7.261021240234375,-0.002264876192063,-0.0005721373321488,0.0429091674000024,0.0005039333482272,-0.0021142931655049,0.0013598053483292
7.271000244140625,-0.0046476614090614,-0.0083483425579033,0.051591655549407,-0.0012546733487397,8.42930749058e-05,0.0001182910928037
7.280979248046875,-0.0120892643855884,-0.0180494879642501,0.0503963082849979,0.0011600147699937,-0.001376717351377,-6.73312242724e-05
7.290958251953125,-0.0157039112187922,-0.0115061124690808,0.0453068761914968,0.0008731930865906,0.0010840911418199,0.0016480453778058
7.300937255859375,-0.0054556167910806,-0.0135949927734211,0.0535392824858427,0.0016404499765485,-0.0012483056634664,0.0006458978750742
7.310916259765625,0.0085354443615302,-0.0019642492776736,0.0474076478630304,-0.0003336324589326,-0.0009080069139599,-0.0011013008188456
7.320895263671875,0.0106488928515464,0.0018588526744395,0.0459165325224399,0.0008924868889153,-0.0017327880486845,0.001612726598978
7.330874267578125,-0.0007602803153917,0.0021959939406253,0.0394856226921081,0.0003238834324292,-0.0030025662854313,0.000564650108572
7.340853271484375,0.007581961295288,0.0038052557681687,0.0378413626164197,-0.0018543159822002,-0.0009841565042734,0.0035732232499867
7.350832275390625,-0.0107093908671289,0.0074452379720285,0.0484668015271425,0.0018535635899752,-0.0005808621644973,0.0014229709049686
7.360811279296875,-0.0112123171542771,0.0124617509597912,0.0445797309607267,0.0019015003927052,0.0005272794514894,0.0013547939015552
7.370790283203125,-0.0205918476571328,0.0101782613988034,0.0490659364640712,-0.0006523745832964,0.0014358172193169,-0.0007795346318744
7.38076904296875,-0.0183973332875408,0.0006788856422528,0.0409855058610439,0.002197474008426,0.0012145079672336,-9.93633002508e-05
7.390748046875,-0.0147742108869366,-0.0041364970165304,0.0427805725842714,0.0007022668723948,0.0019364459440112,0.0010848226957023
7.40072705078125,-0.0078564673877321,-0.0070116140614263,0.0474193383008241,-0.0022261450067162,4.61349263787e-05,-0.001327202306129
7.4107060546875,0.000876490573585,0.0013625205248594,0.0495095885783433,-0.0022922155912965,-0.0007276758551597,-0.0002097315300488
7.420685302734375,0.0026357918636873,-0.0030273484645411,0.0421755924284458,-0.0006450505461543,0.0015312172472476,-0.0011642083991318
7.4306640625,-0.0053842868542298,0.0075792213489301,0.0394797774732112,0.0008254894055426,-0.0005566412582993,0.0008992966031655
7.440643310546875,-0.0063735718862153,0.0113087267334572,0.0493570283651351,-0.0015239513013511,-0.0007909992709755,-0.0002053826174233
7.4506220703125,-0.0012154767369851,0.0185702787016518,0.0453144749760627,7.8123412095e-06,-0.0001738043501973,-0.0013903654180467
7.460601318359375,0.0076830835822038,0.013768266981095,0.0472615173906087,0.0006488351500593,0.001619036309421,0.0017143477452918
7.470580078125,0.0071110375816002,0.0115339685903862,0.0418751481771469,-0.0002303631627,-0.0001257425174117,0.0009904267499223
7.480559326171875,0.0029747049618512,0.0059381213447079,0.0412730906307697,-0.0011600727448239,0.0030593983829021,0.0001888152328319
7.4905380859375,0.0089457421954721,0.0069325940084643,0.0481552513599395,-0.0003447076887823,0.0011274134740233,0.0018198664765805
7.500517333984375,0.0047325084146112,-0.0062506213599815,0.0472568412154912,1.48190301842e-05,0.0001388480886816,0.0004099890356883
7.51049609375,-0.0124914702446199,-0.0046529221060685,0.0382774159461259,-0.00030343135586,0.0006035156548023,9.3128226581e-05
7.520475341796875,-0.0164067622585222,0.0039942755342461,0.0460574022978544,0.0006244140095077,0.0017172498628497,1.66954996529e-05
7.5304541015625,-0.0311257906258106,0.0037699104601517,0.0465063151091337,0.0007106187404133,0.0011748522520065,0.0009386361343786
7.540433349609375,-0.0230442092453129,0.0102267767156474,0.0512953029513359,-0.0010971350129693,-0.0006398260593414,0.0002869606250897
7.550412109375,-0.0107951694544404,0.0171621289367787,0.0463514168083667,-2.50514131039e-05,0.0026065092533826,-0.0003384230076335
7.560391357421875,-0.00877763735326,0.0170890089016407,0.0535334372669458,-0.00059177208459,-0.0010303035378456,0.0016586814308539
7.5703701171875,0.0032663996511138,0.009478040707577,0.0432043509542942,-0.0033476473763585,0.0007536765187978,-0.0002386433479841
7.580349365234375,0.0124466812548227,0.0005485555271618,0.0352729734331369,-0.001373445848003,-0.0012143990024924,0.0001587002770975
7.590328125,0.0100663254569284,0.0013622099976055,0.0488917489409446,0.0005478349048644,-0.0004077907651662,0.0001248409243999
7.600307373046875,0.0029193032464943,-0.0039408100476488,0.0500882652491331,-0.0024828424211591,0.0004287082701921,0.0013826518552377
7.6102861328125,-0.0046572694876231,-0.0062591882589273,0.0491904396265745,4.81308088637e-05,0.0004389369860291,0.0004763052565976
7.62026513671875,-0.0106784477395936,-0.0137054856768809,0.0345294615894556,0.0015592083800584,-0.0010279323905706,0.0007974824984557
7.630243896484375,-0.0114481717367656,-0.0142803081564605,0.0435077178150415,-0.0001137282233685,0.0025518108159303,-0.0001943802926689
7.64022314453125,-0.010234960022103,-0.0127205114938318,0.0481441454440355,0.0009733740589581,0.0007453886792063,-0.0008479200187139
7.6502021484375,-0.0079626129096373,-0.0068083100416697,0.0467933153569698,-0.0015831927303224,0.0017990712076425,0.0025652288459241
7.66018115234375,-0.0083176734250038,-0.0013474325535818,0.0415536611378192,-0.0010215321090072,0.0007838737219572,0.0003990136028733
7.67016015625,-0.0020448219669051,0.006515902966354,0.0488841501563787,-0.0021840187255293,-0.0013224221765995,-0.0003860826836898
7.68013916015625,-0.0090386994422413,0.0077935764856636,0.0506762942701578,0.0002176199341192,0.0017758989706635,-0.000488081772346
7.6901181640625,-0.0102475089764222,0.0126457840234972,0.03750526252985,-0.0010904601076617,0.0013950718566775,-0.0005597213166765
7.70009716796875,-0.0007844101096503,0.0046407750105485,0.0422954194158315,-0.0009628946427255,0.0009223604574799,0.0015042284503579
7.710076171875,-0.0009743431911803,-5.0415012985e-06,0.0364560457378625,-0.0002955785021185,-0.0006562853232026,-0.0004300128784961
7.72005517578125,0.0025313451085239,-0.0108214729394763,0.0357090267628431,0.002270377241075,-0.0010640146210789,-0.0004686287138611
7.730034423828125,0.0079688417210243,-0.0095647874092683,0.0443862542152404,-0.0002906456356868,0.0005934033542871,0.0006444468162953
7.74001318359375,0.0015008878159336,-0.0129161619300954,0.0446866984665393,0.0001959138317033,3.49385663866e-05,-0.0007585064740851
7.749992431640625,0.005639083599206,-0.012650204470288,0.0442354475677013,-0.0015924051403999,0.0007597645744681,0.0011168388882651
7.75997119140625,0.0003185644298791,-0.0002246938676573,0.0433393755108118,-0.0009210222633555,-8.12616199254e-05,0.0002984495076816
7.769950439453125,-0.009253127644211,0.0040837256496772,0.0400496863156557,0.0004091109149158,0.0009422358125448,-0.000784469069913
7.77992919921875,-0.01544325098861,0.0044330505440011,0.0491769956231117,-0.0001131349126808,0.0014588888734579,0.0015825486043468
7.789908447265625,-0.0146281352134421,0.0158388809763826,0.0517196658432483,-0.000578727456741,-0.002078684978187,0.0003958477755077
7.79988720703125,-0.0094051946670748,0.0096986063893884,0.0506786323577165,-0.0017870035953819,0.0003618355840444,-0.0006473123794421
7.809866455078125,-0.0003280081116594,0.0093117990288883,0.0490267734974622,-0.0003160288324579,0.002280325628817,0.0007270089699886
7.81984521484375,-0.0030860563818365,0.0014012268337421,0.0395984354168176,0.0007556271739304,-0.0009346427395939,0.001397859188728
7.829824462890625,0.0085174155144952,0.0072464457306079,0.0478302571892738,0.0011133542284369,-0.0007155062630772,-0.000526571588125
7.83980322265625,0.0021901669880375,-0.0059191974485293,0.04408873257339,0.000102152058389,0.0024552531540393,0.001136306207627
7.849782470703125,0.0070222267869859,-0.007811404403299,0.0358569108009338,0.000352986739017,0.0003901328891515,-0.0011827419511973
7.85976123046875,-0.0066442785863764,-0.0031518333607353,0.0535164861321449,-0.0004108077846467,-0.0003600800409913,-0.0007699520210735
7.869740234375,-0.0066368076659739,-0.0024321407840587,0.0481295323967933,0.002232049126178,0.0003856346011161,-0.0028336984105408
7.879718994140625,-0.0117023839598521,0.0070878576354123,0.0469318470448255,0.0008362864609807,0.0023321388289332,-0.000549505057279
7.8896982421875,-0.0139467653531581,0.0008917794742621,0.0431926605165004,0.0001846545492298,0.0019809734076261,0.0002318836050108
7.899677001953125,-0.0157510382961481,0.0066443333853036,0.0412479561895132,-0.0005887273582629,0.0001769484952092,0.0003083163464907
7.90965625,-0.0072950341126881,-0.0076640683544799,0.0454383936166763,-0.0006337348022498,-0.0024212319403886,0.0005583871388807
7.919635009765625,0.0065326897043734,-0.0064931979442015,0.0425923565357923,0.0003314738278277,0.0026869568973779,-0.0002503910509403
7.9296142578125,-0.0036895934992469,-0.005118530323822,0.043189737907052,0.0014073511119931,-6.28698617219e-05,0.0016386242350563
7.939593017578125,-0.003224862064328,-0.0079541008096188,0.0464817651897668,-0.0013104048557579,0.0019060047343373,0.0005832135211676
7.949572265625,-0.0103312234708108,-0.0003142901135608,0.0569552284091711,0.0001714515965431,-0.0001860596239566,-0.001180461840704
7.959551025390625,-0.0127607156400568,-0.0055157312141731,0.0481295323967933,-0.0014072703197598,3.41832637786e-05,0.0013061317149549
7.9695302734375,-0.0084685714040882,0.0018525142651982,0.0490244354099035,-0.003479131264612,0.0009237620979547,-0.0013313586823642
7.979509033203125,-0.0093601316826418,0.0019687793223187,0.0545604422271251,0.0010533025488257,-0.0016874680295586,0.0019544493407011
7.98948828125,-0.0019529972312971,0.0063043608412146,0.0542629205852746,-0.0013491228455677,-0.0002593053504824,0.0008014970808289
7.999467041015625,-0.0063427200902253,0.0111626145273447,0.0505196424037218,-0.0011339394841343,-0.0006348108872771,0.0006587516400031
8.0094462890625,-0.001125350768119,0.0075491184716112,0.0460293452471494,0.0008216266869567,0.0005483739078044,0.0025007999502122
8.019425048828126,-0.0016765366437844,0.0053044448173604,0.0500707295924425,-0.0013118316419422,-0.0003946516662836,-0.000257435865933
8.029404296875,-0.0086887717597186,0.0001155344047583,0.03810205937922,0.0009743131813593,-0.0030155899003148,-4.08040723414e-05
8.039383056640625,-0.0127989835575222,-0.0004740655188448,0.04364098880589,0.0018579501193016,-0.0010200832039117,-0.0005449404707178
8.0493623046875,-0.0020110658277757,0.0012782763075083,0.0415431397438049,-0.0007341753225773,0.0012312801554799,0.0022324840538203
8.059341064453125,-0.0097149730022996,-5.9913493692e-06,0.0410907198011875,0.0024698737543076,-0.0011445265263319,-0.0003372000646777
8.0693203125,-0.0004265548489987,0.0056047064055688,0.0412432800143957,-0.0030223133508116,-0.002535181120038,-0.0010346523486077
8.07929931640625,0.0031929142897948,0.0025169695232994,0.0484282230824232,0.0003239485085941,-0.0018675262108445,0.0010471406858414
8.0892783203125,-0.0022016564964316,0.0041196372132748,0.0430430229127407,0.0012760963290929,0.0007073627784848,-0.0002025562280323
8.09925732421875,-0.0036274332495406,0.0092483236049301,0.0539653989434242,-0.0003516277647577,-0.0009232908487319,-0.0005314566078595
8.109236328125,-0.0059911484398879,0.0114582182067446,0.0603998159050941,-0.0009870609501376,-0.0017184196040034,0.0031544670928269
8.119215087890625,-0.0131008343146182,0.0111144097377546,0.043943186622858,0.0003232142771594,-0.0014656856656074,0.0005996967083774
8.129194091796874,-0.0119013405980542,0.0031762554159387,0.0488812275469303,-0.0006598116015084,0.0014880131930112,0.001416629878804
8.139173095703125,-0.0056499155204743,-0.0010089761131443,0.0415507385283708,0.002074722200632,-0.0001082858070731,-0.0008630359661765
8.149152099609376,-0.0072759823523461,-0.0034150508741848,0.0399076474964618,-0.0011723322095349,-0.0005301451310515,-2.91652831947e-05
8.159131103515625,-0.0056236851006746,-0.0027660306472331,0.0363175140500068,-0.0008359749335795,0.0011737458407878,0.000383624661481
8.169110107421876,-0.0108122301870957,0.0022610220008529,0.0408066421627998,0.0015526823699474,0.0005062697455286,0.0006263367831707
8.179089111328125,-0.0131759453774429,-0.0074574946654029,0.0414063616216182,1.1246302165e-06,-0.0009227823466062,0.0011107658501714
8.189068115234376,0.0029126360436901,-0.0080468023280613,0.0448462729424238,0.0007249832269735,0.0003620758652687,-0.0002411078312434
8.199047119140625,-0.0041164588754996,0.003831723649986,0.0408072266846895,-0.0005621224408969,0.0009378511458635,-0.0007159494562074
8.209026123046876,-0.0067880709712393,0.0051896958638913,0.0354179348617792,-0.0008001453825272,0.0018434729427099,-0.0009721429669298
8.21900537109375,-0.0030634244249202,0.0056712505694478,0.0440939932703971,0.0014779225457459,0.0023990087211132,-0.0007151479367166
8.228984130859375,-0.0022778818041086,0.0048891602810472,0.0476882183700799,0.0002885895082727,-0.0010372465476393,-0.0008763142395764
8.23896337890625,-0.0050475839794613,0.0038055845617316,0.0526274283379316,0.001204184256494,0.0014080675318837,0.0001878849725471
8.248942138671875,-0.0003563208906911,0.0032240583467297,0.0415542456597089,0.0063032652251422,0.0003357399255037,-0.0005083016585558
8.25892138671875,-0.0091540511839091,-0.0002783602836541,0.0455997216582298,-0.0017868856666609,-0.0021484568715095,-0.0002869929594453
8.268900146484375,-0.0129930813575163,-0.0060043184487149,0.0436550173312425,0.0022867417428642,-0.0002084420993924,0.0007293708040378
8.27887939453125,-0.002472472794447,0.0090815522032789,0.0499403812110424,-0.0002397991484031,0.0006339158862829,-0.001681588939391
8.288858154296875,-0.0091059011932462,0.0049144225864671,0.0457493592619895,-0.0010460146004334,0.0008679237216711,0.0014556974638253
8.29883740234375,-0.0109927013205364,0.0005051365105435,0.0433580802112817,-9.73966671153e-05,-0.0011478224769234,0.0014612900558859
8.308816162109375,-0.0097902301955968,0.0038898287790827,0.0382686481177806,0.0006629503332078,-0.0005159992724657,0.0019903061911463
8.31879541015625,-0.0147576616109348,0.0057000200062058,0.0357242243319749,0.0015657620970159,-0.0007849792018532,0.0010744449682533
8.328774169921875,-0.001489928030502,-0.0011844970768317,0.0461976875513792,-0.004216662608087,0.0026932042092084,-0.0009791440097615
8.33875341796875,0.0094936218691989,0.0037217056705616,0.0518786557972431,-0.0031655130442231,-0.0002663666382431,0.0001393836864735
8.348732177734375,-0.0006655329703353,0.001044230089616,0.0409556952446699,0.0001877712784335,-0.0013730190694332,0.0038233697414398
8.35871142578125,-0.0135527610668912,-0.0015659889413975,0.0481429764002561,-0.0007986635901033,-2.0133331418e-05,0.0014049531891942
8.36868994140625,-0.0097098767020739,0.0069934025513008,0.0426058005392551,-6.43255189061e-05,0.0007911892607808,-0.0002171305386582
8.378669189453126,-0.0083505710476078,-0.0044855296499095,0.0446983889043331,0.0011649895459413,0.001851393841207,0.0018026108155027
8.38864794921875,-0.0124361415944993,0.0038057854911312,0.0342272637724876,0.0009832095820456,-0.0007421365007758,0.0008533586515113
8.398627197265625,-0.0063096763371489,0.0054550870681181,0.0433586647331714,0.0007368671940639,-0.0009437380358576,0.0021231537684798
8.408606201171875,-0.0051797407254576,0.001060194843728,0.0548807602226734,0.0006121492478996,0.001470330171287,0.0004452766152098
8.418585205078125,-0.0111330961719155,0.0035740956271067,0.042758945274353,0.0007359862793236,-0.0003579296171665,0.0004055955214425
8.428564208984374,-0.0064721003572456,0.0092546985467895,0.0456003061801195,-0.0023049430456012,-0.0011595943942666,0.0001616452063899
8.438543212890625,-0.0022722557809203,0.0064844483821652,0.036774025645852,0.0011537042446434,-0.0005667749792337,0.0027686136309057
8.448522216796874,-0.0095219346482306,-0.0012455613479949,0.0606774638026952,0.0024259556084871,0.030591582879424,-0.0008590867510065
8.458501220703125,-0.0132916441789828,-0.0019156791619025,0.1136006602168083,0.0030701742507517,0.0150219462811946,-0.000725129735656
8.468480224609374,0.0020730616807006,-0.0046388022491708,-0.0053758478194475,6.00457424297e-05,0.0007046647369861,-0.0008145885076373
8.478459228515625,0.0039615605747327,-0.0045408217674121,0.0031628479450941,-0.001522138249129,-0.0117192482575774,0.001428592018783
8.488438232421874,0.0009226860691793,0.002261734386906,0.0093219550967216,-0.003146176226437,-0.0109177753329277,-0.0009590306435711
8.498417236328125,-0.0077852287824265,-0.0004345189597457,0.050936991032958,-0.0020420297514647,-0.007076165638864,-0.0016400009626522
8.508396240234376,-0.0144532170379534,0.0098088435645215,0.0498982956349849,-0.0006708732107654,-0.0016255192458629,-0.0004628574533853
8.518375244140625,-0.0006050349547527,0.0130465833767317,0.0497603484690189,-0.0019926000386476,-0.0079289553686976,-0.00077870831592
8.528354248046876,0.0006652589756995,0.0103561387163586,0.0434884285926818,0.0005293148569762,-0.0015573231503367,0.0022528767585754
8.538333251953125,0.0069367952595464,0.0105645938352681,0.0436456649810075,0.0007090782746672,-0.0047744214534759,-0.0014073717175051
8.548312255859376,-0.0003005355828441,-0.005242960421089,0.0545697945773601,-0.0021127173677086,0.0008740620687603,-0.0021922290325164
8.558291259765625,0.0034470534476451,-0.0035450339294038,0.0574111554831266,-0.0008354652090929,0.0004450269043445,0.0002094097726512
