seconds_elapsed,ax,ay,az,gx,gy,gz
0.10936376953125,0.0095705047640018,-0.0045646867001894,0.0505225650131702,4.33669774793e-05,0.003155848942697,-0.0008721722988411
0.119343505859375,-0.0001169774431735,-0.0056211186842527,0.0500713141143321,-0.0017263035988435,-0.0002351542934775,-0.0001549830340081
0.129323486328125,-0.0043683878099545,-0.0040632491172291,0.049471010133624,-0.0002610323717817,-0.0004458101466298,-0.0003563180216588
0.139303466796875,-0.0145077785030938,0.0054281807948835,0.0343541050225496,-0.0005928622558712,0.0010865731164813,-0.0012607275275513
0.149283447265625,-0.0022627207675948,-0.0028025906648021,0.0377969389528036,-0.0003265626146458,-0.0027663707733154,-0.0008117899415083
0.159263671875,-0.0067196271112188,-0.0010143007422331,0.0496188941717147,0.0009506921633146,-0.003914070315659,-0.0005797106423415
0.16924365234375,-0.0048366446425206,-0.0014741276731714,0.0428892936557531,0.0011405756231397,-0.0005747321993112,-0.0010066153481602
0.179224609375,-0.0035640491571277,0.0045116504718549,0.041692192825675,-0.0022834117989987,0.0010460913181304,-0.0007594992639496
0.18920458984375,-0.011417447804939,-0.0028640476616099,0.0467816249191761,-0.0004895064048469,4.5808032155e-05,-0.0008487151935696
0.199184326171875,0.0031840733962133,0.0096520729670766,0.0506762942701578,0.0013841106556355,-0.0018333047628402,0.0014703837223351
0.2091640625,-0.0070344104151241,0.0011010565770789,0.0529220273703336,-3.98816773667e-05,-0.0009984038770198,-0.0022654987405985
0.219144287109375,-0.0007873144527897,-0.0006883201908785,0.0484352373450994,-0.0011080871336162,0.0010646451264619,0.0011352668516337
0.2291240234375,-0.0036263190046884,0.0012728329474106,0.0452957702755928,0.0005132454098202,0.0007463982328772,-0.0013089823769405
0.23910400390625,-0.0070597275194711,0.0085705796069931,0.0376665905714035,0.0028975568711757,-0.0017983373254537,0.0031885041389614
0.249083984375,-0.0004528400677256,0.0096520090349949,0.0461976875513792,-0.0006790686165913,-0.0005911262705922,0.0007575706695206
0.25906396484375,-0.0047381527041085,0.0015766290664207,0.0626589930087327,0.0004778085858561,0.0010357983410358,0.0022750399075448
0.2690439453125,-0.0025564795497804,0.0005083057151641,0.0478542225867509,6.39532809145e-05,0.0010517770424485,0.003310743253678
0.279025146484375,-0.0088502641980536,-0.0048846485027112,0.0530149663507938,0.0012070978991687,-0.000384940765798,-0.0003305742575321
0.289005126953125,-0.0043158173725008,0.0026745347051881,0.0445002359837293,-0.0001860016491264,-0.0015103928744792,0.0014872995670884
0.29898486328125,0.0101231702107004,-0.0063412770518101,0.0399812972545623,0.000786843302194,-9.4156712293e-06,0.0011512364726513
0.308965087890625,0.0055940023484639,-0.0046743028208147,0.0459638787955045,0.0017604948952794,0.0009469259530305,-0.0007494616438634
0.318945068359375,0.0030408107343129,0.0069395169395953,0.042995676639676,-0.0004158606170676,-0.0013305507600307,0.0010594448540359
0.328925048828125,0.0036950003267265,0.003152262618998,0.0423953726589679,-0.0014185407198965,-0.0003606276586651,-0.0012654947349801
0.338905029296875,-0.0015187157335691,-0.0091626820149365,0.0422433969676494,-0.0003288424923084,0.0003233449533581,0.0006360431434586
0.348885009765625,0.0043196350310929,0.0030326365610118,0.0471937128514051,0.0006285639829002,0.0014205668121576,-0.0013288371264934
0.358865234375,-0.0006562354190275,0.0015646372345276,0.0457055201202631,-0.0015008121263235,-0.0008453819900751,0.0009874519892036
0.368844970703125,0.0017995419689454,-0.0074256016897968,0.0461608626723289,0.0014153493102639,0.0001759408041834,1.64634839165e-05
0.378824951171875,0.0015323789327405,-0.0001672463256865,0.0446358450621366,-0.0023354305885732,-0.0021860571578145,0.0013173624174669
0.38880615234375,-0.003197499133367,-0.0028145368309225,0.0378869553238153,0.0017591796349734,-0.0010313102975487,-0.0011479258537292
0.3987861328125,0.0036402013995684,-0.0036774190042633,0.0416278954178094,-0.0009797508828341,-0.0026901923120021,-0.0002498423564247
0.408765869140625,0.0012506028492935,0.0065114185874816,0.0520996050715446,-0.0006101040635257,0.0005215797573328,0.0002116834657499
0.41874609375,0.0032090982396155,0.0043508338869549,0.0552343959659338,0.0037143728695809,-0.0001250095665454,-0.0001630523183848
0.42872607421875,-0.0023639526523649,0.0031658436197787,0.0510422049731016,0.002162548713386,-0.0026699267327785,0.000843888905365
0.438705810546875,-0.0027721681270748,0.0023060393195133,0.0378776029735803,0.0022771374788135,-0.0009437557309865,0.000745014345739
0.448685791015625,-0.0032642807592637,0.0019873378923162,0.0375713135033845,0.001554621849209,0.0008922275155782,-0.0023328009992837
0.458666259765625,-0.0065655507943592,-0.0060146754459477,0.0416074371516704,0.0018648111727088,0.0007733972743153,0.0003561171470209
0.468646240234375,0.0022407646641135,0.0021614158175885,0.0529845712125301,-0.0020207408815622,-0.0013949479907751,0.0011516034137457
0.4786259765625,-0.0015512480299919,0.0018840601809322,0.0492424620747566,-3.79414414055e-05,-0.0009978376328945,-0.0004467792459763
0.48860693359375,-0.0018374628265388,0.0083994608237873,0.0404132589310407,-0.0003812228678725,0.0007068514823913,0.0034409032668918
0.4985869140625,0.0086432338512502,0.0102210410946048,0.0454974303275346,-0.0007401515031233,-0.0001586033031344,-0.0001188354071928
0.508567138671875,-0.0031169629767537,-0.0010899232617113,0.044452305188775,0.0013384458143264,0.0003479300066828,0.0004012799472548
0.518547119140625,-0.0093483316469937,0.0067420033398084,0.0443003294974565,0.002510525053367,0.0016747806221246,0.0002889238530769
0.528527099609375,-0.0097129454419948,0.0058054440089035,0.0411585243403911,0.0015808155294507,-0.00087146833539,0.0020274354610592
0.538507080078125,-0.0107354934227652,-9.16238062083e-05,0.0495405682384967,-0.0023235674016177,-0.002424856647849,-0.0015712454915046
0.54848681640625,-0.0020494616094045,0.0070413424794096,0.038016134661436,0.0001710154465399,-0.0003180298954248,0.0015648929402232
0.558466796875,-0.0069661309518851,0.0003660111676435,0.0431055667549371,0.0013161886017769,0.0014691799879074,-0.0017129839397966
0.568447265625,0.0020597090087831,0.0040042032732162,0.0508902292817831,-1.53920846059e-05,-0.0004200665280222,0.0001296571572311
0.57842724609375,-4.62502945214e-05,0.0142788194522727,0.0360731839001178,-0.0007374826236627,-0.0001317262649536,0.0013770317891612
0.588407958984375,0.0070876932386308,0.0027738577606622,0.0507400071561336,0.0007893075817264,-0.0007687536999583,-0.0001399047032464
0.598387939453125,-0.004829155455809,0.0029705859091598,0.0483510661929845,0.0008089242619462,0.0012395428493618,-0.001253628404811
0.608367919921875,0.0031781733783893,0.0009321662835776,0.0531418076008558,0.0026859203353524,0.0029695322737097,-0.0006839783163741
0.61834814453125,-0.0021989348163828,0.0041315377136226,0.0465589220792055,0.0009436237742193,0.0006887093186378,0.0002778202178888
0.628328125,-0.0042405419128946,0.0017218918891623,0.0446165558397769,8.92816460691e-05,-0.0015853643417358,-0.0015147534431889
0.63830810546875,-0.0024978264314122,-0.0003930270387325,0.0381879840970039,-0.0013420798350125,0.0003844462335109,0.0001312178646912
0.6482880859375,0.0028043716299347,-0.0038114480469375,0.043424715706706,-0.0014840264338999,-0.0014832280576229,-0.0005092723877169
0.658267822265625,-0.0006391381537541,-0.0027562764381989,0.0429804790705442,-0.0001306297490373,-0.0017854375764727,0.0001840340992202
0.668248046875,-0.0005549670016393,-0.0048657428728416,0.036391748329997,-0.0017937738448381,0.0004580086097121,0.0007598095107823
0.67822802734375,0.000185439569503,0.0032959636723157,0.0402817415058612,-5.9226877056e-05,-0.0002541998401284,-0.0018478045240044
0.688209228515625,-0.0046016120439395,0.0016276560007594,0.047160395103693,0.000769815116655,0.0003679143264889,-0.0008427276625297
0.69818896484375,0.0034912944481708,0.0065746930820401,0.0512006104052066,0.0004153119516558,-0.0008136313408613,0.0001763406180543
0.7081689453125,-0.0025810660017654,0.0024205142783466,0.0437198992609977,0.0012134611606597,0.0006801355630159,-0.0009371270425617
0.71814892578125,0.0047011268956586,-0.0041898529052734,0.0438718749523162,-0.0001985037815757,0.0002250680699944,-0.0026240274310112
0.72812890625,0.0056688211503438,0.0054240617421921,0.0437187302172183,0.0014127086615189,0.0025127241387963,-0.0015547682996839
0.738109130859375,-0.0019665873652324,0.0054509862817358,0.0486515104442834,0.0036504669114947,0.0003146734088659,-0.0022152110468596
0.748089111328125,0.0019250680447556,-0.0006210088420193,0.0470031587153673,0.0013723990414291,-0.0001066382974386,0.0003965509822592
0.758069091796875,0.0031057657293044,0.0028415527020115,0.0426630836844444,0.0015846884343773,-0.0007294490933418,-0.0001192814524983
0.768049072265625,-0.0028917759187519,0.0008268975445069,0.0470014051496982,0.0011284889187663,0.0007701767608523,-0.0024279756471514
0.778029052734375,-0.0018870741219259,-0.0037267289055511,0.0461000723958015,-0.0006036335835233,0.0007890611886978,0.0002649078378453
0.78801025390625,-0.0054097135564312,0.0060509523357264,0.0344277547806501,-0.0006446462357416,0.0009158281609416,-0.0003798434627242
0.797990234375,-0.002741736456193,0.0002218443234451,0.0315869783967733,0.0003436785191297,-0.0037849824875593,0.0004707503248937
0.807969970703125,-0.0038902306378819,0.0027594547759741,0.0449058941751718,0.0006424851017072,0.0017125811427831,0.0015234978636726
0.817949951171875,-0.0028434980639256,0.0034832207395695,0.0414613066792488,-0.0009457606938667,0.0024953326210379,0.0010934862075373
0.82793017578125,-0.0048068340261466,-0.003605230550887,0.0402612832397222,1.2593809515e-06,0.0003624064847826,0.0006287646247074
0.837909912109375,-0.0071644300029613,0.0036731994868721,0.0387631536364555,0.0001027535763569,0.00108362454921,-0.0026545329019427
0.847889892578125,-0.0051227681075222,-0.0052462209572549,0.049539983716607,-0.0003776806988753,0.0003046505153179,-0.0009056348353624
0.8578701171875,0.0015326529273763,0.0003948993354104,0.0466974537670612,0.0020236717537045,-0.0012523019686341,-0.0014715259894728
0.86785009765625,-0.0008358480359427,0.0057294378969352,0.041908465924859,0.0004880932392552,0.0009301584213972,0.0014379774220287
0.877830078125,-0.0084776314933784,0.0075145129491109,0.0492407085090875,-0.0009692455641925,-0.0008865743875503,-0.0006171758868731
0.88781103515625,-0.001043207176309,0.0051837045145221,0.0461012414395809,0.0013911142013967,-0.0001438194885849,0.0001617987436475
0.897791015625,0.0014469291389919,-0.0041616588572505,0.0447574256151914,0.0007672307547181,0.0014837384223937,-0.0024500752333551
0.907771240234375,-0.0009401303943246,0.0051336000287905,0.0417646735399961,0.0013920082710683,-0.0003317380324006,-0.0009864019230008
0.9177509765625,-0.0005641732214018,0.0054760476577561,0.0336854119807481,0.0026219398714601,0.0014341995120048,0.0007496782345697
0.92773095703125,0.0051719410114921,-0.0043832931181415,0.0459516038358211,-0.0007924991077743,0.0014922572299838,-0.001330516883172
0.937711181640625,-0.0012150200792588,-0.001407263848884,0.0398147085160017,0.0002869080053642,0.0017482442781329,0.0014383642701432
0.94769091796875,-0.006054605597537,0.0018857498145196,0.043853754773736,0.0012533690314739,-0.0015218509361147,3.70089983334e-05
0.9576708984375,-0.0058008865647949,0.0036165739288087,0.035177696365118,0.0006852699443697,0.0013601956889033,-0.0033671914134174
0.96765087890625,3.73546020127e-05,0.0003024444121401,0.0477443324714899,-0.0009602973004803,0.0001423321664333,0.0019910887349396
0.97763134765625,5.75023408979e-05,-0.0012984788453206,0.0414542924165725,0.003658544505015,0.0005695279687643,0.0011328078107908
0.987611083984375,0.0054506300887092,-0.0037871538558974,0.0333738618135452,0.000847045565024,0.0010475646704435,0.0009458538843318
0.997592041015625,0.0091465437308885,0.0026328966537024,0.0559662173718214,0.0018912865780293,0.0006089620292186,0.0017563282744958
1.007572021484375,-0.0069450516312383,0.0037381088160909,0.043240006789565,2.17475462704e-05,0.0017557190731167,0.0003251454909332
1.0175517578125,-0.0093721509139984,0.0153318265033885,0.0405453608781099,5.72456046938e-05,-0.0008149556815624,-0.0013176726642996
1.027531982421875,0.0108169428948312,0.0078120711235795,0.0303746799975633,-0.0014884531265124,6.84149563312e-05,-0.0005211211973801
1.03751220703125,-0.0078545676915906,0.0013092742339707,0.0314238967895507,0.0010752386879175,0.0008311364799737,0.0014038879889994
1.0474921875,-0.0058270073867402,-0.000314344912488,0.0447398899585008,0.0002493924694135,-0.000373943708837,0.0001189127506222
1.057471923828125,0.0060575282069854,0.0117586989906616,0.040851065826416,-0.0006506115896627,6.18053600192e-05,0.0021836278028786
1.067451904296875,0.0093496285549364,0.0040390736571978,0.044139001455903,-0.0013731271028518,0.0005614142864942,0.0001178138045361
1.07743212890625,0.0006007606384344,-0.0025463143487926,0.0430903691858053,-0.0001915860339067,-0.0015589017421007,-0.001099704299122
1.087412109375,-0.0034743250470608,-0.0016200846156571,0.0351630833178758,-0.0017740363255143,-0.00212162733078,-0.0012056980049237
1.09739306640625,0.0077884801854379,-0.0017738230057992,0.0309790756314992,0.0003205313114449,0.0006184671074151,0.001078006112948
1.107373046875,0.0008931677137501,0.0056541259047109,0.038163434177637,-0.00115965353325,-0.0008358852937817,-8.60616491991e-05
1.11735302734375,-0.0006178944363258,0.0037780389676801,0.0383171634346246,-0.0012305891141295,-0.0004837280139327,-0.0007355414563789
1.127332763671875,0.000355608504638,-0.0059302759649697,0.0460994878739118,-0.002100643934682,0.0009290790185332,0.0004671420902013
1.13731298828125,-0.0087940404987894,0.0004427205325104,0.0393675492703914,0.0006599941989406,-0.0005453675985336,-2.05800170078e-05
1.147293212890625,-0.0031672683918848,-0.0016428992356639,0.0484942740559577,2.93576158583e-05,0.0001049758866429,-0.0003137940657325
1.157273193359375,0.0038096031497232,0.0050693300203885,0.0523836827099323,0.0005927641177549,0.0005303164944052,1.83630545507e-05
1.1672529296875,0.0067365782460197,0.0067252622675616,0.0446031118363142,0.0033272977452725,-0.0018574735149741,0.000229551733355
1.17723291015625,-2.2832886315e-06,0.0021902491864282,0.0417582437992095,0.0007039204938337,-0.0006290059536695,-3.96701616409e-05
1.187213134765625,0.0018391981258988,-0.0018884075624868,0.0375701444596052,-0.0005142093868926,0.0003486406058073,-0.0002825504634529
1.1971943359375,-0.0002469970310106,-0.0005431395665276,0.0275461785733699,-0.0021946616470813,-0.0014479532837867,0.0014301205519586
1.207174072265625,-0.0003755918467417,0.0136207848018035,0.0341343247920274,-0.0007104821270331,-0.0007454110309481,-0.0009765780996531
1.21715380859375,0.0009835494109429,0.0094993026913143,0.0341372474014759,0.0014179056743159,-0.0020580636337399,-0.000943036051467
1.227134033203125,-0.0050628911464475,-6.36763533577e-05,0.0514952094376087,-0.0004132838221266,-0.0001927856355905,-0.0008484938298352
1.23711376953125,0.0059159460455179,0.0065026781585998,0.0435644164383411,-0.0016032080166041,0.0013118358328938,-0.0006427956977859
1.247093994140625,0.002607972275,0.0050899800827726,0.0432622186213731,-0.0006420732242986,-0.0003750100731849,-1.32244094857e-05
1.257073974609375,0.0051033144883811,0.000781542299129,0.0300958630561828,0.0012519826414063,0.0007745940238237,0.0014671558747068
1.2670537109375,0.0022386823048815,0.0051910475707612,0.0354781406164169,-0.0004242109134793,0.000824661925435,0.0013678199611604
1.27703369140625,0.000117854226008,0.0109005203919019,0.038769583377242,-0.0016764375614002,-0.0004960149526596,-0.0019875427242368
1.287013916015625,-0.0034039997572079,0.0021105076142586,0.0320353066861629,0.0022583827376365,-6.51152804493e-05,-0.0006447768537327
1.296994140625,-0.0034252069420181,0.0023889135636854,0.0425099389493465,0.000569702242501,0.002068948931992,-0.0009216101025231
1.30697509765625,-0.000127206576243,-9.17516703717e-05,0.0387666607677936,0.0006346832960844,0.0009421650320291,0.0001881291245808
1.316954833984375,-0.0041920813949778,-0.0015144414172507,0.0417564902335405,-0.0010772364912554,0.0002842722460627,0.0013848837697878
1.326934814453125,-0.0056272652972489,0.0061358724065124,0.0417576592773199,0.0022730203345417,-0.0013551693409681,-0.0006758702802471
1.336914794921875,1.9362287595e-06,0.0005272570108063,0.050135027000308,0.0003791254712268,0.0007170606404542,-0.0010382210602983
1.34689501953125,0.0034331162538379,-0.0005200144192669,0.0422007268697023,0.0017530503682792,0.0001583294942975,0.0005431639729067
1.356875,-0.0067069137601181,-0.0010195523060858,0.0450485175162553,-0.001915656030178,-0.0023716939613223,-0.0004038165789097
1.36685498046875,0.0026812567069195,0.0018759682060219,0.0450520246475934,-0.0011763623915612,0.0023689987137913,-0.0008312539430335
1.376834716796875,0.0038887510668486,0.0045659014097414,0.0487935492634773,0.0017197246197611,-0.0006931032985448,-0.0004752216045744
1.38681494140625,-0.0057247525886632,0.0071765588321723,0.0435544795662164,2.46225390583e-05,0.0005830833688378,-0.0004483236989472
1.396794921875,0.00424795803437,0.0094331603862345,0.0366746569246053,-0.0030694843735545,0.0007515111938118,-0.0002020145329879
1.40677490234375,0.0058126683341339,0.0037746049015782,0.0423638084769248,-0.0019008892122656,-0.0019337544217705,-0.0013519674539566
1.416755859375,0.0003735642864368,0.0079961498530581,0.0414642292886972,-0.000132895016577,0.0009525725618004,-0.0003163710061926
1.42673583984375,-0.0070280902721919,0.0014785389868076,0.0468494294583797,-0.0003472794778645,4.07062470912e-05,0.0021345359273254
1.4367158203125,0.0006458236228674,-0.0019469054172281,0.0453565605521202,0.0002308922121301,-0.0006144642829895,-0.0012352222111076
1.446696044921875,0.0011371873363852,-0.0022830877021886,0.0470043277591466,0.0006689822766929,-0.000421917065978,0.0013989103026688
1.45667578125,-0.0025256277537904,0.0039613870447967,0.0452075074702501,-0.0019179983064532,0.0031312350183725,-0.0004201095434837
1.466656005859375,-0.0044688525097444,0.0032640889630187,0.0437087933450937,0.0016024344367906,0.0020689005032181,-0.000380694749765
1.476635986328125,-0.0053169572390615,0.0124158933909144,0.0468505985021591,-0.0012695903424173,-0.0017542270943522,0.0015364952851086
1.48661572265625,0.0013400894973427,0.0047091549384873,0.0470008206278085,0.0023429878056049,-0.0006090681999921,0.0001154325727839
1.496595947265625,0.0079845690131187,0.006504815316759,0.0443085128039121,-0.0006673540920019,0.0002479450777173,0.0013878582976758
1.506575927734375,-0.0029024069106206,0.0012859664236195,0.0338379721939563,-0.0005842634709551,-0.0025707446038722,-0.0003525174688547
1.51655712890625,-0.001042165996693,-0.0005129453576635,0.0449158310472965,-0.000364624953363,-0.0019389446824789,0.0008905774448066
1.526536865234375,0.0039893253644928,-0.001304872053489,0.0525450107514858,0.0009855976095423,0.000415289774537,-0.0003581787459552
1.536516845703125,0.0048040575471706,0.0035132505516521,0.0410205771744251,-0.0013385921483859,-0.0008318778127431,0.0003139815526083
1.5464970703125,0.003720098235365,-0.0004877469843253,0.0336871655464172,0.0017807683907449,-0.0014619817957282,0.0003171773860231
1.556476806640625,0.0006128712013363,0.006450765308272,0.0315939926594495,-0.0015337457880377,0.0006069485098123,0.0008825248805806
1.566456787109375,-0.0007031250343658,0.0088232939927373,0.0390764573693275,-0.0010937915649265,-0.0015017427504062,-0.0003007175691891
1.576436767578125,0.00233936620038,-0.0020279256310313,0.0399766210794448,2.8520124033e-05,-0.0013380199670791,0.0002299088082509
1.5864169921875,0.0009273439779877,-0.0014604553408455,0.0377338105887174,0.0011750110425055,-2.18851491808e-05,-0.0003722319379448
1.59639697265625,0.0029861214050091,0.0017003741770982,0.0317477219164371,0.0015138199087232,0.0017535528168082,0.0005613910034298
1.606376953125,0.0008357201717793,-0.0069484765641856,0.0321948811620473,0.0013588238507509,0.0007631229236721,0.0010122641688212
1.61635693359375,0.0130555886670947,-0.0006480247131083,0.0351899713248014,-0.0002499538240954,-0.0031395200639963,0.0002196635468862
1.626336669921875,0.0019008469189517,0.0043399928325321,0.0338438174128532,0.0006565861403942,-0.0009181778877973,-0.0003238876233808
1.63631787109375,0.0009895955592393,0.0023890140283852,0.033993455016613,-0.0013558230130001,0.001070468686521,-0.0006008885684423
1.6462978515625,-0.0034252617409452,0.0055692241002339,0.0447667779654264,-0.0014210704248398,0.0008765906095504,0.0001754228869685
1.656278076171875,0.0060101636676117,-0.0039119584125,0.0366869318842887,-0.0025368372444063,-2.9299408197e-06,0.0004882657667621
1.6662578125,0.0035395905693061,0.0044831732960417,0.0402764808088541,-0.0002105659805238,-0.0001059938222169,5.33715647179e-05
1.67623779296875,-0.0012524294801987,0.0069501113988459,0.0336918417215347,-0.0007943997043184,-0.0005137380212545,-0.0015442112926393
1.6862177734375,0.0072999477498233,0.0053188295357394,0.0413233595132827,-0.001274833921343,-0.0012309271842241,-0.0003774805227294
1.6961982421875,0.0004523651436902,-0.0019357173029333,0.0459603716641664,-0.0018417099490761,-0.0001222491264343,0.00033738402999
1.706177978515625,0.0029867241932079,0.0052323294292204,0.0320458280801773,-0.00102092360612,0.0022002942860126,-0.0011515892110764
1.716157958984375,-0.0066112348333001,0.0012227010622154,0.0416238037645816,-0.002470061648637,-0.0001702094450592,0.0021986099891364
1.726137939453125,0.0001458930104039,0.0041113625752739,0.0419230789721012,-0.0014426141278818,-0.0002165483310818,0.0003732794430106
1.736118896484375,-0.0021371033602394,0.0065124141013249,0.0345896673440933,-0.0013734919484704,0.0009818635880947,-4.99314264743e-05
1.746098876953125,-6.01692220196e-05,0.0049562889668159,0.0377291344135999,-6.96082133799e-05,0.0020876079797744,-0.0005500731058418
1.7560791015625,0.0070938672510907,-0.00391417776905,0.0410176545649766,7.28667946532e-05,-0.0007715998217463,-0.0009562692721374
1.76605908203125,0.0043361660407856,0.0053347212246153,0.0438595999926328,0.001793535077013,-0.0002584094181656,-0.000856933358591
1.776038818359375,0.0025927929721772,0.0004071012298576,0.0429594362825155,-0.0016495684394612,0.0002655088901519,-0.0012873451923951
1.786018798828125,0.0019081351762637,0.0092759787968359,0.0407113650947809,0.0013118665665388,3.8874335587e-05,0.0013071063440293
1.795998779296875,0.0046237142778933,-0.002683348199306,0.0434036729186773,-0.002247015479952,0.0005862712860107,-0.0002270880358992
1.805978759765625,-0.0022758359774947,0.0031788766312878,0.052082069414854,0.0016332101076841,6.69546425342e-05,-0.0005669073434546
1.815958984375,-0.0011011844412423,0.0004804039280861,0.0314314955741167,-0.0025058691389858,-0.0008934093639254,0.0009145521908067
1.82593896484375,0.0017681969826109,-0.0027053043027874,0.0456482369750738,3.6276178434e-06,-0.0002308143302798,0.0004490315914154
1.8359189453125,0.0008478490009903,-0.0016493289764504,0.0360708458125591,-0.0016402854816988,0.0003292290493845,-0.0006141895428299
1.845899658203125,-0.0006949782605282,-0.0001512267726473,0.0381675258308649,-0.0002218858571723,0.0002253651618957,0.0013054169248789
1.8558798828125,-0.0050771754001267,-0.001066058328934,0.0435538950443267,-0.0005205949419178,9.89641994237e-05,-0.0005619034636765
1.865860107421875,-0.000792264622543,0.0006122044810559,0.0407142877042293,-0.0008601479930803,-0.0008222237229347,-6.81534293107e-05
1.875840087890625,0.0019928725839592,0.0036789259747602,0.0483452209740877,-0.0015420380514115,0.000898134894669,-0.000306125904899
1.88581982421875,-0.0050234907178208,-0.0058495936778839,0.0440057304650545,0.0010566745186224,0.0003790846094489,-0.0018307855352759
1.8957998046875,0.001295501436945,0.0017582783767953,0.0480465302884578,-0.0009846069151535,0.0003769509494304,4.37503258581e-05
1.905780029296875,-0.0015342420962639,0.0007313373486977,0.0435579866975545,0.0013030484551563,-0.0014888597652316,-0.0001756941492203
1.915759765625,-0.0025741978695616,-0.0001968103468883,0.0330833544343709,-0.0004668385954573,0.0032054195180535,-0.001774325617589
1.92573974609375,-0.0047210554388351,0.0033480500525794,0.039364626660943,9.18925506994e-05,-0.0010255444794893,0.0014044234994798
1.935719970703125,-0.0019291414316743,-0.0058600511398166,0.0431038131892681,0.0005150205688551,0.0024258773773908,-0.0004479346971493
1.945699951171875,-0.0092155538464896,-0.0013594883175566,0.0431014751017093,0.0025563333183526,0.0010106740519404,0.0009398385300301
1.955679931640625,-0.0031830322165973,-0.0059828098698053,0.0398100323408842,-0.0004434080910868,-0.0042223581112921,-0.0003766636073123
1.965660888671875,0.008070986921247,0.0015885843656957,0.0335281755924224,0.0012879128335043,0.0007923739030957,0.0013911427231505
1.975640869140625,-0.0040736791796982,0.0044748438591137,0.03008241905272,-0.001039101043716,0.0027779769152402,2.4972599931e-05
1.98562109375,0.0059210606120526,0.0047833070200867,0.0399544092476367,-0.0018945083720609,-0.0002971747890114,0.0011741265188902
1.995600830078125,-0.0011262092846445,0.0037711982349399,0.0477379027307033,0.0006018915446475,-0.0006193919107317,-0.0012507839128375
2.0055810546875,-0.0104639830050058,0.0031560985438991,0.0353185661405324,-0.0011113199871033,-0.0007597403600811,-0.0012742197141051
2.01556103515625,0.0028130846593528,0.0052806529498193,0.0389104531526565,-0.0009310338646173,-0.000992078334093,0.0006406441098079
2.025540771484375,0.0073472026913426,0.0002625142605509,0.0474397965669631,0.0008506209123879,-0.0001135012134909,-0.0005561804864555
2.035520751953125,0.0007553666782565,0.0015881551074329,0.0429477458447217,0.0023162979632616,0.0002499585971236,-0.0020074397325515
2.0455009765625,-0.0064230735837481,0.0001797496142331,0.0457850150972604,0.0011106849415227,0.0025687729939818,0.0013851611874997
2.055481201171875,-0.0045415524197742,-0.0036984800586011,0.0402472547143697,-0.0005853291368111,0.000486135482788,0.000648450339213
2.0654609375,-0.012392028458137,0.0056591582728549,0.0469832849711179,-0.0024468787014484,0.0005971891805529,0.0026021453086286
2.07544189453125,-0.0029935923254117,0.0051993770076893,0.041447862675786,0.0018303615506738,0.0005476986989378,0.000192595689441
2.085421875,0.0043025194995105,0.0051307413514237,0.0567120673030614,0.0017840226646512,0.0011988412588834,0.0001987209398066
2.095401611328125,-0.0003922324542887,1.10145843587e-05,0.04563654653728,0.000812837970443,-0.0007148068398237,0.0011782797519117
2.1053818359375,-0.0082844104762189,0.0007075820137746,0.044441199272871,-0.0011392591986805,-0.0006620762869715,0.0013322103768587
2.115362060546875,-0.0104760570352897,0.0043166119569446,0.0544675032466649,0.0014245596248656,6.2121078372e-05,-0.0015138238668441
2.125342041015625,0.001834759412799,0.0023681813029106,0.0426473015934228,-0.0033211933914572,-0.0008204504847526,-0.0010432433336973
2.13532177734375,0.0099685641708783,0.0040461153193376,0.0427957701534032,-0.0016369472723454,0.0016206363216042,0.0002401324163656
2.1453017578125,-0.0042439029137603,0.0044870731530245,0.0419014516621828,-0.002012719400227,-0.0021184412762522,-0.00098412274383
2.155281982421875,0.0010569434407167,0.007734274913324,0.0484872597932815,-0.0008794905152171,-0.0006185444071888,0.0007526039844378
2.165261962890625,0.0053676645129919,0.0035565325709525,0.045194647988677,0.0020332087296992,0.0006821434944868,-0.0040067308582365
2.175241943359375,0.0027636742933653,-0.0028222269470337,0.0435486343473196,0.0007852365961298,0.000186669640243,-0.0007732379017397
2.185221923828125,0.0012683211690746,-0.0058361405412666,0.040705519875884,0.0019722073338925,0.0017275745049118,-0.0009524686611257
2.195202880859375,0.0006479425147175,0.0027166476807091,0.0311281287133693,-3.64205334335e-05,9.00328159332e-05,-0.0002298180479556
2.2051826171875,-0.0060278089221566,0.0010978234403766,0.042650808724761,-0.0006188538391143,0.0008911117911338,2.07854100153e-05
2.215163330078125,0.0020098237187601,0.0017544789845123,0.0465419709444046,-0.0001027337275445,-0.0030241571366786,0.0013610129244625
2.2251435546875,-0.0008645261411555,-0.0023521252172533,0.0493880080252885,0.0014008869184181,0.0012305090203881,0.0015274605248123
2.23512353515625,0.0075767005982808,-0.0017806637385394,0.0538753825724124,-0.0017785505624487,0.0019226549193263,0.0013359043514356
2.245103271484375,-0.0037858934805728,0.0022780096682719,0.0459434205293655,-0.0001652076025493,-0.0017421208322048,0.0008205826161429
2.255083251953125,0.0020724406261928,0.0038643564111087,0.0383142408251762,-0.0011676639551296,-0.0019571911543607,-0.0004194494686089
2.2650634765625,-0.0007818345600739,-0.0018292703869286,0.040410920843482,0.0011865703854709,-0.0006847335025668,-0.0010567439021542
2.275043701171875,-0.0084288787145167,0.00102969010761,0.0511824902266263,-0.0004322447930462,0.0002078562974929,-0.0018526250496506
2.2850234375,-0.0036058242059312,0.0023625552797224,0.044599604704976,0.0003653719322755,-0.000438492745161,0.0017660781741142
2.29500341796875,-0.0088354502214118,0.0108223314560018,0.0414630602449178,-0.0004369016969576,-0.0016418555751442,0.0005171204684302
2.3049833984375,0.0014963943039067,0.0070976575102191,0.042212417307496,-0.0016864568460732,0.0010716393589973,-0.00189357297495
2.314964111328125,-1.25124217011e-05,0.0027690993871539,0.0419113885343074,0.0002013655612245,0.0032378360629081,-0.0015813973732292
2.3249443359375,-0.0031575324491597,0.0026312161532696,0.0282937820702791,0.0013547806302085,-0.001624297350645,-0.0011347852414473
2.334924560546875,0.0015830679403617,0.0028235695207491,0.0390682740628719,-0.0022823396138846,-0.0003463737666606,0.0010603282134979
2.344904541015625,0.0016453560542315,0.0012538177196867,0.0444540587544441,0.00150387652684,0.0016089184209704,0.0009484753827564
2.35488427734375,-0.0032811405625194,0.0087114676487166,0.0320347221642732,8.9889159426e-05,0.0002700183540582,0.0002472386113367
2.3648642578125,-0.0064633507952094,-0.0042521501522976,0.0338321269750595,0.0020587642211467,-0.0010216142982244,0.001177747035399
2.374844482421875,0.0020771350676193,0.0062831445232499,0.0484989502310752,0.0025475255679339,0.0001500528305768,0.0010962910018861
2.38482421875,0.0056576604355126,0.0024338395508006,0.043111411973834,-0.0009952776599675,0.0010621855035424,0.001224921667017
2.394804443359375,0.0039624373575672,0.0102717483685351,0.0446077880114316,0.000164344208315,-0.0009542712941765,-0.0013380593154579
2.404784423828125,-0.0044687429118901,0.0043582682747393,0.0513414801806211,-0.0027760518714785,-0.0021385792642831,0.0017813012236729
2.4147646484375,-0.0027634733639657,0.0022155388913117,0.0534346530675888,-0.0004579158267006,0.0017613125964999,0.0006138345925137
2.424744384765625,0.0031682182399556,0.0002141268078703,0.0492395394653081,-0.0011751051060855,0.0010092360898852,0.0013280943967401
2.434725341796875,-0.0006268083951435,-0.0007827478755265,0.0318833309948444,0.0002437855582684,-0.0007413402199745,0.0014264382189139
2.44470556640625,0.005007964355126,0.0015470102462917,0.0419113885343074,-0.0021405424922704,-0.0005109766498208,-0.0016130275325849
2.454685546875,0.0003844875392504,0.0046232210875488,0.043111411973834,-0.0025779176503419,0.0010346677154302,-0.0012487323256209
2.464665283203125,-0.0059802617196924,-0.0056099214368034,0.0380225644022226,-0.0004058436024934,0.000325733795762,-0.000242856433033
2.4746455078125,-0.0037002792900428,0.0011959135199896,0.0419131420999765,0.0016057535540312,-0.0003696465864777,0.0010319048305973
2.48462548828125,-0.0035240276739932,0.0026444866267964,0.0389215590685605,-0.0024473113007843,0.0003320965915918,0.0009639941272325
2.494605224609375,-0.0068210051264613,0.012631344506191,0.0531388849914073,-0.0013583616819232,0.0019102720543742,0.0004102746897842
2.504585205078125,0.0007587642117403,-0.0022088716885074,0.0431125810176134,0.0006275575142353,0.000662581063807,0.0008523593423888
2.5145654296875,0.0016053893700242,0.0041375838619191,0.0371282459110021,0.0027068243362009,-0.0011777225881814,-0.0005510967457666
2.524545654296875,0.0006074826401658,0.0027187391730956,0.0453553915083408,-0.0018040379509329,0.0021059550344944,-0.0006123494822531
2.534525390625,0.00101407241337,-0.0036552254387643,0.0420616106599569,0.0008503852877765,-0.0010585058480501,-0.0009989925893023
2.54450537109375,-0.0040474122272804,-0.0032177564701065,0.0450537782132625,0.0004141594981774,0.0002760039642453,9.87623352557e-05
2.554486328125,0.0065348085962235,-0.0016818156071007,0.0426584075093269,-0.001297959475778,0.0002062236890196,0.0005734929000027
2.564466552734375,-0.0002390694528818,0.0006588018354494,0.0404132589310407,0.0008892946643754,0.0007761400192975,3.07406589854e-05
2.574446533203125,-0.0030877551485784,0.0035491621152497,0.0501391186535358,0.0015686887782067,0.0005604634061455,0.0002726386592257
2.584426513671875,0.0041793863101862,0.0001598758699838,0.0496913748860359,-0.0008316182065755,-0.0007064025849103,0.0005061978590674
2.594406494140625,0.0003724865742027,0.0039325262764934,0.0443026675850153,-0.0006721285171806,0.0034494828432798,-0.0024448502808809
2.60438623046875,-0.0033996889082714,0.0087170662724412,0.0374187532901763,0.0013084644451737,-0.0013900129124522,-0.000567055423744
2.6143662109375,0.0128078061847947,0.0043702601066324,0.0389127912402153,-0.0019422965124249,0.0014274753630161,-0.0003602910146582
2.6243466796875,-0.002708802300971,0.0059119183243718,0.0434013348311185,0.001817021635361,0.0003640754148364,-0.0011456572683528
2.634326416015625,-0.0006628295565955,-0.0010864252635277,0.0431003060579299,-0.0007393377600237,-0.0016222093254327,-0.0001851065608207
2.644306396484375,-0.0048495041240938,0.0024843093627132,0.0359165320336818,0.0018332758918404,0.0001732939854264,-0.0020216223783791
2.654286376953125,0.0052836394913494,0.0035464039025828,0.0342728564798831,-0.000589660659898,-0.0020082201808691,0.0003094103303737
2.6642666015625,0.0044782596589066,0.004539570525242,0.0462444493025541,-0.0019590579904615,-0.000937096774578,-0.001369978999719
2.6742470703125,-0.0024442513469606,0.0082767112269531,0.0389133757621049,-0.0033153393305838,0.0016513718292117,0.0018503355095162
2.6842275390625,-0.0068401847509667,-0.0037853272249922,0.0438508321642875,-0.0018511334201321,0.0030479338020086,-0.0021246985998004
2.69420751953125,0.0040108065439388,-0.0016662892444059,0.0445955130517482,-0.0016177925281226,-0.0019241562113165,0.0023378091864287
2.7041875,0.0067636306497268,0.0056254569326527,0.0483382067114114,-0.0004550564335659,-0.0014924583956599,0.0009905159240588
2.714167236328125,0.0018503223081119,0.0052246849788818,0.0433984122216701,0.0035340045578777,0.0021045394241809,-0.0022352689411491
2.7241474609375,0.003805018306151,-0.0022573230732697,0.0469856230586767,-0.0019896577578037,0.0009516570717096,-0.001015008543618
2.73412744140625,-0.0004732800675556,-0.0011325476938858,0.0466863478511571,0.0021689841523766,-0.001352297142148,2.81802349491e-05
2.744107421875,0.0052230684105306,0.0069715286462102,0.0402507618457078,0.0011372754815965,-0.001033516600728,-0.0008794250315986
2.75408740234375,0.0012338709102012,0.0024239757439121,0.0436941802978515,-0.0016637824010103,-0.0015363190323114,-0.0025437360163778
2.7640673828125,-0.0012586765578947,-0.0046653431962244,0.0484843371838331,0.0010086996480822,-0.0017392514273524,0.0036718156188726
2.774047607421875,0.0046573242865502,-0.0015251637406647,0.0414531233727931,2.36732885241e-05,0.0013092113658785,-0.002123582875356
2.78402734375,-0.0105584928880445,-0.0001388696145731,0.04444295283854,-8.28531337901e-05,-0.000130227766931,-0.0014583251904696
2.794008544921875,-0.0065780997486785,0.0031782829762436,0.0489303273856639,0.0024061754811555,-0.0004211943596601,-0.0004385633801575
2.803988525390625,-0.0008742986164987,0.0041723081154283,0.0460866283923387,0.0036083264276385,0.0002046478912234,0.0002264279173687
2.813968505859375,-0.0036129298001527,0.0029935375264845,0.0362064548909664,0.0020627756603062,-0.0015207780525088,0.0014720319304615
2.8239482421875,-0.0044405579970218,0.0025668000143952,0.0411439112931489,0.0003106822259724,-0.0007258243858814,1.12881316454e-05
2.833928466796875,-0.0004000139019452,-0.0010492715909145,0.0429401470601558,-0.0013210270553827,-0.0019318284466862,-0.0011821847874671
2.843908447265625,-0.002803421781864,0.0021491773905232,0.0302250423938035,-3.97802796214e-05,-0.0011629732325673,0.0006322268163785
2.85388818359375,-0.0094275891619734,0.0016387345171999,0.0359095177710056,0.0012895832769572,0.0002016238868236,0.0006733930204063
2.863868408203125,-0.0039421252219006,0.0084927651304285,0.045037996122241,-0.0005312198773026,-0.0017640553414821,-0.0010230405023321
2.8738486328125,-0.0078857665474526,0.0075548084268812,0.0375584540218114,0.0002686817897483,0.0005152355879545,0.0013614442432299
2.883828369140625,-0.0136988002077676,0.0094549703592434,0.0456400536686182,0.0010647006565704,-0.0002062143757939,0.0017920773243531
2.893808349609375,-0.0067376559582538,-0.0012138419023249,0.0426461325496435,0.0004706603940576,0.0015249848365783,0.0003498289734125
2.903788330078125,0.0051843073027208,0.0031111268910113,0.0330687413871288,-0.0005687713855877,-2.73715704679e-05,-0.0011260949540883
2.91376953125,-0.0002767163158394,-0.0025284955643117,0.0426461325496435,0.0017328393878415,0.0001885201781988,-0.0008466963190585
2.923749267578125,-0.0048626741329208,0.0080457702815998,0.0398036026000976,-0.0002621346502564,-0.0018914081156253,-0.0013665453298017
2.9337294921875,-0.0107845932614989,0.0073174834065139,0.0321732538521289,0.0003394357627257,4.7936104238e-05,-0.0009396489476785
2.94370947265625,-0.0020952735125087,-0.0039403168573044,0.033221301600337,0.0001490196445956,-0.0001552635803818,-3.5478369682e-06
2.953689453125,-0.0073018474459648,-0.0026231515778228,0.0377098451912403,0.0008901273831725,0.001058286987245,-0.0004879505722783
2.963669189453125,0.0008211436571553,-0.0051831199926324,0.0341191272228956,-0.0003224099054932,-0.0002642385661602,-0.0002517281973268
2.9736494140625,0.003478891624324,0.0030048717712517,0.041155017209053,-0.0029313145205378,-0.001877318136394,-0.002079248894006
2.983629638671875,0.0024664083798415,-0.0033670104813762,0.039961423510313,-0.0014069210737943,0.0024433946236968,-7.04265403328e-05
2.993609375,-0.0020602021991275,0.0008228606902062,0.0402601141959428,-0.000190612336155,-0.0008436404168605,-0.0009288280270993
3.00358935546875,0.0071063614064827,0.0038184440433047,0.0447527494400739,0.0012213956797495,-0.003031694330275,-0.0014023380354046
3.0135693359375,-0.0030914632093161,0.0072002867676317,0.0446036963582038,-0.0002460817922838,0.0011812886223196,0.0007224839064292
3.023549560546875,-0.0018336086353287,-0.0019672814849764,0.0440016388118267,0.0014005508273839,0.0023080725222826,7.6914657256e-06
3.033529296875,-0.0035411980045028,-0.0014060034735593,0.0437017790824174,-0.001163784880191,-0.000678545795381,-0.0012136206496506
3.043510498046875,0.0001043736899271,0.0050629550785291,0.044450551623106,0.0019113670568913,-0.0009864075109362,-0.0003933669358957
3.053490478515625,0.0008932590452954,0.0013274857440963,0.0516343256473541,0.0013847592053934,-0.0003687851130962,0.0005028721643611
3.06347021484375,0.0009835311446338,-5.80320638604e-05,0.0478939700752496,0.0001578410156071,-0.0018353881314396,0.001563076628372
3.0734501953125,0.0031176936291158,0.0017685166430193,0.0443061747163534,0.0006432972149923,-0.0020086336880922,0.0010515302419662
3.083430419921875,-0.0070999316656962,0.0018761052033398,0.0458054733633995,0.001020667143166,-0.0006882390007376,3.76648458768e-05
3.09341064453125,-0.0022078122425824,0.007491333002923,0.0383265157848596,-0.0025838683359324,0.0001244209706783,0.0007482503424398
3.103390380859375,-0.0070592160628177,0.0001818959055468,0.0398246453881263,-0.0001713107340037,-0.0009317891672253,0.0003631573054008
3.113370361328125,-0.0006637976709753,0.0010446958804968,0.0408750312238931,-0.0012247792910784,-0.0014578280970454,-0.0001011675485642
3.1233505859375,-0.0036956579138524,-0.0024578414808958,0.0423743298709392,-0.0004929426941089,5.88418915867e-05,-0.0003416509716771
3.133330322265625,-0.0043291700444184,-0.002906352433376,0.0531476528197526,0.002508335513994,-0.0007482906803488,0.0001760322775226
3.143310302734375,-0.0032308534136973,-0.0080606573234777,0.0410270069152116,-0.0003281973768025,0.0021066181361675,-0.0014759264886379
3.153290283203125,0.0050473830500617,0.0021673797674942,0.0414765042483806,-0.0001805940410122,-0.0018392484635114,-0.0001994280755752
3.163271484375,0.0052385765069164,-0.0035999972533434,0.0441717346817255,-5.00992173328e-05,0.0008124615997076,-0.0023254295811057
3.173251220703125,0.0058013980214484,0.0025791754387784,0.0296557180732488,-0.0012437520781531,0.0022055096924304,2.39542350755e-05
3.1832314453125,0.005669917128887,0.0008557491796556,0.0416261418521404,0.000405543600209,-0.0002512568607926,-0.0003797809768002
3.19321142578125,-0.0009502499295398,0.0029310484832152,0.0434212085753679,-0.0009807378519326,-6.94002956151e-05,-0.0008621549350209
3.20319140625,-0.000437752096448,-0.0019679390721023,0.0452191979080438,-0.0013535805046558,-0.0002648765221238,-0.0026107863523066
3.213171142578125,-0.0008111702524125,0.003298694485519,0.0446188939273357,0.000906775239855,0.0002733385190367,-0.0012227923143655
3.2231513671875,0.0057046413823962,0.0111396081110928,0.0423754989147186,0.0002825303236022,-0.0033442992717027,5.87208051001e-05
3.23313134765625,0.0013400529647246,0.0007474938990548,0.0366892699718475,-0.0019124778918921,0.0010112114250659,-0.0025310751516371
3.243111083984375,0.001198105477076,0.0015512754294555,0.0401303503364324,0.0017986370949074,0.0007038824260234,0.0004106524575036
3.25309130859375,0.0021685396781191,-0.0022608028051443,0.0471609796255826,-0.0008122156141325,-0.0020431736484169,4.2700463382e-05
3.2630712890625,0.0001005925639532,0.0102538017198909,0.0465671053856611,0.0009340189862996,-0.0024335933849215,-0.0014667792711406
3.273051513671875,0.0075725541461259,0.0050905280720442,0.0471674093663692,0.0002323286607861,-9.13236290216e-05,-0.0006474405527114
3.28303125,-0.0003610518647357,0.008751973189041,0.0464186368256807,5.52284764125e-05,-0.0009973309934139,0.0003009111387655
3.29301220703125,-0.0044113684351556,0.0045673992470838,0.0443219568073749,-0.0015793144702911,-0.000410784035921,0.0008356011239811
3.302992431640625,0.0029392500559799,0.0050660329516045,0.0467173275113105,0.0002055361401289,-0.0010044025257229,-1.55451525643e-05
3.31297216796875,-0.0065463346372358,-0.0015851046338211,0.0453700045555829,-0.0003386025782674,-0.0012344606220722,0.0004190873005427
3.3229521484375,0.0052027928074821,0.0033691476395353,0.0392383699327707,-0.0007287556654773,-0.0016152923926711,-0.0016203614650294
3.332932373046875,-0.0056849868338555,-0.0042677130476105,0.0369943903982639,-0.0019643413834273,-0.0004000691697001,-0.0006803983123973
3.342912353515625,-0.019720288986992,0.0110341841083951,0.0334048414736986,0.0025561079382896,-0.0011473521590232,0.0020618587732315
3.35289208984375,-0.0047822475741617,-0.0021091285079251,0.046720250120759,0.0014221298042684,-0.0005602911114692,0.0003819217672571
3.362872314453125,-0.0006006693068891,0.0027232509514316,0.043726913523674,0.0015483635943382,0.001582222059369,0.0026187107432633
3.3728525390625,0.0125586354630067,0.001423228602996,0.0423795905679464,0.0016899282345548,2.94148921966e-05,0.001321853371337
3.382832275390625,-0.0042621326901949,0.0052247489109635,0.0399848043859005,-0.001045937067829,0.0004504602402448,0.0026278675068169
3.392812255859375,-0.0052602220831438,0.0059107218811288,0.049862639799714,0.0005025987047702,0.0013012243434786,-0.0011102498974651
3.402792236328125,0.0050246962942183,-0.0022190825552679,0.0504611902147531,-0.0034351511858403,-0.0008804369717836,0.0001592789631104
3.412772216796875,0.0042883996426127,-0.0054333410271909,0.0468722258120775,0.0018998412415385,-0.0001518065109848,-0.0015294280601665
3.422753173828125,0.0053624951475299,0.000850671145739,0.041339726126194,-0.0007553303148597,-0.0006130654364824,0.0016131020383909
3.4327333984375,0.0074348261758685,0.0045064171743113,0.0513642765343189,0.000514299259521,0.0005936995148658,0.0010394166456535
3.44271337890625,-0.0089538889693096,0.0017393727469258,0.0422334600955247,-0.0012172879651188,0.0004711942747235,0.00274304067716
3.452693359375,-0.0021649777478538,0.0039426366785541,0.0363975935488939,0.0023865704424679,-0.0015954934060573,-6.85786944814e-05
3.462673095703125,-0.0057685551977716,0.0041680063996464,0.0549520718932151,0.0008991949725896,-0.0004740366712212,-0.0011919001117348
3.472653076171875,0.0010908274440094,0.0014020396844949,0.048070495685935,0.0003071627579629,0.0005322890356183,0.0009232959710061
3.482633544921875,0.0082995897790417,-0.0010759952010586,0.0410386973530054,0.0006786737358197,-0.0004618689417839,-0.001681541907601
3.49261328125,0.0048070532218553,-0.0035191779689397,0.0423866048306226,0.0024582184851169,-0.0025878911837935,0.0015545994974672
3.50259326171875,0.0025563516856171,0.0025732754209544,0.0422375517487525,-0.0014968418981879,0.0020891521126031,-0.0024531916715204
3.5125732421875,-0.0038260976267978,0.0050552192966453,0.0438818118244409,0.0019351362716406,0.0013277791440486,-0.0013721534051001
3.52255322265625,0.0007232179743237,0.0044507231980096,0.0476239209622144,0.0011713418643921,-0.00231808796525,0.0004976519267074
3.532533203125,-0.0027693733817897,-0.006487498855777,0.0515168367475271,0.0019279159605503,0.0010051717981696,-0.0003667861747089
3.542513427734375,-0.0032646095528267,-0.0041771395541727,0.0432820923656225,-0.0010305896867066,-0.0007072407752275,0.0015930341323837
3.552493408203125,0.0065630848426371,-0.0046939117035828,0.0539092848420143,-0.0007874761940911,-0.0024317819625139,0.0001759700098773
3.56247412109375,0.0105412129596807,0.0019576825395692,0.0522644402444362,0.0009659491479396,-0.0008133789524435,-0.0006304351845756
3.5724541015625,0.0031557971497997,0.0026721783513203,0.0443342317670583,-0.0013024638174101,-0.0018264790996909,0.0003277249343227
3.582434326171875,-0.0018900332639925,0.0114138584752101,0.0497229390680789,-0.0006848767516203,0.0009160442277789,-0.0012725684791803
3.592414306640625,0.0001822794980369,0.0034178547526244,0.0459825834959745,0.000293719000183,0.0008271504193544,0.0003638141788542
3.602394287109375,-0.0005138495399616,-0.0016880261521786,0.0443359853327274,0.0015691068256273,-0.0012487843632698,0.0003520962782204
3.612374267578125,0.0011286935026757,-0.004063559644483,0.0438888260871171,-0.0016186098800972,0.0001694746315479,0.000306257919874
3.622354248046875,-0.0028864238901995,-0.0010369874980766,0.028028993654251,-0.0009959627641364,-0.0002276031300425,-0.0016754001844674
3.632334228515625,0.0015444346967153,0.0017323584842495,0.0429950921177864,-0.0023685966152697,-0.0006567323580384,0.0008325862581841
3.642314208984375,0.0018110862762667,0.0013318605251144,0.0506289479970932,0.0001089421566575,0.0004559364169836,-0.0010542634408921
3.652294189453125,0.0021249379984103,0.0086907262547872,0.0462894574880599,5.85748348385e-05,0.0001026950776576,0.0001875716698123
3.6622744140625,0.0029499358467757,-7.79880065005e-05,0.0503320108771324,0.0003680341178551,-0.000330600887537,0.0007425744552165
3.67225439453125,0.0017263123359531,-0.0030363263554405,0.0516781647890806,0.0022050649859011,-0.0006009154021739,-0.0001531910675112
3.682234375,0.0019350049168802,-0.0042258101346436,0.0452414097398519,0.0009973214473575,0.0013232184574007,-0.0010669216280803
3.69221533203125,0.0024649836077354,0.0065457501153461,0.037309447696805,-0.0029595978558063,0.0018627848476171,0.0001108843862311
3.7021953125,0.0022046521711163,0.0002267762268893,0.0456885689854621,-0.0032980856485664,-0.0013852063566446,-0.0007168260635808
3.71217529296875,-0.0013546660119667,0.0062548682768363,0.0340185894578695,-0.0004475300665944,-0.000392984598875,0.0010154726915061
3.7221552734375,-0.0045010377462953,0.0009642510554287,0.0365612596780061,-0.0007692399667575,-0.0008704895153641,-0.0010612602345645
3.732135498046875,-0.00635959815979,-0.0002656103999353,0.0401513931244611,0.0014467792352661,0.0013720924034714,-0.0018203624058514
3.742115234375,0.0044945166739635,0.0076232522869016,0.0376052157729864,8.05776799097e-05,-0.0003115581348538,-0.0008142201695591
3.75209521484375,-0.0018876403775066,-0.0017512001820374,0.0420914212763309,0.000856143888086,-0.0006566932424902,-0.000402271078201
3.7620751953125,0.0070998403341509,-0.0005206446069292,0.0434381597101688,0.0008657311554998,-0.0001693349331617,-9.33443807298e-05
3.77205517578125,0.0068862523823976,-0.0005814166171476,0.0364046078115701,0.0019419285235926,0.0014766324311494,0.0001005817321129
3.782035400390625,-0.0017809103337116,0.0058816327839624,0.0456786321133375,0.00208280980587,0.0009791543707251,-0.0020035819616168
3.792015380859375,-0.0038869609685614,0.0049221127025783,0.0507651415973901,-0.0002711354754865,0.0011744042858481,0.0009411129285581
3.801995361328125,0.0013412037421949,-0.0083184588762931,0.0473211386233568,0.0010420691687613,0.001761364750564,0.0029605878517031
3.81197509765625,-0.0004356149382889,0.0051867732544429,0.0455272409439086,0.0002726376987993,-0.000676192343235,-0.0003514327981974
3.8219560546875,-0.0031747393122874,0.0088473415886051,0.0512117163211107,0.0019850502721965,0.0017797742038965,-0.0006712784525007
3.8319365234375,-0.0013663016508333,-0.006079036785895,0.0477694669127464,-0.0005023761768825,-0.0013623181730508,-0.0012078975560143
3.84191650390625,-0.0053924701606854,-0.0033358481581322,0.0482154571145772,0.0013671627966687,0.0023392094299197,-0.0014664905611425
3.851896240234375,0.0027536095570772,0.0067393090592231,0.0443207877635955,-0.0001318762078881,-4.55118715763e-05,-0.0006068765651434
3.861876220703125,0.0002745608913712,0.0039860008962452,0.0467167429894208,0.0013552330201491,-0.0003477809950709,0.0024208712857216
3.871856201171875,0.0074884377929382,-0.0022847225368488,0.0386404040396213,-0.0007682259893044,-0.0023165345191955,0.0008555109379813
3.881836181640625,0.0050375375094823,0.0032760533954482,0.0401397026866674,-0.0036289934068918,0.0011181440204381,-0.000429464271292
3.891816162109375,0.0003325198899954,0.00831340824184,0.0492687655597925,0.0005697418237105,-0.0016979640349745,-0.0014490467729046
3.90179638671875,-0.0050522236219607,0.0036885431864764,0.0480745873391628,-8.77926358953e-05,-0.0026290053501725,0.0009294223273172
3.9117763671875,-0.003502820489183,0.0032759620639029,0.0416407548993825,0.0007033377187326,-0.0002715913578867,-0.0016337640117853
3.92175634765625,-0.0005268551520071,-0.0016526899773161,0.0387988094717264,-0.0014519585529342,-0.0008692042902112,-0.0009128462406806
3.931736328125,0.0031195933252573,0.0041212172490078,0.0398480262637138,0.0005330191925168,-0.0009384034201502,-0.0004443361831363
3.94171630859375,0.0006033179217018,-0.0004899937403388,0.0408960740119218,0.0003343474818393,0.0015061115846037,-0.0011508727911859
3.951696044921875,-0.0030095388132147,-0.0046997843219432,0.0394008670181035,-0.0042578252032399,0.0021322853863239,-0.001169596100226
3.96167724609375,0.0046408846084028,0.0002005092744715,0.0519698412120342,-0.0019512615399435,0.0002017598599195,-0.0001895528112072
3.9716572265625,-0.0014082228301092,0.0023385990153998,0.0485275918036699,3.26095614582e-05,0.0031939633190631,0.0013465991942211
3.981637451171875,0.0017008856337517,-0.0042498394642025,0.0420960974514484,9.91885317489e-05,-0.0005256738513708,0.0010706956963986
3.9916171875,0.0097415870145894,0.001258941419376,0.0434469275385141,-0.0040400796569883,0.0002389242872595,0.0005899282405152
4.00159619140625,0.0038304084757342,0.0030015838356222,0.0389566303819417,0.001219130703248,0.0015223007649183,-0.0015168983954936
4.011576416015625,-0.0037642479043453,-0.0001341021079104,0.0494289245575666,-0.0004971924936398,-0.0017337892204523,0.0014727008529007
4.02155615234375,0.0035668804350309,0.0019679847378749,0.0477829109162092,-0.0001802763435989,-0.0019734743982553,0.0001541698293294
4.031537353515625,-0.0026557386731728,0.0040624545327853,0.0329699571877717,-0.0013166085118427,-0.0004890821874141,-0.0013968853745609
4.041517333984375,0.0017308423805981,-0.0078510148944798,0.0441945310354232,-0.0012633452424779,-0.0004499340429902,0.0005195253761485
4.051497314453125,0.0026448336866684,0.0013964775933884,0.0391062679857015,0.0012745719868689,-6.22142106294e-05,-0.0005766001995652
4.06147705078125,-0.0026223478602245,-0.0009910659971181,0.0411988563507795,-0.000320128921885,0.0008650990203022,0.0010639070533216
4.071457275390625,-0.0013895181296393,0.0027786891994066,0.0461339746654033,-2.58467625826e-05,0.0020911348983645,0.000310864765197
4.0814375,0.0009712927175685,0.0020497721366584,0.0423924500495195,0.0013840306783095,-0.0008977307006716,-0.0026018344797194
4.091417236328125,3.22948344051e-05,-0.0011651073897723,0.050026890450716,-0.0021789651364088,0.0012292126193642,0.0008178317220881
4.101397216796875,0.0015875066534616,0.0010773651742376,0.0495762240737676,0.0013734254753217,0.0013453271239995,0.0020676532294601
4.111377197265625,-0.0054282538601197,-0.00062331039696,0.0404489147663116,-0.0012785636354237,-0.0026171058416366,0.0012503371108323
4.121357421875,-0.0027893749902024,-0.0021850158888846,0.050026890450716,0.0004652742063626,-0.0012487731873989,-0.0010759340366348
4.131337158203125,-0.0013037030097097,0.0041765276328194,0.046584056520462,0.0007896125316619,0.0008297432214021,0.0015670633874833
4.1413173828125,-0.0049314650528132,0.0016354557147249,0.04224222792387,-0.0012021656148135,-0.0006357943639159,-0.0018979755695909
4.15129736328125,0.0028185097531415,-0.0053676462466828,0.0395481665343046,0.0012685959227383,-0.0007285084575414,-0.0001401573099428
4.16127734375,-0.0049163770815357,0.0042277189639396,0.0402922628998756,-0.0003351597697474,0.0014603435993194,-0.0012895776890218
4.17125830078125,-0.001478840380907,0.002286704431381,0.0399929876923561,-0.0003665723488666,-3.83201986551e-05,-0.0008629329968243
4.18123828125,0.0030666027626954,0.0035053869056049,0.0459761537551879,-0.000286677503027,0.003495960496366,-0.0007907613180577
4.19121826171875,0.0062206646131351,-0.0017328516745939,0.0425315662592649,0.0010156885255128,-0.0001324638724327,0.0014624122995883
4.2011982421875,0.0182924664072692,0.0137920314491726,0.0468704722464084,-0.0008551821811124,-9.38475131988e-05,0.0010621391702443
4.21117822265625,1.34805360808e-05,0.0013075298014562,0.0411859968692064,-0.0003668930730782,0.0003034910187125,-0.0018735034391283
4.221158203125,0.0006083594230003,0.00470437829867,0.0485153168439865,-0.0003820731071755,0.0004307897761464,0.0014453278854489
4.231137939453125,-0.0004158142592757,0.0012810071207117,0.0449240143537521,-0.0014520509866997,-0.0005113687366247,-0.0011383969103917
4.241117919921875,-0.0027510522738099,0.001082890732726,0.0461181925743818,0.0006417261902242,0.0007794657722115,-0.0018436019308865
4.251097900390625,0.0022127806786447,0.004909719011886,0.0532972904235124,0.0022307634353637,0.0039752591401338,-0.0018727402202785
4.261078125,-0.0154090929906815,-0.0025394918823614,0.038329438394308,0.0014089118922129,-0.0002125622704625,-0.0010436981683596
4.271057861328125,-0.013427563784644,0.0042278376949485,0.0423696536958217,-0.0021263698581606,-0.0005194107070565,-0.0035837013274431
4.281037841796875,-0.005774583079759,0.0062016493854112,0.0315945771813392,-0.0018035946413874,0.0013698358088731,0.0018667241092771
4.29101806640625,0.0041213907789438,0.0008268518787343,0.0462590623497962,-0.0013041896745562,-0.0003406908363103,-0.0035128719173371
4.300997802734375,0.0003314421777613,0.00045940680583,0.0486532640099525,0.0002510964404791,-0.0001526717096567,-0.000350101821823
4.31097802734375,-0.0077423394887708,-0.0026497290574945,0.042816812941432,-0.0014185190666466,-0.0015424992889165,0.0015390042681246
4.320958984375,0.0043194523680023,0.0017834128180518,0.0492523989468812,-0.0011383545352146,0.0009108046069741,-0.000703643541783
4.33093896484375,-0.0020938852730207,0.0080760192893911,0.0467073906391859,-0.000975233502686,0.0009018490090966,0.0011906013824045
4.3409189453125,0.0033689649764448,-0.0080162793256342,0.0401227515518665,-0.001017045113258,-7.3537230491e-06,-0.0004027678223792
4.35089892578125,0.0058270621856674,-0.0032838805088773,0.0312958864957094,0.0005672897677868,-0.0017668902873992,-0.001461069099605
4.36087890625,-0.0100214451355859,0.0008446249974425,0.0411713838219642,0.0009510513627901,-0.0007455684244632,0.0002790402795653
4.37085888671875,0.0011566409555263,0.0030590222444385,0.0449117393940687,0.000898202531971,0.0004708375781774,-0.0016330814687535
4.3808388671875,-0.0011189940925687,0.0015612031684257,0.0447597637027502,0.0035198181867599,-0.001005352474749,0.0004484452365431
4.39081884765625,0.0004187186024151,-0.0101461857601068,0.0396750077843666,0.0005253949202597,-0.0029946519061923,0.0018519992008805
4.400799072265625,-0.0021797369255684,-0.0037531511215958,0.041770518758893,-0.0009382783900946,-0.0006116544827818,-0.0005299321492202
4.410779052734375,0.0025993871097452,0.0069009019622579,0.0417716878026723,-0.0005066645680926,0.0015351688489317,0.0007283848244696
4.420759033203125,0.00113747959733,-0.0006425996193196,0.0474579167455434,0.000271777389571,-0.0018630241975188,-0.0003312869521323
4.430739013671875,-0.0094414898231625,0.0021597901160828,0.0495528431981801,-0.0004278068663552,0.0004487009719014,-0.0002500973059795
4.44071875,0.0033443602581508,0.0079132482094224,0.0426700979471206,0.0024617228191345,-0.0006368029862642,0.0037646179553121
4.450698974609375,0.0001014145478606,0.00525422160062,0.0437134695202112,0.0014085245784372,0.0007087681442499,-0.0011965876910835
4.460679931640625,-0.0037008090130053,0.0032714411524124,0.0368307242691516,0.0019688536413013,-0.0007711509242653,0.001375493244268
4.47066015625,-0.0015046506755985,0.0003627780309412,0.0461094247460365,-0.0001657560351304,0.0007293717935681,0.0009063005563803
4.480639892578125,0.000562839780841,0.0015997268142178,0.0534422518521547,-0.0011553866788744,-0.0012344429269433,0.0006208097329363
4.490619873046875,0.0017568536046892,0.008953359246347,0.0444686718016862,-0.0033432403579354,-0.0014908006414771,0.0013742228038609
4.500599853515625,0.0021492869883775,0.0044388318308163,0.0437228218704462,0.0015247518895193,0.0007558418437838,-0.0012159675825387
4.510580078125,-0.0027248766529373,0.000421787342336,0.0432750781029462,0.005470429547131,0.0006660996004939,0.0008632985409349
4.52056005859375,-0.002274228542298,-0.002460864555044,0.0443213722854852,-0.0001997063518501,-0.0001576161012053,-0.0008605655748397
4.5305400390625,0.0068823981911875,0.0073708484284114,0.037887539845705,0.0002392083406448,-0.0023217489942908,0.0007910151034593
4.54052001953125,0.0089292111857794,-0.0035791827941779,0.0399853889077901,0.0011241766624152,-0.000831976532936,-0.0011459019733592
4.550499755859375,-0.0050525158829055,-0.0015579608985688,0.0483656792402267,-1.61763746291e-05,-0.0017298506572842,-6.6467851866e-05
4.56047998046875,-0.002745225321222,0.0065612308122683,0.0501624995291233,-0.0005775707541033,6.69844448566e-05,-0.0003090818354394
4.5704599609375,0.0050281668929383,0.0008690835852641,0.0338537542849779,-0.0013884995132684,0.001212197355926,-0.0024378765374422
4.580439697265625,0.0060641040782444,0.0003994202469009,0.0452273812144994,-0.0016351082595065,0.0004718387499451,-0.0033500092104077
4.590419921875,0.0028993199043907,0.0088617537064477,0.0434305609256029,4.3660053052e-05,-0.0009924918413162,-4.29317733505e-05
4.600400146484375,-0.0089310743493027,-0.0016165500848554,0.0378922160208225,-0.0005230606766417,0.0018773302435874,0.0001128631483879
4.610380859375,-0.003772102417238,-0.0054319436545483,0.0389385102033615,-0.0006669481517747,0.0016101580113172,0.0006617944454774
4.62036083984375,-0.0001805989976041,-0.0062043253996875,0.0259171160668134,0.0016223051352426,0.0012895138934254,-0.0004940173821523
4.6303408203125,-0.0048108891467563,-0.0007021660531405,0.0480640659451484,-0.0005531888455152,0.0006000529974699,-0.0003215120814274
4.640321044921875,0.0027035964028909,0.0064555054154712,0.0440250196874141,0.0009224686073139,-0.0015680259093642,0.0010803759796544
4.650301025390625,0.0057729939108714,0.0007595679293386,0.0485141478002071,0.0023166043683886,0.0001330152153968,-0.0018151194090023
4.660281005859375,0.0056688211503438,0.002619041658286,0.0398357513040304,0.0003503923071548,-0.0014204066246747,0.001538333017379
4.670260986328125,0.0027819771350361,0.0032479324126616,0.0407324078828096,-0.0025696035008877,0.0012028897181153,-0.0004597537918016
4.680240966796875,-0.0096677363270893,0.0034932032774668,0.0377425784170627,0.00050767918583,-0.0018823826685547,-0.0003428410273045
4.690220703125,-0.0069675922566093,0.0058584345714654,0.0386439111709594,-0.001347122946754,-0.0002960106357932,0.0003601771895773
4.700200927734375,0.0011509418671019,0.000840104085952,0.0471720855414867,0.0009072428802028,0.0021173451095819,-0.0014750070404261
4.71018115234375,-0.0087379446636885,0.0029941129152197,0.0319078809142112,-0.001655843690969,0.0013074036687612,0.0011365721002221
4.7201611328125,-0.0091499229980632,0.0024489823210053,0.0440285268187522,-0.0016036457382142,-0.0018300665542483,0.0011134026572108
4.730140869140625,-0.0005313669303432,-0.0011087832258082,0.0377472545921802,-0.0001859592157416,0.0009654778987169,0.0002151292428607
4.740120849609375,-0.0021505473637022,0.0085730546918697,0.0411865813910961,-0.0005385617841966,1.12671405076e-05,0.0024077098350971
4.750101806640625,-0.0060006469205953,0.0062245096711907,0.0479173509508371,0.0013632803456857,2.0498409867e-06,0.0003864674072246
4.76008203125,0.0011535174166783,-0.0043748997491318,0.042680619341135,0.0020929863676428,-0.0020299423485994,0.0008543848525732
4.77006201171875,0.0034943997207097,0.0008102021380327,0.0374444722533226,-0.00031819997821,-0.0002688476815819,0.0010196418734267
4.7800419921875,-0.0011027370775118,0.000332720819395,0.0356470674425363,-0.00121062528342,0.0006083976477384,0.0009157785680145
4.79002197265625,-0.0073747300190851,0.0002388685234822,0.0354968453168869,0.0028620520606637,0.0002983845770359,-0.0021405189763754
4.800001708984375,-0.0108449816792272,-0.0038572599500417,0.0503109680891036,0.0002779867500066,-0.0003780582919716,0.0008984139421954
4.80998193359375,0.0128102721365168,0.0022143698475323,0.0474719452708959,0.0002032133052125,-0.0027137212455272,0.0001144128691521
4.819962158203125,0.0032576500890776,0.006649493617611,0.0518108512580394,0.0018988478695973,0.0006373347714543,0.0015661019133403
4.82994189453125,0.0076956142702139,0.0014935264933854,0.0422322910517454,-0.0003376268432475,0.0001311032101511,-0.000617318903096
4.839921875,0.0111609157606028,0.0099473569860681,0.0368465063601732,-0.0027717561461031,0.0012376466765999,-0.0023622219450771
4.84990185546875,0.0032741262998431,0.002867536526639,0.0322094942092895,0.0009466335177421,-0.0018009953200817,0.0011089327745139
4.859882080078125,-0.0059516384134069,-0.0005157492361031,0.0509112720698118,-0.0015918917488306,0.0001332592219114,-0.0010956319747492
4.86986181640625,-0.0005453954556956,0.0071913819419685,0.0304091667890548,0.0006496023852378,0.0017919763922691,0.0038034673780202
4.879841796875,0.0013058767004869,0.0028719752397388,0.0422299529641866,-0.0001421553315594,0.0020729405805468,-0.0012426902540028
4.889822021484375,0.004149173835013,0.001565669280989,0.0473106172293424,0.0007631120970472,0.0002036103978753,-0.0002680850157048
4.899802001953125,0.0016869849725626,-0.00351425519865,0.0452139372110366,0.0020321083720773,0.0002014795318245,0.0013942600926384
4.909782958984375,0.0024076273973099,-0.0011199074080213,0.0414724125951528,-0.0004127540742047,-0.0004345159977674,-0.0002540678833611
4.919762939453125,-0.0009370616544038,-0.0054142801336944,0.0467097287267446,-0.0003001024015247,-0.0007442412897944,0.0003097233129665
4.929742919921875,-0.0076441032786853,-0.0022712876665405,0.0437146385639905,-0.0007476123282685,-0.0004968317225575,0.0010310891084372
4.939722900390625,-0.0021662381231784,0.0051688266057986,0.0405728334069252,0.001892645494081,5.55077567696e-05,0.0010585197014734
4.949702880859375,-0.0004604753849096,-0.0001642506510019,0.0432704019278287,0.0002938791876658,-0.0028660269454121,0.0011210724478587
4.95968310546875,-0.0064242243612185,-0.0004522281463723,0.0404272874563932,-0.0002568625495769,0.0023010382428765,-0.0004323494213167
4.9696630859375,0.0110031131166964,0.0007168704319279,0.045360652205348,-0.0005417241482064,0.0013158787041902,-0.0002892713819164
4.979642822265625,-0.002759765303228,0.0030595428342465,0.0435661700040101,0.0004319275030866,-0.0001374082639813,0.0012998369056731
4.989622802734375,-0.0056776803102344,-0.0059795858662575,0.0405740024507045,0.0008630513912066,-0.000476561486721,0.0016340143047273
4.99960302734375,0.0094186752031557,-9.776128605e-05,0.0541933624804019,-0.0010032918071374,-0.0008062608540058,0.0012747539440169
5.0095830078125,0.0067327240548096,0.00939140360374,0.0509036732852458,0.0010751156369224,0.0006829090416431,-0.0002590178046375
5.01956298828125,-0.0010430245132185,0.0065506820187903,0.0440203435122966,-0.0027750162407755,-0.0017996896058321,-0.0002321198699064
5.02954296875,-0.0039480435060337,-0.000859694702411,0.0461216997057199,-0.0003820499405264,-0.0026714848354458,-0.0003409848141018
5.039522705078125,-0.0082842643457464,-0.0011226199549157,0.0506102432966232,-9.92221757769e-05,0.0009413594380021,0.0007341332966461
5.0495029296875,0.0023600253959186,0.0014939648848026,0.0462672456562519,0.0007493093144148,0.0017091315239667,0.0025599878281354
5.059484130859375,-0.0073233834243379,-0.0023512301681097,0.0404319636315107,0.0020340182818472,-5.78761100769e-05,0.0003586188831832
5.069464111328125,0.0047842568681575,0.0076402490874752,0.0524012183666229,0.0028193714097142,-0.0002990793436765,-0.0014084725407883
5.07944384765625,-0.000698357527703,0.0047978835347108,0.0480611433357,0.0007471656426787,-0.0018692789599299,0.0004128633299842
5.089423828125,0.0061235426479019,-0.001099513073964,0.0411772290408611,0.0009941902244463,0.0005509797483682,-0.0005120899295434
5.09940380859375,-0.0018274163565598,0.0049367622824385,0.0414724125951528,0.0003880546428263,0.0021462133154273,-0.0002010326861636
5.109384033203125,0.0028285927557386,0.0038811340159736,0.0314437705338001,0.0022303368896245,0.0014277147129178,0.0005298324977047
5.119364013671875,0.0099017825449816,-0.0014899828294292,0.0514911177843809,-5.30573306605e-05,0.0008546030148863,2.01034727069e-05
5.129343994140625,0.0072363992606289,0.003687200612761,0.0477513467341661,-0.0019622622057795,-0.0030598044395446,0.0015596431912854
5.139323974609375,0.0068318370477296,0.0069457183515187,0.0499976643562316,-0.0022845044732093,0.0011384030804038,0.0004285987524781
5.149303955078125,-0.0038597441680729,0.0055362534123938,0.0529892473876476,-0.0007337440620176,0.0017923172563314,0.0004123869293835
5.159283935546875,-0.0099239213115535,-0.0035606242241803,0.0478998152941465,0.0011709487298503,-0.000764051452279,0.0003023983736056
5.169263916015625,-0.0007638970445841,0.0063595433608628,0.0447574256151914,0.0011892282636836,0.0002071456983685,0.0015180177288129
5.179243896484375,0.0008914872133173,0.0027409784043673,0.0449076477408409,-0.0009591437410563,-0.0002384018152952,-0.0013470109552145
5.189223876953125,0.0039689766962081,-0.0015556319441646,0.0411667076468467,-0.0019136425107717,0.0011505093425512,-0.0013415341963991
5.1992041015625,-0.002522723410651,-0.0021640461660921,0.0461053330928087,0.0006379322148859,-0.000427147373557,-0.0012027835473418
5.20918408203125,-0.0025159100773744,0.0045340723662171,0.0505944612056016,0.001475429511629,0.0005731051787734,0.0007207595044746
5.21916455078125,-0.0041700887588784,0.0027186752410139,0.0381751246154308,-0.0014082413399592,0.000786424614489,-0.001325613586232
5.2291455078125,-0.0067454556722193,-0.0042899979446548,0.0471522117972373,0.0023749980609863,-0.0004318309947848,0.0004291873774491
5.23912548828125,0.0016439860810525,0.0046991450011264,0.0519388615518808,6.33742893114e-05,0.0016944371163845,-0.001446210546419
5.24910546875,0.0069117886824533,-0.0026491171361412,0.0467027144640684,0.0014009933220222,0.0008663088083267,0.0002341624349355
5.25908544921875,-0.002873801870644,0.0022803020900581,0.0502910943448543,0.0003921879688277,7.7057629823e-06,0.0003172530559822
5.269065673828125,-0.0029427754536271,-0.0015175375566352,0.0434083490937948,0.0019856139551848,0.0001773340627551,0.0006873139645904
5.279045654296875,0.0015230813814327,0.0026636297186836,0.0389174674153327,-0.0010506559628993,-0.0019148448482155,-0.002176915993914
5.289025634765625,0.0007580518256872,0.0050792120935861,0.0365244347989559,-0.000806315918453,0.000654000788927,0.0010989325819537
5.29900537109375,0.0066185230906121,0.0023998824822716,0.0510392823636531,-0.0003850038629025,-3.92198562622e-05,5.49733595107e-05
5.308985595703125,0.0001266585869714,-0.000878764729062,0.0363753817170858,3.1325034797e-06,0.0001113908365368,0.0014161374419927
5.318965576171875,0.0065551024655811,0.0051779962929431,0.0362263286352157,0.0003807686734944,0.0009976904839277,-0.0020552929490804
5.3289453125,0.0121938938038423,0.0033318569696042,0.0455032755464315,-0.001700701424852,-0.0002235528081655,-8.64851899677e-05
5.338925537109375,-0.0100722802736796,-0.0014736162165179,0.0490969161242246,0.0002159755676984,-0.0009647104889154,0.0013289849739521
5.348905517578125,-0.009594488427788,-0.003115702601429,0.046104748570919,-0.0004648403846658,0.0001888619735836,-0.0018342791590839
5.3588857421875,0.0042039910284802,-0.0013050090508069,0.0408697705268859,-0.0001263526501134,0.0013199066743254,-0.0010553044266998
5.368865478515625,0.0023395671297796,0.004952334310906,0.0447591791808605,0.0010709973284974,0.0006508324295282,0.0008828227873891
5.378846435546875,-0.0013928060652688,0.0027477643381804,0.0468535211116075,0.0001830992987379,0.0002486947923898,0.0024114772677421
5.38882666015625,0.0047073191744275,-0.0072586202255915,0.0462543861746788,0.0002035152865573,0.0012532416731119,-0.0001503491657786
5.398806640625,-0.0007625270714052,-0.0015017371993046,0.045957449054718,-0.0019935925956815,-0.001712454482913,0.0018321080133318
5.40878662109375,-0.0036527320875786,0.0043903073808178,0.0425157841682434,0.0009275815682485,0.0017306553199887,-0.0011324106017127
5.4187666015625,-0.0065665919739753,0.0021513328149914,0.0429629434138536,-0.0004569959710352,0.0007884288206696,0.0004662849241867
5.42874658203125,0.0036411877802573,0.0034421489436645,0.0413163452506065,0.0013953249435871,-0.0022020582109689,0.0009592452552169
5.438726318359375,-0.0055259968798607,0.000348164983699,0.0464057773441076,-2.30745645239e-05,-0.0008054971694946,-0.0026796981692314
5.448706298828125,-0.0031183877488598,0.0057393108369782,0.0495469979792833,0.0006078663282096,-0.0015234779566526,0.0009855547687038
5.458686767578125,-0.0028853096453472,0.00981214976646,0.0335375279426574,0.0015098789008334,0.0008366154506802,-0.0020280783064663
5.46866650390625,0.0040607283665798,0.0040165421649813,0.0386228683829307,-0.0003436209517531,0.0006837891414761,-0.0001932162558659
5.478646484375,0.0105957926911301,0.0048397681813687,0.0464034392565488,-0.000399014679715,0.0010438486933708,-0.0001865583471953
5.48862646484375,0.0110711185852997,0.0032305154869798,0.0510392823636531,0.0004045498790219,0.0016943486407399,0.0013917949981987
5.498606689453125,0.000154934833385,0.0001181008211802,0.0455026910245418,0.001051697996445,-0.000937120988965,-0.0026314423885196
5.50858642578125,0.0006639620677568,0.0003456533662043,0.0546311693757772,0.0039642723277211,-0.0018926821649074,-0.0001294200774282
5.518566650390625,-0.0063645848621614,-0.0006799542213324,0.0383200860440731,0.0011599637800827,-0.0006545791402459,0.0011795235332101
5.528546630859375,-0.0011543394005857,0.0037149928019847,0.0360743529438972,0.0003164997324347,-0.0003084223717451,-0.0008762653451412
5.5385263671875,0.0026566885212436,0.0033334826711099,0.0431096584081649,0.001533564296551,-0.000421074219048,0.0002734212903305
5.54850732421875,-0.0023946217852644,-0.0047227724718861,0.0387707524210214,-0.000460561888758,-0.0012227883562445,0.0014972742646932
5.558487548828125,-0.0078884516948834,0.0087563845026772,0.0360796136409044,-0.0042941821739077,-0.003815907984972,0.0015111225657165
5.5684677734375,-0.0017596483499743,-0.0015724917474202,0.0404237803250551,0.0018494605319574,0.0003526983782649,-7.19976305845e-05
5.578447509765625,-0.0037277883514761,-0.0008497943629045,0.0456610964566469,-0.0024526098277419,-0.0009035151451826,0.0011405395343899
5.588427490234375,0.0011005999193526,-0.0007767656593117,0.0456610964566469,0.001268021413125,-0.0005296412855386,-0.0005845628911629
5.598407470703125,0.0034132242432795,0.0137060519324615,0.0425157841682434,-0.0014377504121512,0.0002756984904408,0.0010050779674202
5.6083876953125,0.0031323980079032,0.0016711115499958,0.042367315608263,-6.751040928e-06,-0.0006114561110734,0.002419386524707
5.618367431640625,-0.0011579378634691,0.0005387465192005,0.0389274042874574,-0.0014576411340385,5.0654634833e-06,-0.0002216703433077
5.628347412109375,0.0018612820935435,-0.0070448952765204,0.0500023405313491,0.0013918885961174,-0.002924470230937,-2.6552561394e-06
5.63832763671875,-0.0035376908731646,0.0004784402998629,0.0498550410151481,0.0008549953345209,-0.0018219212070107,0.002300446620211
5.6483076171875,-0.0023902196047827,-0.0007145962764509,0.0419265861034393,0.000189367448911,-0.0005156751722097,0.0017351193819195
5.65828759765625,-0.0068657393173314,0.0024688834647182,0.0378863708019256,0.0042927656322717,-0.0014089001342654,0.0006152601563371
5.668267578125,-0.0006779357941821,-0.0025464787455741,0.036089550513029,0.0025201216340065,-0.00142109580338,0.0010224034776911
5.678247314453125,-0.0025624343665316,0.000770956973033,0.0555430235236883,0.0016458058962598,-0.0001752693206071,-0.0002159664581995
5.688227294921875,-0.0106862657198682,-0.0086313242177478,0.047162148669362,-0.0002460428513586,-0.0008071949705481,8.22786387288e-05
5.698207763671875,-0.0031269911804236,-0.005002950253291,0.0459679704487323,-0.002267382107675,0.0007432969287037,-0.0020248144865036
5.708187744140625,-0.0021851254867389,-0.0026303485035896,0.0486626163601875,-0.0009937126887962,-0.0006692335009574,0.0010526051046326
5.71816748046875,0.0055026890695095,-0.0013535243676509,0.0381868150532245,-0.0015300732338801,0.0009968401864171,0.0006379509577527
5.7281484375,0.0067465516507625,-0.0008534293584059,0.0497094950646162,-0.0010807655053213,-0.001512742601335,0.0001583035918883
5.73812841796875,0.0035028387554921,0.003759087672038,0.0386392349958419,0.0003637331537902,0.0011368356645107,-0.0003173369914293
5.748108642578125,0.0052532260867767,-0.0021664938515052,0.0485135632783174,0.0002925272565335,8.04038718342e-05,-0.0002023393171839
5.758088623046875,-0.0031208719668909,0.0078590064046904,0.0392331092357635,-0.0010928490664809,0.0031225327402353,-7.1844420745e-05
5.768068603515625,-0.0033003567196428,0.0014989607203286,0.0399812972545623,0.0003604638623073,0.0002218978479504,-3.88730477425e-05
5.778048583984375,0.0032163864969275,0.0009113244249485,0.0348918651610612,0.0006917610298842,0.0031577665358781,-0.0010836311848834
5.7880283203125,-0.000220766611211,0.0019883790719322,0.0320458280801773,0.0006289902376011,0.0002064872533082,-6.08124537393e-05
5.798008544921875,0.0001759228224866,-0.007036976831546,0.0491039303869009,-0.0009625148377381,0.0011042393743991,-0.0007308637723326
5.807988525390625,0.0027619024613872,0.0021124621093273,0.0473100327074527,-0.000131297390908,-0.0030136844143271,-1.84540440386e-05
5.81796875,-0.0009879515914246,0.0048802919880021,0.0390840561538934,-0.0017499667592346,-0.0005212314426898,0.0027277974877506
5.827948486328125,0.0060051952315494,-0.0037323366624303,0.0441717346817255,0.0012279134243726,0.0013328716158866,-0.0023352063726633
5.837928466796875,0.003447692768462,0.0032879173631779,0.037438042512536,-0.0003872937522828,-0.0003326693549752,-0.0023407989647239
5.84790869140625,0.0081375310851261,-0.0048876259110867,0.0458195018887519,-0.0005772114382125,-0.0001342948526144,0.0016951704164966
5.857888427734375,0.0038751244002953,-0.002154118427122,0.0426753586441278,-0.0001039677299559,-0.0010224590077996,0.001327387872152
5.867868408203125,-0.0056669579868204,-0.0010640033691655,0.0438695368647575,-0.00207932991907,0.0018171090632677,0.0016963013913482
5.877848388671875,0.0095253869806416,-0.0026783888963982,0.0512000258833169,0.000235489802435,-0.0005158204585313,-0.0001617861998965
5.887828857421875,0.0052700676237232,-0.0047972533470485,0.0425216293871402,-0.0009090960375033,-0.0013150749728083,0.0004242051800247
5.897809326171875,-0.0064175023594871,0.0008054985634516,0.0353407779723405,-0.0005967072211205,-0.0009936308488249,0.0010290091158822
5.90778955078125,-0.0068686801930889,0.0051571635674685,0.0579360561400651,-0.0001365807838737,0.0001497594639658,-0.0006804171716794
5.91776953125,0.0043286403214558,0.0033332452090922,0.0570382305175065,-0.0010497787734493,-0.001329893246293,-0.000225016643526
5.927749267578125,5.46345303766e-05,0.0103814010217785,0.0486561866194009,0.0011306008091196,0.0017278669402003,-0.0003014669055119
5.9377294921875,-0.0054454972558654,0.0078115140011534,0.0371323375642299,5.49500109627e-05,0.0011896416544914,-0.0029601005371659
5.947709716796875,0.0146273680284619,-0.0006211915051098,0.0381774627029895,-0.0032617161050438,0.0009968699887394,0.0020031351596117
5.957689697265625,-0.0002438369595445,-0.0033082842977717,0.0461082557022571,0.000473101157695,0.0021598720923066,0.0003847321495413
5.96766943359375,-0.0030957192593254,-0.0024150983177125,0.039825229910016,-0.0021807933226227,-0.0001157084479928,-0.0019918384496122
5.9776494140625,0.0023341420359909,-0.001562892802013,0.0502981086075305,-8.99453880265e-05,0.0008201263844966,0.0015744004631415
5.987629638671875,-0.0090740082176402,-0.0033082660314626,0.0402706355899572,-0.0002660944010131,0.0007334565743803,0.0002688281529117
5.997609619140625,-0.0042452363543212,-0.0013071736084297,0.0496983891487121,-0.0009710331214591,-0.0013366183266043,0.0014715116703882
6.007589599609375,-0.0036155966812744,0.0008781071419361,0.0502963550418615,0.0006103165214881,-0.0008872570469975,0.0004833163402508
6.017569580078125,0.0050592013520188,-0.0016289529087021,0.042516368690133,-0.0001023453660309,0.0021162563934922,0.0002215276035713
6.027549560546875,0.0057207887995988,0.0018933942648582,0.0317401231318712,-0.0001359881134703,4.57568094134e-05,0.0011387778213247
6.037529541015625,-0.0043994405353441,0.0031579799737315,0.0458095650166273,0.0015929359942674,-0.0023425668478012,-0.0011153216473758
6.047509521484375,-0.0054817741456441,-5.4068274796e-06,0.0431137500613927,0.0012346316361799,0.0017508063465356,0.0009404213051311
6.057489501953125,-0.0036472339285537,0.0092510909507516,0.0456540821939706,0.0019608754664659,0.0001686224713921,0.0007145852432586
6.067469482421875,-0.0079618457246571,-0.0024202676831744,0.0495452444136142,0.0004419450415298,-0.0020918445661664,0.0003573710564523
6.077450439453125,-0.0020519823600538,-0.0012743307847529,0.0338350495845079,0.0002707038074731,-0.0012050122022628,-0.0008439809316769
6.087430419921875,0.0071398618172854,0.000282817263063,0.0335381124645471,0.0015256906626746,0.0006050858646631,0.0006038054125383
6.09741064453125,-0.0018796945330686,0.0063593515646178,0.0488046551793813,-0.0016977994237095,-0.0014356942847371,0.0010112691670656
6.107390380859375,0.0013761471914127,0.0023333565847016,0.0386281290799379,-0.0001484396634623,-0.0006549218669533,-0.0012478365097194
6.11737060546875,-0.0036585407738573,-0.0004871259298175,0.0425227984309196,0.0011128335027024,-0.0016988813877105,0.0024305214174091
6.1273505859375,-0.0066058645384386,0.0033200569339562,0.0450637150853872,-0.0002800947404466,0.0013553844764828,0.0011837736237794
6.13733056640625,0.003623761721421,-0.0045003070939332,0.0440144982933998,-0.003289733082056,0.0004632258787751,-0.000724647543393
6.147310546875,0.0075474927701056,-0.0054780295522883,0.0480564671605825,-0.0009717417997308,0.0008120974525809,-0.0002528360055293
6.15729052734375,0.0018867087957449,-0.0032225696425419,0.0459615407079458,-0.0028633852489292,0.0032531507313251,-0.0003175508172716
6.1672705078125,0.004104804970324,0.0037918939630966,0.0390764573693275,0.0009039505384862,0.0027516623958945,0.0009674105094745
6.177250244140625,0.0004482917567715,0.0004925053578335,0.0483528197586536,0.0001060673967003,-0.0016492111608386,0.0020979223772883
6.187230712890625,0.0025954415869899,0.001383371516643,0.0526934793114662,-0.0016890402184799,0.0015184953808784,-0.0022132352460175
6.197210693359375,0.0038773346236906,0.0031837537358049,0.0402735581994056,-0.001576921204105,0.0006337938830256,0.0016291735228151
6.2071904296875,0.0026773659830912,0.0020631704743485,0.038924481678009,-0.0008810221916064,0.0023955907672643,0.0003268498694524
6.2171708984375,-0.0037120793256908,0.0068695935085415,0.040569326275587,0.0003144708462059,1.28606334328e-05,0.0009521601023152
6.22715087890625,0.0062531238443218,-0.0067599956542253,0.0423638084769248,0.0025677401572465,0.0014034025371074,0.0015753619372844
6.237131103515625,-0.0031693142184987,0.0017521682964172,0.0420604416161775,6.8442896008e-06,0.0008012615144252,-0.0028420232702046
6.24711083984375,-0.0021888152811676,-0.0052974122883751,0.0438543392956256,0.0023833778686821,0.0015502898022532,0.0028286641463637
6.257091796875,0.0037503289768472,-0.0003121255559381,0.0457984591007232,0.000336738419719,0.0009627966210246,-0.0002779133501462
6.267072021484375,0.0066791124377399,-0.0019705602874513,0.045949850270152,0.0020923507399857,-0.0006940886378288,-0.0005463652778416
6.277052001953125,0.004138762038853,-0.0006091905400622,0.0432563734024763,-0.0013250174233689,-0.0005548056215047,-0.0002752555010374
6.28703173828125,-0.0039511487785726,0.0045662302033044,0.0450526091694831,-0.0018120963359251,0.002122251316905,-0.0013909607660025
6.297011962890625,-0.0054847515540197,0.0019675920122303,0.0446048654019832,-0.0017223478062078,-0.0006820578128099,0.0011435695923864
6.306991943359375,-0.0088585023034363,0.0052556920384988,0.044157706156373,-0.0004619902465492,0.0016307653859257,-0.0005750833079218
6.3169716796875,-0.0032167518231086,-0.0005835081095341,0.0459521883577108,0.0010943610686808,0.0003148978576064,-0.002295218873769
6.326951904296875,-0.005591262402106,-0.0030665022979956,0.0378717577546834,-0.0005403044633567,0.0006664553657174,-0.0004442930803634
6.33693212890625,-0.0083717416997998,0.0009550996345933,0.0486468342691659,0.0012807651655748,-7.41695985198e-05,0.0004792911931872
6.346912109375,-0.0061876391263678,-0.0056096109095495,0.0425087699055671,0.001930552185513,0.0021708915010094,0.0013261202257126
6.356891845703125,-0.0003345291839912,0.0020882318503689,0.0398117859065532,0.0011350660352036,0.0004648705944418,0.0008259785827249
6.366871826171875,-0.0089010628035292,-0.0001203841098118,0.0449000489562749,-0.0004972396418452,-0.0001873522996902,8.67695707711e-05
6.376851806640625,-0.0017457294224761,0.0034595658693462,0.0396656554341316,-0.0003544942010194,-0.0005900226533412,6.3421080085e-06
6.386831787109375,0.0078992105509154,0.0034107582915574,0.0390688585847616,0.0011302338680252,-0.0001478744670748,0.0009383928263559
6.39681201171875,0.0044245749766007,-0.004952334310906,0.052384267231822,0.0027712737210094,-0.0017785271629691,0.0011961868731305
6.4067919921875,-0.0097087076582945,-0.0025010139023419,0.0546311693757772,-0.0025811968371272,-0.0020299470052123,0.0016211667098104
6.416771728515625,-0.0094455632100813,0.0031223241384606,0.0523901124507188,0.0019842600449919,-1.34017318487e-05,0.0012491231318563
6.426751953125,-0.0015764007375575,0.0044775655391626,0.0399719449043273,-0.002721581608057,-0.0002367012202739,-0.0002155784022761
6.43673193359375,0.0015465170559473,0.0072541815124917,0.0437128849983215,-0.0016800195444375,0.0004218984395265,0.0014193360693752
6.4467119140625,0.0002442388183437,-0.0036818120515905,0.0408709395706653,0.0010344478068873,0.0002654818817973,-0.000769218779169
6.45669287109375,-0.0025308336518704,-0.0055412309816107,0.0477566074311733,-0.0006492024986073,-0.0019409470260143,0.0005330669227987
6.4666728515625,-0.01165209681103,0.001428936824575,0.045811903104186,0.0001801809994503,-0.0008172178640961,0.0010699145495891
6.47665283203125,0.0019180720483884,0.0007920180273707,0.0453659129023551,-0.0011836237972602,-0.0016294820234179,-0.0014971063937991
6.486633056640625,0.0018419928711839,0.0014059212751686,0.0473123707950115,0.0002880125539377,0.0001887083053588,0.003221784485504
6.49661279296875,-0.0052111953096464,-0.0020236239152494,0.0308498962938785,0.0023745992220938,0.0005319900810718,7.81890194048e-05
6.506593017578125,-0.0083050148728303,-0.0043793293290771,0.0393769016206264,1.66405225172e-05,9.69972461462e-05,-0.0001981112436624
6.516572998046875,-0.0008242306633852,-0.0105217228079214,0.0438660297334194,-0.0026832721196115,-0.0007205931469798,0.0008410541922785
6.526552734375,-0.0034214440823532,0.00093626706996,0.046263154003024,0.0006336369551718,-0.0014747017994523,-0.0001172604897874
6.536532958984375,-0.0064391662020236,-4.08708665054e-05,0.0332435134321451,0.0017500340472906,0.0019021863117814,-0.0009044908802025
6.546512939453125,0.0016520597896538,-0.0018764522632118,0.0453629902929067,0.0002471240004524,-0.0010063033550977,-0.001226142165251
6.556492919921875,-0.0026487974757328,-0.0019122816284187,0.0414735816389322,0.0005129075143486,0.0004073018208146,0.0012066555209457
6.56647265625,-0.0060787536581046,-0.0047637346699368,0.0359375748217105,-0.0024382225237786,-0.0006564036011695,0.0008255359716713
6.576453125,0.0029276874823495,0.0020398352645337,0.0458148257136344,-0.0010195567738264,0.000659198500216,-0.000476217130199
6.58643310546875,0.0046649778700433,0.0068549621949903,0.0437187302172183,-0.0007847392698749,-0.0017091268673539,0.0008958273683674
6.596412841796875,0.0025993323108181,-0.0001737399985548,0.0532926142483949,-0.0026183256413787,0.0015889313071966,-0.0003039267030544
6.606392822265625,-0.0070855195478536,-0.0008554021197836,0.0456599274128675,0.0004311300581321,0.0009422227740287,-0.0017629159847274
6.616372802734375,-0.0031154468731023,-0.0035153237777296,0.0420662868350744,-0.0016530598513782,-0.0002439497038722,-0.0007892642752267
6.626352783203125,-0.0007743088407441,-0.0042618404292501,0.038023733446002,0.0009183534421026,-0.0008793203160166,0.0011729873949661
6.6363330078125,0.0001941343326121,-4.89354419521e-05,0.0429629434138536,-0.0014326851814985,0.0010962123051285,0.0003002695157192
6.64631298828125,-0.0025976335440762,-0.0026271792989689,0.0456575893253088,-0.0014989936025813,0.0022222492843866,-4.30992986366e-05
6.6562939453125,-0.0010804704467765,-0.0038006252588238,0.0411672921687364,-0.000339186983183,0.0009399373084306,-0.0003363133291713
6.666273681640625,0.0056136934296227,-0.0038549309956375,0.0354793096601963,0.0022136848419904,0.0004719449207186,0.0005202386528253
6.67625390625,-0.000603409253247,0.0058416752329096,0.0347293680757284,-0.0016417735023424,0.0028935577720403,-0.0042034103535115
6.68623388671875,0.0006670856066048,-0.0055776540018618,0.0399625925540924,0.0001850782427936,0.0016487007960677,-0.0017278991872444
6.696214111328125,-0.0012964330187067,0.0062068461503367,0.0405611429691314,0.0010543341049924,-0.0013819765299558,0.0001610809267731
6.70619384765625,-0.0068674563503824,0.0068807633565273,0.0455009374588727,0.0013062487123534,-0.0002604527398943,0.0014434673357754
6.716173828125,-0.0037647958936169,-0.0062738195724785,0.0531342088162899,0.0018146460643038,0.0003086645156145,-0.0019816239364445
6.726154052734375,-0.0013644932862371,-0.0052815205994993,0.0529839866906404,-0.0012268027057871,0.0001771701499819,0.0003452312084846
6.7361337890625,-0.000429769719392,-0.0004504471812397,0.0455026910245418,-0.0003447637427598,0.0002490757033228,0.0010666814632713
6.74611376953125,-0.005359755201172,0.0017800974829588,0.0472965887039899,0.0013535189209505,-0.0007759677246212,0.0017460333183407
6.756093994140625,-0.0049743908790871,0.0022160868805833,0.0454968458056449,-0.0006603634683415,0.0030619138851761,-0.0002340269420528
6.766073974609375,-0.0055654155747964,-0.0051177631388418,0.0410047950834035,9.39769670367e-05,0.0002730758860707,0.0006684007239528
6.776053955078125,-0.0061616096359677,-0.0019146562485955,0.0451934789448976,6.04210654273e-05,-0.0012960592284798,-0.00200035283342
6.786033935546875,0.0005828779218718,0.0089006335452664,0.0519306782454252,0.0016080322675406,-0.0030274139717221,0.0013015834847465
6.796013916015625,-0.004701967145875,0.0055604014729615,0.0342757790893316,-0.001433830242604,-0.0020135482773184,0.0004408498352859
6.80599365234375,-0.0016138101384975,-0.0050180016919504,0.0419072968810796,0.0020243492908775,-0.0001495135948061,0.001118540414609
6.815973876953125,-0.0018873481165617,0.002028683682857,0.0502875872135162,-0.0019272491335868,-0.0002999817952513,0.0015965778147801
6.8259541015625,-0.0066278206419199,-0.0017894041674211,0.0428109677225351,9.58341406658e-05,-0.0019791573286056,-5.92879114265e-05
6.835933837890625,0.001609481023252,-0.002314779748395,0.0369745166540145,0.0009227456757798,0.0001846617087721,-0.0002837923821061
6.845913818359375,0.005559698220063,-0.005340511644585,0.0461006569176912,-0.0007533588795922,-0.0001907367259263,0.0020632548257708
6.855894775390625,0.0015251454743556,0.0054718829392921,0.0420598570942878,-0.0004646722227334,-0.0007017971947789,0.002443287987262
6.865874755859375,-0.0075169880339875,0.0035029483533464,0.0492412930309772,-0.0012813111534342,0.0032632201910018,-0.0011802680091932
6.875855224609375,-0.0034055158608593,-0.0004288929365575,0.0404085827559232,0.0004012739518657,0.0018227156251668,-0.0001115414779633
6.8858349609375,-0.0045569691846147,0.0032246063360013,0.0396603947371244,-1.27316452562e-05,-0.0001786835491657,0.0019286414608359
6.89581494140625,-0.0048531573859043,0.0056517512845341,0.0483411293208599,-0.0007227304158732,0.0018221493810415,0.0006796189700253
6.905794921875,-0.005151464479044,0.0066431826078332,0.0369692559570074,5.04625495523e-05,-0.0007859244942665,3.7929785321e-06
6.91577490234375,-0.0073789495364762,0.0006045782970264,0.0324777897566556,0.0002201058669015,-0.0001520924270153,0.0024405855219811
6.9257548828125,0.0005469663582742,-0.0044382290426176,0.0495358920633792,-0.0006943291518837,-0.0015132678672671,-0.0018527637002989
6.935735107421875,0.0110321930807083,-0.0039091454009059,0.0426549003779888,0.0017919980455189,0.0004960866644978,0.0001225028681801
6.94571484375,0.0102246760901063,-0.0020065175168216,0.0387619845926761,0.0012084189802408,0.001474168151617,-0.0015687678242102
6.95569482421875,0.0060852929967455,0.0074224598846398,0.0368143576562404,3.02365515381e-05,0.0008075796067714,-0.0001293293171329
6.965675048828125,0.0013556158600375,0.0061060983227565,0.0483341150581836,0.0025870003737509,0.0004112003371119,0.0003705636772792
6.975655029296875,0.0007384703423827,-0.0031199221188202,0.0465378792911767,0.0001328974030911,0.0018932493403553,0.0005676376167684
6.985634765625,0.0097909060490317,-0.0030731969002634,0.038308980128169,0.0006240693619474,0.0009544072672724,0.0004259311826899
6.99561474609375,-0.0098919918033294,0.0005436966889537,0.0420510892659425,-0.0001530410372652,-0.0017039598897099,-0.0003029759973287
7.005594970703125,-0.0126077535680495,-0.0030323260337579,0.0374117390275001,-0.0001527001732029,-0.000641830265522,-0.0004396295989863
7.015574951171875,-0.0049201216748915,-0.0091177925604395,0.0371148019075393,-0.0009721548412926,0.0013345014303922,0.0027036992833018
7.025554931640625,-0.0069235704517923,0.0084428707072511,0.044892450171709,-0.002151618245989,0.0020359149202704,-0.0019480267073959
7.035534912109375,-0.0029355419952422,0.0022365542798768,0.040998365342617,0.000311273150146,-0.0001364257186651,-0.0021195341832935
7.0455146484375,-0.0053409957017749,-0.0053824967559427,0.0480307481974363,0.0014426941052079,-0.000517631880939,-0.0007321978919208
7.055494873046875,0.0053559010099619,0.0008360124327242,0.0447393054366111,-0.0006881009321659,-0.002553884871304,0.0007328069768846
7.06547607421875,-0.0012538542523048,0.0007414751502219,0.0399497330725193,-0.0001980043016374,0.0017593139782547,-0.0005547491600736
7.0754560546875,-0.0005664199774153,0.0045205278980545,0.0393529362231492,0.0014342472422868,0.0001963051036,-8.3369675849e-05
7.085435791015625,0.0018893208779394,0.0065610298828687,0.0384597867757081,-0.0009240379440598,-0.0038925809785723,0.0006643353262916
7.095415771484375,-0.0050221572772599,0.0062019781789742,0.0392085593163967,0.000478649046272,-0.0005721515044569,-0.0009886887855827
7.105395751953125,-0.0030896000457927,0.0010680036908481,0.0432487746179103,0.0004593828925862,-0.0007352968677878,0.0012811999768018
7.115376220703125,-0.000573598636873,-0.0049663537031039,0.0451940634667873,-0.0003313095658086,-0.0017145415768027,-0.002183572622016
7.12535595703125,-0.0039847953198477,-0.0020097049877513,0.0486380664408206,-0.0013683264842256,-0.0016389330849051,-0.0003349866892676
7.1353359375,-0.0013133841535076,0.0018565419863443,0.0594119739115238,0.0016082886140793,0.0010471306741237,0.0013446689117699
7.14531591796875,0.0029802944524213,0.0020512517076916,0.0514794273465871,0.0022997444029897,0.0007689502090215,0.0007773755351081
7.1552958984375,-0.0036623584324494,-0.0028970914146862,0.0362152227193117,-0.0039640106260776,-0.0014534574002027,-0.0021265354007482
7.16527587890625,-0.0039916999846696,-0.0036039519092533,0.0414566305041313,-0.0008192366221919,-0.0010657012462615,0.0028047794476151
7.175255859375,-0.006942202087026,0.0008747278747614,0.0502864181697368,0.0011930478503927,-0.0007051099091768,-0.001025911536999
7.185236083984375,-0.000434281497728,0.0001916044488083,0.0425058472961187,-0.0002588995848782,0.0005803853273391,-0.0021129455417394
7.1952158203125,-0.0073318955243565,0.0016134539454709,0.0425064318180084,-0.0005361346993595,-0.0017802407965064,0.0016370515804737
7.205196044921875,-0.0026313714168965,-0.0043377917422913,0.0456529131501913,-0.0013376837596297,-0.0008998177945613,0.0006964460480958
7.215176025390625,0.0016739793605171,-0.0044510702578816,0.0475970329552888,-0.0006130376132205,0.0003803633153438,0.0012780803954228
7.225155029296875,0.0075268153082579,0.0012043799542356,0.037721535629034,-0.0021198904141783,-0.0019888952374458,0.0015027475310489
7.23513525390625,0.0034452633493579,0.0021445834137964,0.0440086530745029,0.0004122431855648,0.0005794567987322,-0.0017566952155902
7.245115234375,0.0001228591946884,0.0004044069492723,0.042661914640665,0.0004049014532938,-0.0009293919429183,-0.0012643375666812
7.25509521484375,-0.0131042501144111,0.0013297142338007,0.0467003763765096,4.0957238525e-06,-0.0005536200478672,0.0009189218981191
7.2650751953125,0.0009786723064258,0.0015122037943918,0.0481967524141073,-0.0019474870059639,0.0007362905889749,-0.0014397914055734
7.27505517578125,0.0012617087651975,0.0006557056960649,0.0404150124967098,0.0008506963495165,-4.18853014707e-05,-0.0004016912425868
7.2850361328125,0.0012418715535663,-0.0006325622824952,0.0353261649250984,-0.0010020935442298,0.0020869299769401,-0.0024121010210365
7.29501611328125,0.0006390468222089,0.0053074404920451,0.0477466705590486,-0.0006702637183479,-0.0006633168086409,0.0005314909503795
7.30499609375,-0.0105990440941415,0.0050637131303548,0.0429559291511774,0.0027289865538477,0.000917799770832,-0.0018194145523011
7.314976318359375,-0.0024782084154896,-0.0037748971625231,0.045196401554346,0.0007031199056655,0.0030451323837041,-0.0014215382980182
7.3249560546875,-0.0014343253857456,-0.0075815685696434,0.0438484940767288,-0.0002508973702788,-0.0025985399261116,0.001500274054706
7.33493603515625,-0.0035157530359923,-0.0029697639252524,0.0416080216735601,-0.0004474386805668,-0.0004778644070029,0.0006512582767754
7.344916259765625,-0.0039553865622729,0.0024503340278752,0.0411591088622808,0.0007254487136378,0.0001828242093324,-0.0005413334583863
7.354896240234375,-0.0061492798773571,-0.0002967453237157,0.0431043977111577,-0.0011086702579632,0.0007926886901259,0.0022398056462407
7.3648759765625,-0.0135890379566699,0.0018393807889893,0.0448971263468265,0.0004245029995217,0.0021592369303107,0.0002372787275817
7.374856201171875,0.0005471307550556,-0.0044244197129737,0.0469949754089117,-0.0011949652107432,-0.0009715752676129,0.000894280616194
7.38483642578125,0.007455467105098,-0.0053762862108647,0.0489396797358989,0.0028317649848759,0.0001128576695919,0.000771649822127
7.394816162109375,-0.0077441843859851,0.0028561931487172,0.0371229852139949,-0.0003198199556209,-0.0005598571151494,-0.0007583362166769
7.404796142578125,-0.0020279438973404,0.0003643032677471,0.0353290875345468,0.0010044460650533,-0.0012846067547798,-0.0014953244244679
7.414776123046875,0.0034951669056899,-0.0001216992840636,0.0348784211575984,0.0025863638147711,0.0004397900775074,0.0014733012067154
7.424755859375,-0.00682816551961,-0.0026898875379469,0.0447550875276327,-0.0006961002945899,-0.0029678056016564,9.71732806647e-05
7.434736083984375,-0.0050434740599244,-0.0003208294522017,0.0486456652253866,-0.0012905178591609,-0.0018607294186949,0.0015664391685277
7.44471630859375,-0.0008010689835064,0.0075374828327447,0.0428115522444248,-0.002260978333652,0.0003601256757974,0.0010714620584622
7.4546962890625,-0.0068033050729893,0.0028465485375374,0.0347317061632871,-0.0028444766066968,0.0006759762763977,0.0002693179121706
7.464676025390625,-0.0016399309604428,-0.0006004044454079,0.0453542224645614,-0.0010798705043271,0.0026924852281808,0.0008904959540814
7.47465625,0.0045505394438281,-0.004152817963669,0.0419113885343074,-0.0003733338671736,0.0009036399424076,-0.0007268417393788
7.48463623046875,0.0031765476768836,-0.0020196875256486,0.0528343490868806,-0.000380209996365,0.0011529559269547,0.0004566553689073
7.494615966796875,0.0003978584774769,0.000469955599308,0.042807460591197,-0.0005884692072868,0.0013265935704112,-0.0023737521842122
7.50459619140625,-0.0075080558088608,0.0033443967907689,0.0425046782523393,-0.0009382898570038,0.0019130297005176,0.000219879701035
7.5145771484375,-0.0072274670355021,0.0064432578552514,0.0347241073787212,-0.0001718321000225,0.0009138118475675,0.0004246767784934
7.52455712890625,-0.0034686990238726,0.0063583651839289,0.0522311224967241,0.0011997350957244,-0.0008536176756024,0.0008327967952936
7.534537109375,-0.0036408589866943,0.0013675711593125,0.0472965887039899,0.0004993237089365,-0.0016959756612777,0.0005680785980075
7.54451708984375,-0.0114594603157602,0.0027452892533037,0.032331659284234,-0.0001557464129291,0.0020115012302994,0.0016278065741062
7.554497314453125,-0.0050680970445275,-0.001786609422136,0.0390647669315338,0.0015777051448822,0.0001387661322951,-0.0007554563344456
7.564477294921875,0.0011012575064785,-0.0056376496939454,0.0495429063260555,-0.0008751411223784,-0.0021561700850725,0.0026169547345489
7.57445703125,-0.0008902999032288,0.0004278791564051,0.0407207174450159,0.0010274210944771,-0.0007670652121305,0.0003476752899587
7.584437255859375,-0.0113736451958306,-0.0004076674854382,0.0473036029666662,0.0007850874681025,-0.000465128570795,0.0017275942955166
7.594417236328125,-0.0034090777911245,0.0079720474582631,0.0422165089607238,0.002978200558573,-0.0008568800985813,0.0011518188985064
7.60439697265625,-0.0021862397315911,0.004276015085075,0.0488005635261535,-0.003130440833047,-0.0009713424369692,0.0003192057192791
7.614376953125,-0.0002129668972454,-0.0014531853498425,0.0341372474014759,-0.0016489243134856,-0.0021793516352772,-0.0002251443947898
7.624357421875,-8.3550097607e-05,-0.003403515700018,0.0441629668533802,-0.000876479782164,0.0023144446313381,0.0002111025823978
7.634337158203125,0.0015433387181721,-0.0018263112448621,0.0414694899857044,0.0002814626786857,-0.0005844067782163,-0.0003556181036401
7.644317138671875,-0.0004226093262434,6.22150486335e-05,0.0353349327534437,-0.0003356274683028,-0.0011440990492701,-0.0006716807838529
7.654297119140625,-0.0004510317031294,-0.0042710649153217,0.0311439108043909,-0.0003031369415111,0.0003741690889,4.65737466583e-05
7.664277099609375,-2.44768541306e-05,-0.0002857946714386,0.0411713838219642,-0.000887369911652,0.0012593008577823,0.0019568840507417
7.674257080078125,-0.001534625688754,0.0056376131613273,0.0419201563626527,9.16081480681e-05,-0.0001665549352765,-0.00124317035079
7.6842373046875,0.001603617538046,0.0008634849615395,0.0411713838219642,0.0010476422030478,-0.0016502197831869,-0.0020246063359081
7.69421728515625,0.0016800072425045,-0.0085402392676565,0.0351858796715736,-0.0013239027466624,-0.0005876189097762,0.001626854063943
7.704197021484375,-0.0017429529435001,0.0070485485383309,0.0547884057641029,0.0025982791557908,-0.0006708111613988,-0.0003365340526215
7.71417724609375,0.0006433576711453,0.0025696221591439,0.052689972180128,0.0013838779414072,-0.0003251330927014,-0.001900874893181
7.7241572265625,-0.0045781946357339,-0.0032557503929361,0.0402706355899572,-0.0016101291403174,0.0008441368117928,0.001571092987433
7.73413720703125,-0.0024482516686432,-0.0037729335342999,0.0386257909923791,-0.0014868247089907,-0.0006227325648069,0.0010179544333368
7.744116943359375,-0.0086030845039524,-0.0051279740056023,0.0362280822008848,0.0013519737403839,0.0043412689119577,-0.0015751398168504
7.75409814453125,0.0022184432344511,-0.0007193089841865,0.0429623588919639,3.45079461112e-05,-0.0003067469224333,0.0014366290997713
7.764078125,-0.0004694989415816,-0.0025934870919212,0.0437128849983215,0.001071642152965,-0.0011126808822154,0.0006132310954853
7.774058349609375,-0.0102802239359356,0.0039811055254191,0.043413609790802,-0.0001371665275655,-9.93479043245e-05,0.0004094993055332
7.7840380859375,-0.0170655001618899,0.0028811723263468,0.0474561631798744,-3.98728880099e-05,-0.0003145858645439,-0.000818706699647
7.79401806640625,-0.0089142510786652,0.0069250956885982,0.0479068295568227,0.0013167413417249,-0.0018874490633606,0.0009778616949915
7.803998291015625,0.0045416985502466,0.0031153281420934,0.047162148669362,-0.0016702441498637,-0.0018728589639067,-0.0006338864332064
7.81397802734375,0.0003475895949639,0.0019123729599639,0.0323480258971452,-0.0014460058882832,0.0005008159205317,-0.0009840921266004
7.823958251953125,-0.0062651613419875,0.0063837188208941,0.0428238272041082,0.0006059509469196,-0.0004379516467452,0.0008794423774816
7.833938232421875,0.0017048676891252,0.0047425366182811,0.0441717346817255,0.0013886539964005,-0.0003673778846859,0.0007428221870213
7.84391796875,5.59131720103e-05,0.0018545692249666,0.0387847809463739,-0.0024278340861201,0.0021660681813955,-0.0001423875510226
7.85389794921875,-0.0083185136752203,-0.0027183099148329,0.0470177717626094,0.0004236126551404,0.0018163947388529,0.0022286248859018
7.863878173828125,-0.0082915160704404,-0.008300046436768,0.0425298126935958,0.000638929544948,-0.0013686539605259,0.0015518865548074
7.8738583984375,-0.0013263714992441,0.0036551067077554,0.0489659832209348,-0.0020165084861218,0.0018750764429569,0.0009894268587231
7.883838134765625,-0.0039480435060337,0.0031079668195452,0.0440273577749729,-0.0006886875489726,0.002000262029469,0.0002158298157155
7.893818115234375,-0.0014588935714215,-0.0027604776892811,0.0419312622785568,0.0020495746284723,-0.0005209520459175,0.0012557941954582
7.903798095703125,-0.0022392485604621,-0.004519998175092,0.0332516967386007,-0.0014766082167625,0.0012214668095111,0.0006289689918048
7.913778076171875,-0.0071552420495077,-0.0048691952052526,0.0413315428197383,0.0003809466725215,0.0001900242641568,3.45514490618e-05
7.923758056640625,-0.0031503720560111,-0.0058538497278932,0.0440232661217451,-0.0001511840964667,0.0003019832074642,-0.0010589915327727
7.93373828125,-0.0022911066118627,0.0020362002690322,0.0450736519575119,-0.0026734638959169,0.000757117755711,0.0009378466638736
7.94371826171875,-0.0036718751794658,0.0028684315757825,0.0480681575983762,-0.0006284487899392,-0.0004985788837075,0.0005117593682371
7.9536982421875,-0.0013263714992441,-0.0047692328289616,0.0426829574286937,0.0006120515754446,0.0007307361811399,-0.0003321963886264
7.96367822265625,-0.0087807060931809,-0.0034053057983051,0.0393932682335376,-0.0009596552117727,-0.0002458170056343,-2.29385295824e-05
7.973658203125,0.001377297968883,0.0010697663896717,0.0435825366169214,0.0001263818703591,0.00151186902076,-0.0016991321463137
7.983637939453125,-0.0069423482174985,0.0011848806693218,0.0414893637299537,-0.0003876515547744,-0.0003605587407946,0.0015066293999552
7.993617919921875,-0.0062365015030838,-0.0017639409326016,0.0372983417809009,0.000754045555368,0.0016418723389506,0.0002754499728325
8.00359912109375,-0.0026858963494189,-0.0016882362147327,0.0414864411205053,0.001121716806665,0.002045220695436,-0.0002415996132185
8.013579345703125,-0.0036758572348393,-0.0034502500517293,0.0470206943720579,0.0009536714060232,-0.0011718776077032,-0.0012075281701982
8.02355908203125,-0.0010412161486223,0.0042989301697816,0.0467237572520971,-0.0014599914429709,-0.000353748910129,0.0013387451181188
8.0335390625,0.0022757811785675,0.0019237711368128,0.0483703554153442,0.0002183326287195,-0.0005247239023447,0.0009078456205315
8.04351904296875,-0.0034926461550407,-0.0075582698924466,0.0411859968692064,-0.0014126658206805,0.0011251857504248,-0.0002378253557253
8.0534990234375,-0.0077082728223875,0.0012016582741867,0.0384931045234203,0.0004566069692373,0.0010847048833966,-0.0009289156878367
8.063479248046875,-0.0015991605586372,-0.0031583544330671,0.044030864906311,-0.0004158823867328,0.0018858732655644,-1.5895384422e-05
8.073459228515626,-0.0074496036198921,-0.0020891816984396,0.0521107109874486,0.0010408665984869,5.52162528038e-05,0.0015476464759558
8.083439208984375,-0.0120968814364634,0.0038706582877319,0.0473223076671361,8.41141445562e-05,-0.000390687957406,0.0005940241971984
8.0934189453125,0.0034774668522179,0.0038878103519324,0.0347562560826539,-0.0005124339368194,-0.002990199252963,0.0011937681119889
8.103399169921875,0.0010670081770047,-0.0049698882339056,0.042387773874402,-0.0010617915540933,-0.0008028903976082,-0.0001296568370889
8.11337939453125,0.0006085238197818,-0.0030848416722845,0.0465776267796754,-0.0013155909255146,-0.0007773237302899,-0.0011493812780827
8.123359130859376,0.0015883103710599,0.0014087342867627,0.0503191513955593,0.0011805729009211,0.0006896974518895,-0.0004692350921686
8.133339111328125,0.0012341814374551,-0.0047692054294981,0.0422363827049732,0.0002551244106143,-0.0017862441018223,0.0004548818105831
8.143319091796876,0.0024671938311308,0.003763252390502,0.0447808064907789,-0.0006878852145746,-8.89776274561e-05,0.001527801156044
8.15329931640625,-0.005051639100071,-0.0042118090087547,0.0349029710769653,0.0010516914771869,0.0010612420737743,-0.000771838473156
8.163279052734374,0.012306067207735,-0.0070095773679669,0.0341571211457252,0.0027012322098016,-0.0013010306283831,-0.0008327864925377
8.173259033203125,0.0030031638713553,0.0019995763193815,0.048521746584773,0.0016500827623531,0.000854798592627,-0.0011880521196871
8.1832392578125,-0.00389200246986,0.0109375462003517,0.0449286905288696,-0.0003344198339618,-0.0028062043711543,0.0027978708967566
8.19321923828125,-0.0035259639027528,-0.0022833160310517,0.0280184722602367,0.0001649227924644,0.0018322234973311,0.0006364495493471
8.20319921875,-0.0044532348155044,-0.0023946948505006,0.0347480727761983,0.0007975397165864,0.0017840946093201,-0.0005592173547483
8.21317919921875,-0.0109191976929083,0.0045628966019023,0.0446229855805635,-0.0008925022557377,0.0009675696492195,-0.0023206321056932
8.22315966796875,0.0007391644621267,0.0083555668831337,0.0410305140465497,0.0013382837641984,0.001012765802443,-0.0018336110515519
8.233139404296875,-0.0005268551520071,0.0079003887278493,0.0420768082290887,-0.00033364869887,0.0004543010145425,0.0001560365490149
8.24311962890625,-0.0077581946450285,-0.0001673924561589,0.0383346990913152,0.0005749039119109,-0.0012317821383476,0.0020255155395716
8.253099609375,-0.0080302895846776,-0.005599728836352,0.0299544087588787,-0.0005753153236582,-0.0001428155228495,0.0011562597937881
8.263080810546874,-0.0085373623239807,-0.0016779979485087,0.0345931744754314,-0.0023756278678774,0.0005815485492348,-0.0014968976611271
8.273060546875,-0.0042623153532855,-0.0036749256530776,0.042973464807868,-9.09019727259e-05,-0.0005074180662631,-0.0015211324207484
8.28304052734375,-0.0035806349657475,0.0029964144701603,0.0372884049087762,0.0024552303366363,-0.0010068472474813,-0.0039666825905442
8.2930205078125,-0.0043325310452841,0.0031036011716816,0.039981881776452,0.0011787773109972,-0.0004771444946527,-0.0012244258541613
8.30300048828125,-0.0055519350387156,0.005889642560482,0.0316010069221258,0.0008394981268793,0.0007482869550585,0.0011924499412998
8.312980712890624,-0.004727960103657,0.0058709469931665,0.0462672456562519,-0.0017592145595699,-0.0017518885433673,3.90349086956e-05
8.322960693359375,-0.0057700347688049,0.0030682467305101,0.0301075534939765,0.0020457194186747,-0.0009004920721054,0.001794742187485
8.3329404296875,0.003281359758228,-0.0014461162882391,0.0378857862800359,0.0004278488922864,0.0040300842374563,0.001228820416145
8.34292041015625,0.0039705475987866,0.0080792432929389,0.0420733010977506,0.0012032740050926,-0.000227827578783,7.68278259783e-05
8.352900634765625,-0.0003714088619686,0.0038432588241528,0.0375847575068473,-0.0019136897753924,-0.0001806896179914,-0.0026198890991508
8.362880615234374,-0.0032100846203044,0.0044226387478411,0.0374351199030876,0.0004765649791806,-2.12313607335e-05,-0.0004064958193339
8.3728603515625,4.3327685073e-05,0.0002146930634509,0.0503051228702068,-0.0022885950747877,-0.0006332257762551,0.0009317426593042
8.382840576171875,0.0053502019215375,0.004226440322306,0.0426753586441278,-0.0010050386190414,-0.0006939163431525,0.0007420289912261
8.39282080078125,0.0001543137788772,-0.0005368559562135,0.0339969621479511,0.0006860686698928,9.14502888917e-05,-0.0021328534930944
8.402800537109375,0.0079502283520996,-0.0062215687954332,0.0467114822924137,0.0014998414553701,-3.95392999053e-05,0.0009902413003146
8.412780517578126,-0.0030226357568055,0.001344710873533,0.040724224576354,0.0022346074692904,-0.0008251713588833,-0.000383949780371
8.422760498046875,0.0057973794334568,0.000697316348087,0.0381809698343276,0.0001226459862664,0.0001053102314472,-0.0013508944539353
8.43274072265625,-0.0028218890203163,0.0060714288681745,0.0395288773119449,-0.0007732413941994,-0.0008337209001183,-0.0003482143511064
8.442720703125,-0.0012043160221539,1.57272920943e-05,0.0363853185892105,0.001590852974914,0.0009776568040251,-0.0004372244584374
8.45270068359375,-0.0043790736007504,-0.0028291316118557,0.0441641358971595,0.0026478613726794,-9.58638265728e-05,-0.0004856940067838
8.4626806640625,-0.0019833193043246,0.0046220885763876,0.0522445665001869,-0.0013711319770663,0.0006496245041489,0.0009676495683379
8.472660400390625,0.0078508048319257,0.003145842011366,0.0423708227396011,-0.0008177271229214,-0.0009021991863846,0.0023359816987067
8.482640625,-0.0057381417931988,-0.0027633637661114,0.0395259547024965,-0.0008283999050036,0.0032066665589809,-0.0001981332898139
8.49262060546875,-0.0020585764976218,-0.0029930900019127,0.0395253701806068,-0.0015288111753761,6.78645446896e-05,-0.0022615503985434
8.502600341796875,-0.0112169385304674,0.0027331147583201,0.0537415270596742,-0.0024042958393692,0.0008255261927843,-0.0014010107843205
8.51258056640625,0.0018058255792595,-0.0045283915441017,0.0486544330537319,-0.0023672780953347,-0.0003113774582743,-0.0018636018503457
8.5225615234375,-0.002332790329121,-0.0030249555780552,0.0483563268899917,-1.5709083527e-06,-0.0004979912191629,0.0002890399191528
8.53254150390625,-0.0140386814203113,-0.0052054870880674,0.0456634345442056,-4.20509604737e-05,-0.0012918794527649,0.0006419087294489
8.542521484375,-0.0069154784768819,0.0017795768931508,0.0423719917833805,0.0007633207133039,-0.0002249693498015,-0.0003911016392521
8.55250146484375,-0.0060409789309836,-0.005246065693628,0.0464098689973354,0.0007377543952316,0.0006410898640751,0.0006438027485273
8.562481689453126,0.0057730487097986,0.0058009870294947,0.0387754285961389,0.0019685730803757,0.0006814682856202,-0.0010065003298223
8.572461669921875,-0.0032153818499296,0.0012033661740832,0.0453588986396789,0.0004521691007539,-0.0004011066630482,0.0003133622813038
8.58244140625,-0.0007710026388056,0.0046441177451051,0.042965866023302,4.1167950257e-06,-0.0004794970154762,0.0010946873808279
8.592421630859375,-0.0058540780567564,0.0038851069381926,0.0440133292496204,0.0021064160391688,-0.0006294324994087,-0.0010816478170454
8.602401611328125,-0.0061879496536217,0.0020289302780292,0.0398199692130088,0.0027895437087863,0.000889060087502,0.0017589798662811
8.61238134765625,0.0032177930027246,-0.0002592628575395,0.049694882017374,0.0027242961805313,-0.0006973855197429,-0.0018208413384854
8.622361572265625,-0.0073808126999996,0.0009025565966032,0.0404167660623788,0.0002001618267968,-0.0017649866640567,-0.000448456936283
8.632341796875,-0.0010008658719249,-0.0002504858960397,0.0523889434069395,0.0014625000767409,-0.0019878931343555,0.0005736643215641
8.64232275390625,0.0016436938201077,0.0015607191112358,0.0481979214578866,0.0015920953592285,-0.0005155270919203,-0.0018341990653425
8.652302490234375,0.0061985075802542,0.0016778609511908,0.0516395863443613,-0.0012324532726779,-0.0008196597918868,0.000421498378273
8.662282470703126,0.0033835414910688,0.0008155176339671,0.0318897607356309,-0.0010379942832514,-0.0013823648914694,0.0035790773108601
8.672263671875,-0.0054465932344086,0.0009407240493688,0.0338350495845079,0.000952718546614,0.0003079427406191,0.001679178327322
8.68224365234375,0.00160913396338,-0.0050706086620222,0.0386228683829307,-0.0024475730024278,0.0006616292521357,-0.0014516654191538
8.692223388671875,0.0005799005134962,0.0071170563304331,0.0437117159545421,-0.0007663194555789,0.0020715072751045,-0.0030543557368218
8.70220361328125,-0.0006305895211175,0.0004993095579557,0.0482008440673351,-0.0030403707642108,-0.0008384101092815,-0.0012652676086872
8.71218359375,-0.002432250381913,0.005128576793801,0.0511900890111923,0.0010326677002012,0.0030553983524441,-0.0011741875205188
8.72216357421875,-0.007011504463572,-0.0033703532159328,0.0516366637349128,-0.0002450947649776,0.0017668539658188,-0.0003070869133807
8.7321435546875,-0.0031638160594739,0.0010899232617113,0.0443038366287946,-0.0012078274739906,0.0006738929077982,0.0006894679972901
8.74212353515625,-0.0066660702930763,0.0069333063945174,0.0462526326090097,-0.0004272427177056,-0.0014484114944934,0.001539725693874
8.752103759765625,-0.0067294543854892,-0.004181742664054,0.0374234294652938,-0.0013114121975377,0.0007058195769786,-0.0013149166479706
8.76208349609375,0.0012135953071527,-0.000802174095204,0.0419131420999765,-0.000516980071552,-7.40028917789e-05,-0.0011238561710342
8.7720634765625,-0.000622113953717,-0.0034155623308382,0.0380243179678916,-0.001383306342177,0.000645050778985,0.0014045488787814
8.78204345703125,0.0046248650553636,-0.0074555675697978,0.0475982019990682,0.0010335127590224,-0.0007857382297515,0.0005456376820802
8.79202392578125,0.0010323569887317,-0.0034121099984273,0.0419119730561971,-0.0003625163808465,-0.0014222338795661,3.13812925014e-05
8.802003662109374,-0.0016592201828025,0.0075534201873932,0.0399660996854305,-0.0008158162236213,0.0006783921271562,-8.26662071631e-05
8.811983642578125,-0.0032826749324798,0.0021176406079437,0.0393669647485017,0.0021000788547098,-0.0018758457154035,0.0007367884973064
8.821963623046875,-0.0052442573290318,-0.0005145893254783,0.0420627797037363,0.0005034055793657,-0.0001594461500644,0.0002921926497947
8.831943359375,0.0046131198186427,0.0063738367476966,0.041761166408658,0.0002730422420427,0.0010355142876505,0.0010200345423072
8.841923583984375,-0.0018058255792595,0.0062203723521903,0.0481961678922176,-0.0002222481416538,-0.0012431042268872,-0.0002854588965419
8.851903564453124,-0.0090176201215945,0.0071041511830873,0.0477466705590486,0.0002235650317743,0.0011177882552146,0.0002282648929394
8.861883544921875,-0.007942063311953,0.0060068209330551,0.0507423452436923,-0.0022910935804247,-0.0007413374260067,-0.0012981671607121
8.871863525390625,-0.0060808725499548,0.0001479114375542,0.0437076243013143,0.0013300065184012,0.0020320788025856,0.0014494161587208
8.88184375,-0.0055287002936005,0.0080144800941925,0.0452034158170223,0.0002346144756302,-0.000419195741415,-0.0005628819344565
8.89182373046875,0.0043798407857306,0.0048628567960113,0.0426624991625547,-3.67616303265e-05,0.0001816134899854,0.0023471540771424
8.901803466796874,0.0027933570455759,0.0042862076855264,0.0426601610749959,0.0020120558328926,0.0015950445085763,0.0024211672134697
8.911783447265625,-0.0080647581098601,0.0009234167215414,0.0384673855602741,0.0002714139409363,0.0017630904912948,-0.0001274780370295
8.921763671875,0.0042889293655753,-0.001394979756046,0.0432552043586969,-7.45137222111e-05,0.00182924605906,-0.0003440397267695
8.93174365234375,-0.0086292235922068,0.0056061585771385,0.0475906032145023,0.0024395105428993,0.0016111331060528,1.92154438991e-05
8.9417236328125,-0.0011879494092427,0.0103217980553396,0.0475941103458404,-0.0031438602600246,0.0003513796254992,0.0003354637592565
8.95170361328125,-0.0001367050569504,0.0058702985391952,0.0446007737487554,0.0019078899640589,0.000763370655477,-0.0003265980922151
8.961683349609375,-0.0017057262056507,0.0071812258741352,0.0444534742325544,-0.002671590540558,-0.0020218351855874,0.0005177372950129
8.97166357421875,0.0002929550645872,-0.0051978883035015,0.0437058707356452,-0.0016063260845839,-1.83396041393e-05,0.0002037506201304
8.98164453125,0.0054982138237915,0.009525186051242,0.0523848517537117,-0.002217115368694,0.0019895043224096,-0.0020114942453801
8.991624755859375,-0.0059068494236096,0.0046165904173627,0.0492418775528669,-0.0009443905437365,-0.0009431689977645,5.08575394633e-05
9.0016044921875,0.0060420749095268,-0.0047849509879015,0.0555254878669977,-0.0010911984136328,0.0023696580901741,-0.0014057121006771
9.01158447265625,-0.0017178185022436,0.002584737529885,0.0573199700683355,0.0015831480268388,0.0003136973828077,-0.0022648479789495
9.021564453125,0.0009765168819576,-0.0034258462628349,0.0383159943908453,-0.0001855674781836,0.000564182177186,-0.0010727193439379
9.031544677734376,-0.0052714375969022,-0.0018500209140125,0.0431061512768268,0.001098076114431,-0.000525583513081,-0.0012857723049819
9.041524658203125,0.0057125324279069,-0.0002297171026468,0.0477431634277105,0.0004169496241956,0.0002043340355157,0.0014256692957133
9.051504638671876,-0.0025418847688473,-0.0020989907064009,0.0395148487865924,0.0013024505460634,-0.0019485652446746,0.0013479049084708
9.061484619140623,-0.0061663954089395,0.000197568398714,0.0330792627811431,0.0007975557819008,0.0002553816884756,-0.0009065214544534
9.07146435546875,-0.0040792321376502,0.0070464661790989,0.039961423510313,0.0012324501294642,-0.0005161361768841,-0.0003853408270515
9.081444580078124,0.0084285864535719,0.0087167648783419,0.0478933855533599,0.0026146611198782,0.0004730857908725,-0.0005359820788726
9.091424560546876,-0.0044173415182158,-0.0043639034310821,0.0525321512699127,-0.000271140190307,-0.0027847588062286,-0.0004579514788929
9.101404296875,-0.0024141119370236,0.0050900166153907,0.0389157138496637,0.0011598118580877,-0.0006663193926215,0.0022350829094648
9.111384521484377,-0.0001472264509648,0.0108907205170951,0.0399660996854305,0.000217585475184,-0.0008759098127484,-0.0003875981201417
9.12136474609375,0.0039523726212792,0.0055194940738379,0.0481938298046588,0.0004805704811587,0.0009850095957517,0.0014826725237071
9.1313447265625,-0.0015177841518074,0.0016615400040522,0.0440004697680473,-0.0005356917390599,-5.57536259293e-05,0.0020049184095114
