seconds_elapsed,ax,ay,az,gx,gy,gz
0.1102734375,0.0029734993854537,-0.0018791465437971,0.0467845475286245,-0.0020993715152144,0.0021231640130281,8.93151664058e-05
0.12025244140625,-0.0005719546690583,-1.85220373794e-05,0.0476829576730728,0.0014908360317349,-0.0019030030816793,-0.0003666180127765
0.130232177734375,-0.004450695798546,0.0035962526599876,0.0488783049374818,0.0011001501698046,-0.0023528104647994,-0.0013447970850393
0.140212646484375,-0.0003868438931182,0.016749301219033,0.0484299766480922,0.0006459739524871,-0.0012570461258292,4.32607812399e-05
0.150192626953125,-0.0016611564115621,0.008764796137996,0.0500748212456703,0.0008188131032511,0.000750976614654,0.0013918855693191
0.16017236328125,0.0024037366734817,0.0029478717538528,0.0496247393906116,0.0001338847214356,0.0005642911419272,-2.24651739699e-05
0.170151611328125,-0.0046969256445765,0.0050859340953174,0.0563596006035804,0.0002875491045415,0.0016394089907407,-0.0008131577051244
0.180131591796875,-0.0061273055075667,0.0081247081361711,0.0605506225526332,0.0001098122447729,0.0032182615250349,0.0002558890264481
0.190111328125,-0.009069441640377,0.0015075184861198,0.0554641130685806,-0.0003264135448262,0.0017830841243267,0.0011339331977069
0.20009130859375,-0.0047620998352766,0.0054606674255337,0.0627981092184782,0.0026623480953276,-0.0006469162181019,-0.001131466589868
0.2100712890625,-0.0035772922311909,-0.000995906569017,0.0529272880673408,-0.0010261299321427,-0.0018770303577184,-0.0015016460092738
0.22005029296875,0.0047406734547577,0.0024014990506228,0.0521861143112182,0.0005574806127697,-0.0009848717600107,-0.000318943435559
0.230030517578125,-0.0055873168793506,-0.0019117427723016,0.0441068527519702,0.002787877805531,-0.0019366852939128,0.0014850818552076
0.240010498046875,-0.0047987420512363,-0.0031362521991133,0.047699324285984,-0.0011768986005336,0.0010781437158584,-0.0013178258668631
0.249990478515625,0.0039232561246491,-0.0010836213850881,0.0490489853292703,-0.001023500575684,-0.0008595725521445,-0.0014794797170907
0.259970458984375,-0.0061155420045368,0.0007129340423271,0.0453092142790555,-0.000540514185559,0.0007143579423427,0.0005826366832479
0.269949462890625,0.0028019422108307,0.0094552534870337,0.0503968928068876,-0.0005216057179495,0.0004435144364833,-0.0002045937580987
0.279929443359375,-0.0020298435934819,0.0050919802436139,0.0349357043027877,-0.0010330642107874,-0.0020522708073258,-0.0014010857557877
0.289909423828125,-0.0120117787025868,-0.0055921391849406,0.0522580105036497,0.0006210251012817,-0.001974506303668,0.0024304040707647
0.299889404296875,-0.0121055396669544,-0.0008239566687494,0.0601303513139486,-0.000842353736516,-0.0003877915441989,-0.0008196323178708
0.309869384765625,0.005909753766749,0.0031192462653852,0.0498223077893257,-0.0019920403137803,0.0019613830372691,0.0008578929118812
0.3198486328125,-0.0001342208389192,-0.0091597594054881,0.046535541203618,-0.0005718039465136,0.0005231434479355,0.0001286186743527
0.32982861328125,-0.0039979470623657,0.0001397737968713,0.0484568646550178,0.0007115734042599,-0.0009791459888219,0.0019853746052831
0.339808349609375,-0.0020948533874005,0.0040702177141327,0.0511637855261564,-4.00471035391e-05,0.0005854610353708,0.0001499097270425
0.349788330078125,-0.004405632814113,-0.0004238331689499,0.0445797309607267,-0.0013090432621538,-6.0265883803e-06,0.0025861696340143
0.3597685546875,-0.0018970109940506,0.0003542476646136,0.0454939231961965,0.0016702349530532,-0.0002939142286777,-0.0009502421598881
0.36974853515625,-0.0020328575344756,0.0042375736376736,0.0523942041039466,0.001778625533916,0.0006893249228596,0.0002244782372144
0.379727294921875,-0.0044742958698421,-0.0049470462144352,0.0474701917052268,-0.0026616360992193,0.0012463238090276,0.000974258291535
0.38970751953125,0.0007276749537326,-0.0045994840189348,0.0541898553490638,0.0010566693963482,0.0003448445349931,0.0016059601912274
0.3996875,0.0015798713362775,5.25521711446e-05,0.0496884522765874,0.0019668345339596,-0.000475276261568,-0.0008032501209527
0.40966748046875,0.0022615882564336,-0.0022011176403146,0.0389162983715534,-0.0019759754650294,0.0003239382058382,0.0001650752237765
0.4196474609375,-0.0030074381876736,-0.0005956460718996,0.0387660762459039,-0.0002292081480845,0.0009298073127865,0.0008689487003721
0.42962646484375,-0.000795059367828,0.0025782712564803,0.0495458289355039,0.0001827828818932,-0.0028031459078192,0.000661488447804
0.4396064453125,0.0040837987149134,0.000191321321018,0.0464016856908798,-0.0009572820854373,0.0014323443174362,0.00082336331252
0.44958642578125,0.0027775201556272,-0.0039630401457659,0.0401209979861974,-0.0007492892327718,0.0018691029399633,0.0006459968280978
0.459566162109375,0.0065362151020206,0.0015766655990388,0.0392231723636388,3.4921104088e-06,0.0018235621973872,-0.0009945025667548
0.46954638671875,0.0036062625973485,0.0035626791839487,0.0459516038358211,0.0023907497525215,-0.0016047246754169,-0.0002988849009852
0.479525390625,-0.0015563260639086,0.0094989647645968,0.0540279427856206,-0.0009932348039001,0.0017580492421984,-0.000364140199963
0.48950537109375,-0.0021475334227085,-0.0011443751289974,0.0456388846248388,-0.0015892502851784,0.0024190451949834,-0.0003265896230004
0.499485595703125,0.000165693689417,0.0077459288184996,0.0480336708068847,0.0020958757959306,-0.0002835309132933,0.0003564795479178
0.509465576171875,0.0012979491223581,0.0064362435925751,0.0480365934163331,-0.0007790063973516,-0.0008830083534121,-0.0014970805495977
0.519445556640625,0.0084166037548333,-0.000857612343179,0.0481827238887548,-0.0007690399652346,-6.18193298578e-05,-0.0011724865762516
0.52942529296875,-0.0006279043736867,0.0079048913730308,0.0499713608711957,-0.0019749193452298,0.0001616198569536,-0.0012672950979322
0.539404541015625,-0.0010511164881289,-0.0012184450122062,0.048021980369091,-0.0008131190552376,0.0011416599154472,-0.0010646808659657
0.54938427734375,0.0093556747032329,0.0006154924166854,0.0569996520727872,-0.0015364335849881,-0.0004594326019287,0.001457598991692
0.5593642578125,-0.0050725357576273,-0.0061165283852256,0.048325931751728,-0.0013124701799824,0.0009111640974879,-0.0008570759091526
0.569344482421875,-0.0076805262989364,0.0014929602378048,0.0471259083122014,0.0015552215045318,-0.00187583360821,-0.0017873181495815
0.579324951171875,0.0051627530580386,0.0047827133650425,0.0549111553609371,-0.0010100381914526,-0.0007521118968725,-0.0005368118872866
0.5893037109375,0.0053467495891265,0.0077024732692632,0.0405476989656686,-2.67991563305e-05,-0.0001393184065818,0.0012232712469995
0.59928369140625,0.0046919937411323,0.0040350824686698,0.0429366399288177,-0.0014256807044148,5.66896051168e-05,-0.0023091309703886
0.609263916015625,0.0071561553649604,0.0040409094212576,0.0457844305753707,-0.0013820049352943,-0.0009880680590867,0.0011151616927236
0.61924365234375,0.003026270752307,0.0059044474039692,0.0532633881539106,-7.35510257072e-05,0.0013697603717446,-1.39422045322e-05
0.629223876953125,-0.0056573316419497,0.0034023375230841,0.0405424382686614,-0.0010115163167938,0.000693317502737,-0.0011606994085013
0.63920263671875,-0.0025160379415377,8.19243961013e-05,0.0369528893440961,0.0015126331709325,-5.84898516535e-05,-0.0015555435093119
0.649182861328125,-0.0051157903774641,-0.0030936186337843,0.0502776503413915,-0.0010298867709934,-0.0002417154610157,-0.0004695064562838
0.659162841796875,0.0057440600773319,0.0075009502146393,0.0432452674865722,-0.0005595172406174,0.0009322045370936,0.0023057092912495
0.669142822265625,-0.0037650150893256,0.0051283210654743,0.054763855844736,0.0001539436634629,-0.0009445250034332,-0.000641611055471
0.67912255859375,-0.00345428690603,0.0005863393874373,0.0417430462300777,0.001230590743944,0.0017030546441674,0.0003491914249025
0.689102783203125,0.0038125805580988,-0.0003964337053708,0.0436842434257268,0.0005424299743026,-0.0008003171533346,-0.0013480412308126
0.69908154296875,-0.000822075238917,0.0014300876020453,0.0424888961613178,0.001699149608612,-0.0005242768675088,0.0007592691108584
0.7090615234375,-0.007611753645353,0.0052243561853189,0.0441378324121236,0.0002964626764878,0.0010592387989163,-0.0023089586757123
0.719041748046875,-0.0062788245411589,0.0064483815549407,0.0483271007955074,-0.0005232227267697,-0.000889079645276,-0.0003608285915106
0.72902197265625,-0.0046054114362224,0.0004715630345046,0.0456342084497213,-0.0010012601269409,0.000528254546225,0.000744649558328
0.739001708984375,-0.0060613275992684,0.003889244257193,0.0463818119466304,0.0005664027994498,-0.001044338569045,0.0015102376928552
0.748980712890625,0.0013951806854456,-0.0047996005677618,0.0414431865006685,-0.0013369584921747,0.0002944329753518,0.0009432506049051
0.7589609375,-0.0053981327164918,0.0019047102433163,0.0498252303987741,-0.0012605206575244,0.0005110269412398,0.0012225242098793
0.768940673828125,-0.0086437087752856,0.0068902983698528,0.0484755693554878,-0.002582780085504,-0.0005829995498061,-0.0015721969539299
0.778920654296875,-0.0059254079936072,0.0040566458465065,0.0496715011417865,3.0315713956e-06,0.0014933599159121,0.0004536003107205
0.788900634765625,-0.0045165093100629,0.0022748039310332,0.0380026906579732,-0.0003335920046083,-0.0007056128233671,0.0001577231159899
0.798879638671875,-0.0020493702778592,0.0046193577631842,0.0501250901281833,0.0007376071298494,0.0020676432177424,-0.0002779108472168
0.80885986328125,-0.00341861280445,-0.0061465399309992,0.0453361022859811,0.0011879476951435,-0.0010783495381474,0.0006872187368571
0.81883984375,0.0022865035019814,-0.0021575433600693,0.0441436776310205,-0.0003035279223695,9.51811671257e-05,-0.0009615867747925
0.82881982421875,0.0006107888421043,0.0033915056018158,0.0415975002795457,0.000699152238667,-0.0005847234278917,-0.0012108586961403
0.8387998046875,-0.0018456826656125,0.0021131288296077,0.0360620779842138,0.0013119644718244,-0.0002287570387125,-8.15851817606e-05
0.84877978515625,-0.0065636510982178,-0.0041426253632176,0.0429465768009424,0.0008989082416519,0.0006247861310839,0.0003722174442373
0.858758544921875,0.0038243075285106,0.0012078962187282,0.043247605574131,-0.0024396944791078,-7.86269083619e-05,0.0006139188772067
0.86873876953125,-0.0009967376860789,0.0018847999664489,0.0339718277066946,0.0020530584733933,-0.0009651938453316,0.0023023630492389
0.87871875,-0.0034247137516736,-0.0011223550934344,0.0424988330334424,0.0016170912422239,-1.30822882056e-05,-0.0011035039788112
0.88869873046875,-0.0019783143356442,-0.0085043368372134,0.0447428125679492,-0.000223152921535,-0.0002279998734593,5.49711003259e-05
0.8986787109375,-0.0009537387945689,-0.0004138323647435,0.0454886624991893,0.0021702006924897,0.0017265630885958,0.0028251588810235
0.908657958984375,-0.0092227507722564,0.0036795104966498,0.0435404510408639,8.12172656878e-05,0.0017193723469972,0.0014075582148507
0.9186376953125,-0.0036565314798615,0.0022803842884488,0.0433890598714351,-0.0003193254233337,-0.0001740427687764,-0.0003268764121457
0.92861767578125,0.0014880831332877,0.003555326994555,0.0499731144368648,0.0005379461217671,3.5902485251e-06,0.0009985788492485
0.938597900390625,-0.0014936543575488,-0.0079532331599388,0.0408422979980707,-0.000867550028488,0.0006110668182373,0.0013161583337932
0.94857763671875,-0.0037121158583089,-0.0009617029053159,0.0471282463997602,0.0001604302087798,0.0011130729690194,-0.0018463453743606
0.958556640625,-0.0108197741727344,0.0046361901669763,0.0420411523938179,-0.0020315998699516,-0.0017724530771374,0.0005963711300864
0.968536865234375,-0.0082780355343595,-0.0007349997436627,0.0441343252807855,0.0019860446918755,-0.0008880170062184,-0.0011226993519812
0.978516845703125,-0.0063798920291475,0.000780674649449,0.0303653276473283,0.002249329118058,0.0003892732784152,-0.0017115983646363
0.988496826171875,-0.0016813954819925,0.0098233287476003,0.0429354708850383,0.0015161607880145,0.0001937970519065,0.0002202587493229
0.998476806640625,0.0040099297611042,-0.0007146419422235,0.0430856930106878,-0.0026008496060967,-0.0001029586419463,0.0010719770798459
1.008455810546875,-0.0034364589883945,0.004700752436323,0.041740708142519,0.0004569920129142,0.0012461990118026,-0.0019656242802739
1.018435791015625,0.0016520232570357,0.0032172724129166,0.0444295088350772,0.002915755379945,0.0009033856913447,0.0015197899192571
1.028415771484375,0.0049369449455291,0.0085616656481754,0.042035307174921,-4.30166255682e-05,-0.0008505722507834,-0.0026696287095546
1.0383955078125,-0.0008638685540296,0.0064195847187191,0.0459305610477924,-0.002152421278879,0.0003618588671088,-0.0013804679038003
1.048375732421875,-0.0112519185123033,0.001711891084956,0.0433925670027732,-0.002136708702892,-0.0010895635932683,0.0010978697100654
1.05835595703125,0.0075335190436802,0.0026040632848627,0.0384580332100391,-0.0011385889956727,0.0010428419336676,0.0022174778860062
1.068334716796875,-0.0072155391356907,-0.0028953835147898,0.0377110142350196,-0.0015111651737242,0.0001408290117979,0.0006315655773505
1.078314697265625,0.004680102373939,-0.0026492084676865,0.0368120195686817,-0.0009101590840145,-0.0004899743944406,0.001022879499942
1.088294921875,8.87742619961e-05,-0.0042211704921443,0.0357663099080324,0.0009567167726345,0.0001350697129964,-0.0018381543923169
1.098274658203125,-0.0026471535079181,0.0048444626227952,0.0386041636824607,0.0019238679669797,0.0029916279017925,-0.0008300519548356
1.108254638671875,-0.0039435134613886,-0.001094846032001,0.0436906731665134,-0.0004205128061585,-3.26577574014e-05,0.0013249779585748
1.11823388671875,-0.0009237455151043,0.0016158194324932,0.0378571447074413,0.0004728813073597,0.0006975438445806,0.0005587872001342
1.128213623046875,0.0005029810860753,0.0008973506985232,0.0451905563354492,0.0007535784388892,0.0020187385380268,-0.0004308434436097
1.138193603515625,0.0075906560583971,3.47973187454e-05,0.0433890598714351,0.0012525902129709,-0.0001284535974264,-0.002069519367069
1.148173828125,-0.0048397864476777,0.0020917481148615,0.047729134902358,0.000372149341274,0.0006864732131361,0.0013851333642378
1.15815380859375,-0.0040053997164592,-0.0058737234721425,0.0559580340653657,-0.0015669509302824,0.0004786932840943,0.002691252157092
1.1681337890625,0.0099356848145835,0.0035668804350309,0.0463783048152923,-0.000533644342795,0.0004025269299745,0.0006805655430071
1.17811279296875,0.0059552003436721,-0.0001979519912041,0.0540115761727094,0.0004211513441987,-0.0005314024165272,0.001072519342415
1.188092529296875,-0.0030097032099962,0.000517448002845,0.0520651182800531,0.001058445777744,-0.0003774715587496,-0.0013815836282446
1.19807275390625,-0.0018080175363458,-0.0047734432131983,0.0411392351180315,-0.0016690654447302,0.0021667182445526,-0.0007682389114052
1.208052734375,-0.0060173605933785,0.0011797021707054,0.0378454542696475,0.0005272435373626,0.0013347472995519,-0.0002563793677836
1.21803271484375,0.0034954774329438,-0.0025274361183866,0.0457756627470254,-0.0006201262585818,-0.001096193678677,-0.0002700826735235
1.22801171875,0.0075904368626885,0.0051926093401852,0.0373965414583683,-0.0015397157985717,0.0007469793781638,0.0009347313898615
1.237991943359375,-0.0026206490934826,0.0095298348268959,0.0513122540861368,-0.0012682494707405,-0.0012472299858927,0.0015617859316989
1.2479716796875,-0.0037628596648573,0.0032773229039274,0.045175943288207,-0.0014008749276399,8.72798264026e-05,0.002725587459281
1.25795166015625,-0.0066856883089989,-0.0023742913832888,0.0481681108415126,-0.0008197166025638,-0.001139254309237,0.0008251651888713
1.267931884765625,0.0027844430867582,-0.0056776072449982,0.0456236870557069,0.0030312142334878,0.0002895314246416,-1.79915805347e-05
1.27791064453125,-0.0070648055533878,0.0009881707871332,0.0499631775647401,-0.0011132861254736,-0.0003474587574601,0.0005485590081661
1.287890625,-0.0047122328115627,0.0019458368381485,0.0453273344576358,0.0017938204109668,1.92588195204e-05,-0.0005867466097697
1.297870849609375,-0.0062937115830369,-0.0056176115529146,0.0360509720683097,-3.99526325054e-05,-0.0018854765221476,0.0006964477943256
1.307850830078125,-0.0025359299520961,0.0054393506428692,0.0402414094954729,0.0001438054605387,-0.0003733336925506,-0.000354435556801
1.317830810546875,0.0002047835907898,0.003276674449956,0.045929392004013,0.0008214167901314,0.0017635775730013,0.0002918651443906
1.327809814453125,-0.0027416451246477,0.0060773654186166,0.0426367801994085,0.0013311458751559,-0.0008031772449612,0.0008444710983894
1.337789794921875,0.0004756729540415,0.0005523183868266,0.0480254875004291,-0.0011998926056548,-0.0001474665477871,-0.0002235062420368
1.347769775390625,-0.0027332426224835,0.0027178897897247,0.0483224246203899,-0.0034164416138082,0.0010299170389771,0.0013155345804989
1.357749755859375,-0.0056303705697879,0.0004861578154377,0.0505675731986761,-0.0028944918885827,0.0019783815369009,-0.0005767580587416
1.3677294921875,-0.0047649128468707,0.001003158293711,0.0453302570670843,-0.000163952994626,-0.0020563080906867,0.0002626703353598
1.377709716796875,0.0013008899981155,-0.0062934284552466,0.0427864178031682,-0.0003148432588204,0.0018788520246744,-0.0005862065590918
1.387688720703125,-0.0066775050025433,0.0007917257664259,0.042936055406928,0.0009938339935615,0.0014769807457923,-0.0014485380379483
1.397668701171875,0.0004023154568858,0.0057910410242155,0.0469715945333242,0.0025180554948747,0.0025097038596868,-0.0012286533601582
1.407648681640625,-0.0052545229947194,0.0019607421463355,0.0474170002132654,0.0022751754149794,0.0010862443596124,0.0021442400757223
1.41762890625,0.0022629034306854,-0.0032032895533367,0.0379869085669517,0.0018032258376479,0.0006637359037995,0.001474869204685
1.42760888671875,0.0024126323659904,-0.0036849081909749,0.0432230556547641,0.0014394379686564,-0.0005448060110211,-3.62083956133e-05
1.437587646484375,-0.0017911577330902,-0.0009347874989267,0.0481616811007261,-0.0029706549830734,0.0003913985565304,0.0009048909414559
1.44756787109375,-0.0033182394362054,0.0079402458142023,0.0514542929053306,-0.0012957929866388,0.000489936210215,-0.0001862061326391
1.457547607421875,-0.0022574052716605,-0.0039074101015459,0.0444219100505113,-0.0007577104261144,-0.000292120501399,-0.0001877960166893
1.467527587890625,-0.0074095090715214,-0.0011541932701133,0.0411322208553552,-0.0008221589378081,-0.0008852062746882,-0.0006898018764331
1.4775078125,-0.0023936719371937,0.0030784758635796,0.0501104770809412,0.00083460053429,0.0017815232276916,0.0009064160985872
1.48748681640625,-0.0025582879143767,0.0029550321470014,0.0504074142009019,-0.0005268074455671,0.0006760442629456,0.0002337015903322
1.497466796875,-0.0010565781145356,0.0018083280635997,0.0483119032263755,-0.0004454151494428,-0.0002412144094705,0.0006098871817812
1.50744677734375,-0.0103502569648437,0.0069116151525173,0.0448661466866731,0.0021884511224925,-0.0001352205872535,-0.0001179547107312
1.517427001953125,-0.0032233459606766,-0.002968905408727,0.0420218631714582,-0.001079378533177,-7.17910006642e-05,0.000293459626846
1.52740673828125,0.0037123167877085,0.0080696260812226,0.0397790526807308,0.0011406325502321,0.0012683114036917,-0.0017305427463725
1.5373857421875,-0.0002206570133566,0.0045558914723806,0.0477080921143293,0.0002541990252211,0.0011938903480768,0.0005637156427837
1.547365478515625,-0.0067087038584053,0.006058267992502,0.036783377996087,-0.0003452785895206,0.0014026826247572,0.0007959433132782
1.557345703125,-0.0045528409987688,-0.0040237299575936,0.0492050526738166,-0.0009310249006375,0.0006844643503427,0.0023092115297913
1.567325927734375,-0.0038619178588502,-0.0018941614498384,0.0409767380326986,0.0020599712152034,-0.0003112917765974,0.0014495430514216
1.577305419921875,-0.0097428839225322,-9.96244495734e-05,0.0481570049256086,0.0026074750348925,0.0010766414925456,-0.0007460316410288
1.587285400390625,-0.008175287545938,0.0026478384945075,0.047708676636219,0.0014748325338587,-0.001505559310317,0.000999670359306
1.5972646484375,-0.0012247560219839,-0.00581235780688,0.0420236167371273,0.0036176226567476,-0.001180107705295,-0.0001919539645314
1.607244384765625,-0.0045142077551223,0.0039170364464167,0.0451642528504133,-0.0011646156199276,-0.0019060857594013,-0.0006020808359608
1.617224365234375,0.0056481984874233,0.0027301373499445,0.0396288305550813,0.0007770168595016,-0.0039513525553047,-0.0012157269520685
1.627204833984375,-0.0042056349962949,0.0063368383387103,0.0343950215548276,-0.0031985500827431,0.0004098396748304,0.0016668785829097
1.637184814453125,-0.0084175170702859,0.0056230549130123,0.0493617045402526,-0.0019503579242154,-0.0027694916352629,-0.0002179686271119
1.64716357421875,-0.0088416607664898,0.0010774291063193,0.0396358448177576,-0.0005838899523951,-0.0013809194788336,-0.0001093116734409
1.657143798828125,-0.0064858183553442,-0.0046572877539321,0.0478688356339931,-0.002165843732655,0.0011142324656248,0.000955969444476
1.66712353515625,0.0053390229403972,-0.0012414788279216,0.0414367567598819,-0.0015016513643786,0.0013706944882869,-0.0007428610697388
1.677103515625,-0.0073318955243565,-0.0014917637945618,0.0484668015271425,0.0003378472756594,-0.003443987108767,0.0014587902696803
1.68708349609375,-0.0051531632457859,-0.0047072826418094,0.0492208347648382,0.0005767327966168,-0.0018580751493573,-0.0024467355106025
1.6970625,0.0012266739844344,-0.0075771663891617,0.0493745640218257,0.0001195196527987,0.0014883484691381,-0.0011532589560374
1.70704248046875,-0.001126044887863,-0.0044319636986125,0.0495247861474752,0.0015621540369465,-0.0019276887178421,-0.0005327423568814
1.717022705078125,-0.0009670732001774,0.0005935454463586,0.0435386974751949,0.0034992340952157,0.0011889012530446,-0.0015727642457932
1.72700244140625,0.0013797456542961,-0.0007364884478505,0.0460813676953315,-0.0013698235852643,0.0020943759009242,0.0024211783893406
1.736982666015625,-0.0014852335890755,0.0071992273217067,0.0400923564136028,0.0002270647091791,0.0034656627103686,0.0010589701123535
1.746961669921875,-0.0041300490094348,0.0025693024987354,0.050565819633007,-0.0002549674245528,-0.0017197774723172,0.0002600218285806
1.75694140625,-0.0103658746590837,0.0025042653053533,0.0430892001420259,-0.0028435485437512,-0.002850386314094,0.0003419895656406
1.766921630859375,-0.0054567493022419,0.0007770579202566,0.0412970560282468,-7.91875063441e-05,0.000249532982707,0.001577163580805
1.776901611328125,-0.0113417156876064,-0.0035170956097077,0.0441366633683443,-0.0006942807231098,0.0013083647936582,-0.0006154379225336
1.786881591796875,-0.006282678732369,-0.0014852792548481,0.0394984821736812,-0.0018828494939953,-0.0012631835415959,-0.0005395378684625
1.796861572265625,-0.0082956259899772,-0.0039680542476009,0.0463841500341892,0.0026485095731914,-0.0007299464195966,0.0001517243799753
1.8068408203125,-0.007918481506966,0.0061569973929319,0.0555126283854246,0.0004226395394653,-0.0004010461270809,0.0002768929407466
1.816820556640625,-0.0032063400269486,0.0047133105237968,0.0459369907885789,-0.0004712097579613,0.00027322396636,-0.0021373201161623
1.826800537109375,0.0002819770128466,0.0076363309641834,0.0356102425634861,-0.0024334266781806,0.0005925362929701,0.0008845687843859
1.836780517578125,-0.0041170981963165,-0.0033376747890375,0.042945407757163,-0.0015881607541814,0.0009592324495315,0.0021891030482947
1.8467607421875,-0.0050404235863126,0.0028096049274783,0.0463859035998582,0.0005357101326808,0.0018117101863026,-0.0005552845541387
1.856739501953125,-8.04813576862e-05,0.0006714512544684,0.0433925670027732,0.0033351525198668,-0.0001845797523856,-0.0023666403722018
1.866719482421875,-0.0070584123452194,-0.0052256804927252,0.0432446829646825,0.0008216612040996,0.0006314124912023,0.0013018640456721
1.876699462890625,-0.0001164477202109,-0.0009518116989638,0.048482583618164,0.0006843250012025,-0.0016601411625742,0.000751196173951
1.8866796875,-0.0023503625184297,-0.0040546274193562,0.0375637147188186,-0.0018339600646868,-0.0004926109686493,0.0002127050393028
1.89665966796875,0.0047801469486206,0.0079287837052717,0.0478892939001321,-1.74965243786e-05,0.0021605715155601,0.0005161678418517
1.906638427734375,-0.0015337854385375,-0.002346827987628,0.026941782939434,-0.0038409968838095,-0.0015500104054808,0.0003688950673677
1.91661865234375,0.0044110031089745,-0.0046074937954545,0.0513368040055036,-0.0001613789354451,0.0004027299582958,0.0004721127043012
1.9265986328125,0.0005641366887837,0.0047816082533448,0.0419078814029693,-0.0029518390074372,0.0009092632681131,-0.0009164594812318
1.93657861328125,-0.0037266010413877,-0.0055507568617817,0.0356225175231695,-0.0004458191106095,0.0003677885979413,-0.0018193705473095
1.946558349609375,-0.0093294990823604,-0.0019040252567268,0.0462444493025541,0.0006074610864743,0.0001568663865327,0.0012824131408706
1.95653759765625,-0.0072545925044454,-0.0068492631065659,0.0550713143587112,0.000294400146231,0.0007091201841831,0.001527277752757
1.966517333984375,9.15872735902e-05,-0.0075897975418716,0.0442944842785596,0.0003319507231935,-0.0005276510491967,0.0011467121075838
1.97649755859375,-0.0016529913714155,0.0030394224948249,0.04489069660604,-0.0003013057284988,0.0016839671880006,0.0015711484011262
1.986477783203125,-0.0110524686837568,0.0014858181109651,0.0430944608390331,-0.0009700254304334,-3.1450763344e-06,-0.0001873367873486
1.996457763671875,0.0056910329821519,0.0054213400621432,0.0371083721667528,0.0023933984339237,-0.0001561986282467,-0.0005677660810761
2.0064365234375,-0.0036141719091683,-0.0018438743010163,0.0362093775004148,-0.0003179658087901,-0.0001519378274679,-5.40423061465e-05
2.01641650390625,-0.0025308701844885,0.0003210486479103,0.0495271242350339,0.002205034950748,-0.0008687283843755,-0.0002649493399076
2.026396728515625,0.0038825222554616,0.0036802502821665,0.049226679983735,-0.0011060732649639,0.0014492869377136,0.0020408153068274
2.03637646484375,0.0077769358781166,-0.0030752335937228,0.0507230560213327,0.0005968827754259,0.0022501330822706,0.0006969056557863
2.0463564453125,-0.0054079965233802,-0.0003297799436375,0.0486240379154682,-0.0012702593812718,0.0012855352833867,0.0020183660089969
2.056336669921875,-0.0092145309331826,-0.0026539485748857,0.0408475586950779,-0.0025856201536953,-0.0026749586686491,0.0013899337500333
2.066315673828125,-0.0067600321868434,0.0009789919668342,0.049831075617671,0.0002490483457222,-0.0015732096508145,-0.0012990599498152
2.076295654296875,-0.0045445663607679,0.0019754099925048,0.0416010074108839,-0.0004915732424706,0.0032362611964344,0.0015445335302501
2.086275634765625,0.0020548136379569,-0.0050313817633315,0.0477332265555858,-0.0017632327508181,0.0001800181344151,0.0004172174376435
2.096255615234375,-0.0049604536852799,-0.0033781803293619,0.0504267034232616,0.0008112393552437,-0.0011658677831292,-0.0007220237748697
2.106235595703125,-0.0055750601859763,0.01139737313129,0.0538671992659568,-0.0010063680820167,0.0023068943992257,0.0001416393497493
2.11621435546875,-0.0071073295208625,0.0053930090168025,0.0483311924487352,-0.0026609385386109,0.0006209500133991,-0.000358566903742
2.126194580078125,-0.003121584352944,0.0018170228267088,0.0511731378763914,-0.0005714222206734,-0.0006555030122399,0.0006382542778737
2.136174560546875,0.0039055560711771,0.0035191597026307,0.0492319406807422,-0.0012795331422239,-0.0016962895169854,0.0001161260879598
2.14615478515625,0.000436710916832,-0.000935920010088,0.0395060809582471,0.0016475471202284,8.96258279681e-05,0.0002881662803702
2.156134521484375,0.0040997452027164,0.0022316223764326,0.0466869323730468,-0.0013469776604324,-0.0002892576158046,0.0001532610476715
2.16611376953125,-0.000189951347839,-0.0005428655718918,0.0511731378763914,-0.0011371205328032,0.0001216689124703,-0.0011847109999507
2.17609375,0.0030170279999263,-0.0125207420048769,0.0490811340332031,-0.0003246289561502,-0.0021735047921538,-0.0004907511174678
2.186073486328125,-0.0037871903885155,0.0018835030585061,0.0344178179085254,0.0014250678941607,0.0006491793319582,-0.0002393486793152
2.196053466796875,0.0024884558148682,0.0047539165288209,0.0504255343794822,-0.000264112430159,0.0021911896765232,0.0016498252516612
2.20603369140625,-0.0033898616340011,-0.0012492054766509,0.045938744354248,-0.001172782969661,-0.0028805341571569,-0.0011185306357219
2.216012451171875,-0.0061984893139451,0.0024881635539233,0.0372656085550785,-0.0001536981435492,-0.0028022909536957,-0.0012587219243869
2.225992431640625,0.0035629531785845,0.0056576969681307,0.0439993007242679,-0.0022176480852067,0.0006467690691351,0.0009879206772893
2.23597265625,-0.0095429774362593,-0.0082646097972057,0.0441471847623586,-0.0013060178607702,0.0008542798459529,-0.0009287050925195
2.24595263671875,-0.0075246964164078,-0.0052904619577806,0.0363660293668508,-0.0008178604766726,0.0012638736516237,0.0020657533314079
2.2559326171875,0.0004245272886939,-0.0020258706712629,0.0405535441845655,-0.0022437591105699,0.0015948200598359,-0.0027134316042065
2.265911376953125,-0.0064624740123748,-0.0016817608081735,0.0405547132283449,-0.0019649262540042,-0.002032671123743,-0.0027706897817552
2.2758916015625,-0.0004966061442159,-0.0081537972333375,0.046837739020586,-9.87093080766e-05,0.0001923348754644,-0.001456624828279
2.28587158203125,-0.0018667071873322,-0.0045768794614821,0.0466875168949365,-0.0010609093587845,0.0004466669633984,-0.0021857982501387
2.2958515625,-0.0057462520344182,-0.0016164039543829,0.0414507852852344,0.0005493947537615,-0.0005251336842775,-0.0020422996021807
2.30583154296875,0.0026622962781228,0.000239663107926,0.0498275684863328,0.0024935023393481,0.0013265628367662,0.0016911859856918
2.315810546875,-0.01008210754795,-0.0037330673147924,0.0421948816508054,0.0014011466410011,-0.0003900714218616,-0.0004892790457233
2.325790771484375,-0.0092927472685463,0.0037192579851485,0.0460866283923387,-5.7733093854e-05,-4.1797757148e-06,-0.0008077931124716
2.3357705078125,0.0004586122213862,-0.0005656253929715,0.0451888027697801,0.0017589041963219,-0.0004061860963702,-0.0015610030386596
2.345750732421875,0.0016706366259604,-0.0084150419854093,0.0338157603621482,0.002178352093324,0.0002556089311838,-0.00086724961875
2.355730712890625,-0.0068577752065844,0.0058439219889231,0.0496720856636762,0.0016242335550487,0.00207762978971,-0.0004212897329125
2.36571044921875,-0.0069860777613706,0.0042308059701696,0.0433843836963176,-0.0003217383637093,0.000115412287414,-0.0013645814033225
2.375689453125,0.0003514620524831,0.0014886585220228,0.0324614231437444,-0.001521012163721,0.0012225890532135,0.0005480063264258
2.385669677734375,-0.0013167816869914,0.0051665798497851,0.0516150364249944,-0.0014219426084309,-0.0020373864099383,-0.0024123636540025
2.395649658203125,-0.0034243849581107,-0.0046630142418202,0.0546118801534175,-0.0015029318165034,0.001077203080058,0.0016039640177041
2.405629638671875,0.0041162762124091,0.0036980325340293,0.0513210219144821,-0.0005271496484056,-0.0013904822990298,-0.0017124703153967
2.415609619140625,-0.0105016116016544,0.0022737992840353,0.03964987334311,0.0002469723112881,-0.0014779530465602,0.0005835359334014
2.425588623046875,-0.0091417762242257,-0.0068594100412447,0.0399491485506296,-0.0003682178794406,-0.0002774000167846,0.000187257581274
2.435568603515625,-0.0003277706496417,-0.0005244896649848,0.0535673395365476,-0.0002761689247563,0.0001858370378613,-0.000617746845819
2.445548583984375,0.0005438062868081,-0.0095034856760874,0.0525210453540086,-0.0014503565616905,-0.000421630218625,0.0006464556790888
2.455528564453125,-0.004356752171088,0.0037842495127581,0.0463835655122995,-0.0009645647369325,0.0021377997472882,-0.0002428033330943
2.465508544921875,0.0059098450982943,0.0024278664677403,0.0408458051294088,0.0011904652928933,-0.0018145972862839,0.0006110061076469
2.4754873046875,-6.4114744774e-06,-0.0053568873906508,0.0351613297522068,-0.0003451434895396,9.66181978583e-05,2.02107839868e-05
2.485467529296875,-0.0040432657751254,0.0001718403024133,0.0513186838269233,-0.0004000045883003,0.0030987998470664,0.0009374034707434
2.49544775390625,-0.0043838411074131,0.0097435323765035,0.0429348863631486,0.0008394448668695,0.000299671664834,0.0003372083883732
2.505427734375,-0.0066170617858879,0.001914820645377,0.0584966126322746,-0.000148321618326,-0.0004960801452398,-0.0006867769989185
2.515407470703125,0.0036019152157939,-0.0041729383030906,0.0430874465763568,-0.0019191858591511,-0.0020139571279287,-0.003555778414011
2.52538671875,0.0046895825883373,-0.000561816867534,0.0429383934944868,-0.0014182452578097,-0.0003494815900921,0.0003082021139562
2.53536669921875,0.0052192872845567,-0.0015850224354304,0.0468336473673582,-0.0043959692120552,-0.0018684184178709,-0.0006346292211674
2.545346435546875,0.0014527743578888,0.0035401842243503,0.0450420877754688,0.0016336939297616,-0.002112896181643,0.0011211928213015
2.555326416015625,-0.0060517195207066,-0.0022056202854961,0.0468348164111375,0.0001287616905756,0.0033041154965758,-0.0005390489823184
2.565306884765625,-0.0058829936239868,-0.0049842912185937,0.0465332031160593,-0.0009554111165925,-0.0011907676234841,-0.0002796570770442
2.575286376953125,-0.0085421846295706,-0.0004153484683949,0.0459364062666892,0.0016908863326534,-0.0019205892458558,-0.0006981309270486
2.585266357421875,-0.0054173306073062,-0.0010028568996116,0.0402530999332666,-0.0004300551663618,-0.0007376130670309,0.0001186605586553
2.595246337890625,-0.0025179924366064,-0.0029663389923051,0.0413017322033643,0.0005381975206546,0.0002767704427242,-0.0020482891704887
2.605226318359375,-0.0068396367616951,-0.0020492332805413,0.0451893872916698,-0.0002210697275586,0.0012986250221729,0.0016292701475322
2.61520654296875,-0.00024122487735,0.0026894308802206,0.0487801052600145,0.0011679935269057,0.000714449211955,-0.0002553872473072
2.6251865234375,0.004238587417826,0.0060149129079654,0.0489291583418846,-0.0001926153781823,9.23350453376e-05,-0.0017057447694242
2.635165283203125,0.0050912952570244,0.0011973017594777,0.0417488914489746,0.0016688432078808,-0.0007240958511829,-0.0006319263484328
2.6451455078125,-0.0046186179776676,-0.0059486884044948,0.0475812508642673,0.0004126301500946,0.0017550410702824,0.0013060560449957
2.65512548828125,0.000863320564758,-0.0028843963298946,0.0368073433935642,-0.001406461931765,0.0006641279906034,-0.0008791859727352
2.665105224609375,-0.0076892758609727,-0.0034446148953866,0.0468354009330272,0.0024836175143718,-0.0005771713331341,-0.0013540276559069
2.67508544921875,-0.0026379290218465,-0.0005589947227854,0.0380056132674217,-0.0003930377424694,0.0010815048590302,-0.0010996494675055
2.685064453125,-0.0023879728487692,-0.000822595828725,0.0492284335494041,-0.0023549883626401,0.0005150511860847,-0.0002274641592521
2.69504443359375,-0.0062142348723486,-0.0001161097934935,0.0418961909651756,-0.0024478519335389,0.0004663737490773,0.0034821967128664
2.7050244140625,-0.0018864165348,0.0022427739581093,0.0483306079268455,0.0009830984054133,-0.0007102107629179,0.0013924140948802
2.71500439453125,-0.0036206016499549,-0.0004777553132735,0.0513216064363718,-0.0016940156929194,0.0021450947970151,-0.0008851863094605
2.724984619140625,-0.0001257635378278,-0.0024276107394136,0.049823476833105,-0.000452982581919,1.85603275895e-05,-6.57316413708e-05
2.73496337890625,-0.001203676701337,-0.0005232384228147,0.0433890598714351,-0.0021104286424815,0.0004382524639368,0.0010725202737376
2.744943359375,-0.0089664744562469,0.0018184019330423,0.0433867217838764,-0.0006155962473712,0.0024675810709595,0.0003737068618647
2.75492333984375,0.0018160912449471,0.0088342446450144,0.0411374815523624,0.0009797244565561,0.0021405722945928,0.001741376472637
2.764903564453125,-0.0029609686974436,0.0061554538898169,0.0441284800618886,0.0036972137168049,-0.0008802507072687,0.0017032932955771
2.774883544921875,-0.0034727724107913,0.0006946312006562,0.0481686953634023,0.0007269943598657,-0.0014123767614364,-0.0013626220170408
2.784862548828125,-0.0016454473857767,-0.0045923966910224,0.0456242715775966,0.0009373840875923,-0.0018014647066593,0.0021085422486066
2.794842529296875,-0.0039898916200734,0.0035370332860387,0.0560994883626699,-0.0004579182132147,0.0005336888134479,0.0023989556357264
2.804822509765625,0.0020651706351898,0.0033202304638922,0.0475678068608045,0.0004795144777745,0.0007283659651875,0.0025723273865878
2.81480224609375,0.0016168240794911,-0.003238379133027,0.0469686719238758,0.0010304549941793,-0.0012594060972332,0.0017368618864566
2.8247822265625,0.0003659289692528,0.0053904608666896,0.0507072739303112,-0.0006041933083906,0.0030924649909138,0.0002329747221665
2.834761474609375,-0.0045140798909589,-0.0032068058178294,0.0366372475236654,-0.0004980966914445,0.0008829729631543,-0.0001319891161983
2.8447412109375,-0.0041848844692111,-0.0037215869395527,0.0423246455103158,-0.001197975478135,-0.0008848328143358,0.0012203641235828
2.854721435546875,0.0043247861302457,0.0043795485247857,0.0349918184041976,-0.0002507892204448,-0.0002054665237665,-0.0013459542533382
2.86470166015625,-0.0002896123300306,-0.0030007161859422,0.0536959343522787,-0.0005061863921582,0.0001340871676802,0.0004532773746177
2.874681640625,-0.0005624561883509,-0.0009431808679364,0.0475619616419076,-2.45004775933e-05,-0.0009683221578598,0.0025915754958987
2.884660400390625,-0.0051180919324047,0.0089871153854765,0.0441179586678743,0.0008000142406672,0.0032112430781126,-0.0005940976552665
2.894640625,-0.0063927515107207,0.0019224924951791,0.0463631072461605,-0.0019972017034888,-0.0028153639286756,-0.0001640294794924
2.904620361328125,-0.0136537554896436,0.0056418966108001,0.0361906727999448,-0.0005939820548519,-0.0002299668267369,0.0001440982450731
2.914600341796875,-0.0118507246556691,-0.0008695585092995,0.0442722724467515,-0.0017272615805268,0.0006748419255018,-0.0006731892353855
2.924580322265625,-0.0107406079893,-0.0013096395601518,0.0450216295093297,0.0016863783821463,-0.0009685950353741,-0.00048969744239
2.934560546875,-0.0036028467975556,0.001744322916679,0.0430798477917909,-0.0003448348725214,-0.0016184290871024,-0.0010373489931225
2.94453955078125,0.0083141114947386,-0.0041765458991285,0.0478711737215518,-0.0016449901740998,-0.0006152158603072,-0.0001012479042401
2.95451953125,0.0026489801388233,-0.0085434541380498,0.0393394922196865,-0.000377471500542,0.0005433829501271,-0.0012241081567481
2.96449951171875,-0.0022591040384024,0.0022125980155542,0.0370955126851797,0.0001873850123956,-0.0015458669513463,0.0002387662098044
2.9744794921875,0.006438618212752,0.0003070201225578,0.0412888727217912,-0.0008942522690631,-0.0008221762254834,-0.0008053496712818
2.98445947265625,0.0016933416481129,-0.0028374610487837,0.0450339044690132,0.0010847427183762,0.0005011484026908,-0.0017670170636847
2.994438232421875,0.0055569765400141,0.0060932023085653,0.0433890598714351,0.0010010006371885,-0.0006035389378666,0.0016764604952186
3.00441845703125,0.0046363545637577,-0.0030083332368172,0.0454880779772996,-0.0006365770241245,0.0002257693558931,0.0004138557997066
3.0143984375,-0.0008961999210529,-0.0024593119187746,0.0463864881217479,-0.002358216792345,-0.001992437057197,-0.001257408875972
3.024378662109375,-0.0141199482292868,-0.0025337562613189,0.0438408952921628,0.0027505252510309,0.0013253288343548,-0.0016768567729741
3.0343583984375,-0.0028326844089664,0.0035710542866494,0.0426437944620847,0.0026039648801088,0.0008643437176942,-0.0025316199753433
3.044337646484375,-0.0006606375995092,0.0032530835118144,0.0466845942854881,0.0011275085853412,0.0010843211784958,-0.001437859609723
3.0543173828125,-0.0085577109922654,0.0023227073265239,0.0510235002726316,0.0016810836968943,0.0024182684719562,-5.24915958521e-05
3.06429736328125,-0.0067484148142859,-0.0062872818422503,0.0426385337650775,0.0006885236361995,0.0007673753425478,6.92148605594e-05
3.07427734375,-0.007639847228676,0.0014558248315006,0.0412906262874603,0.0017303667264059,-0.0008989544585347,-0.0001875933667179
3.084257568359375,-0.0100371906939893,-0.0115476591890212,0.0463765512496232,0.0009058521827682,-0.0031653046607971,-7.28111190255e-05
3.094236328125,0.0016190525691956,0.0015402517119422,0.0457785853564739,-0.0010431094560772,0.001869985833764,-0.0014159864513203
3.10421630859375,-0.0044786432513967,0.0020905151390004,0.0466746574133634,0.0005313514266163,0.0028220657259225,0.0005361106013879
3.11419677734375,-0.0009648995094001,-7.41338152904e-05,0.0448760835587978,0.0004456918104551,-0.0018435521051287,0.0005396143533289
3.124176513671875,-0.0055265814017504,-0.0008523881787899,0.0439805960237979,0.0016995081678032,-0.0004643015563488,-0.0013791931560263
3.134156494140625,-0.0077684420444071,0.0016288615771569,0.050713119149208,-0.0007923350785858,0.0003915363922715,0.0016046534292399
3.144135498046875,-0.0107845201962627,-0.0024953696128446,0.0487666612565517,-0.0003992525162175,-0.0007869126275181,0.0011636338895186
3.154115478515625,-0.0121034025087952,-1.29690794274e-05,0.0421872828662395,-0.0024503932800143,-0.0024942448362708,0.0001098398715839
3.164095458984375,0.0005612140793353,0.0014310374501161,0.0399438878536224,0.0009568549576215,-0.0001575872302055,0.0020217231940478
3.174075439453125,0.0021046441290527,-0.0088754260387737,0.0427875868469476,-0.0012755112256854,0.0001895613968372,-0.0012055330444127
3.18405517578125,0.0011226473543792,-0.0060177259195595,0.0508691864937543,-0.0019998911302536,-0.0006237672641873,0.0002126001636497
3.194034423828125,0.0048508010320365,0.0059005475469864,0.055064300096035,-0.0015252765733748,-0.0038217674009501,0.0014480019453912
3.2040146484375,0.0010557926632463,-0.0015641805768013,0.0393541052669286,0.0009011294459924,0.0016723340377211,0.0012674395693466
3.213994384765625,-0.0034598033313639,-0.0025639048044104,0.0384556951224803,0.0016785039333626,-0.0010143192484974,0.0016651174519211
3.223974609375,0.0063901576948352,-0.0098361699628643,0.0465361257255077,0.0028510936535894,-0.0005815559998154,-0.0005098861875012
3.23395458984375,-0.0005037482710555,-0.0054553336632903,0.0469879611462354,0.0012887604534626,-0.0016812058165669,0.0007421605987474
3.243933349609375,-0.0057727929814718,-0.0002028838946484,0.0480377624601125,0.0004594521014951,0.0019990159198641,0.0010867737000808
3.25391357421875,-0.0019176701895892,-0.0043421665233094,0.0444464599698781,-0.001151792355813,0.0002351170405745,0.0001779947779141
3.2638935546875,0.0006869593508541,-0.0015739530521444,0.0465437245100736,0.0010703491279855,-0.0015151128172874,-0.0005722176865674
3.273873291015625,0.0021571415012702,-0.0046129097560886,0.0490893173396587,-0.0014192098751664,-1.30925327539e-05,0.0004044014203827
3.283853515625,-0.0037120062604546,-0.0014243702473118,0.0381657722651958,-0.0011542253196239,-0.0018538702279329,0.0017868482973426
3.29383251953125,-0.0050110696276649,-0.0026756306837312,0.0359229617744684,-0.0021010865457355,-0.0005832463502883,0.0003797318204306
3.3038125,-0.0071241710578091,-0.0021932083284948,0.0423532870829105,0.0006941674510017,0.0008705733343958,8.81156811374e-05
3.31379248046875,-0.0058848933201283,0.0091899444811977,0.0495364765852689,-0.0024024636950343,-0.0019886195659637,0.0013776669511571
3.3237724609375,-0.0055942946094088,-0.0008784724681172,0.0425058472961187,-0.0034996857866644,0.000941390171647,-0.0013446162920445
3.33375244140625,-0.0049249805130995,-0.0114453587251715,0.0416056835860013,-0.0022665802389383,0.000913206487894,-0.0025710554327815
3.3437314453125,-0.0066403878625482,-0.0052853930570185,0.0392108974039554,-0.0004274011880625,0.0006365040317177,-0.000619757338427
3.353711181640625,-0.0049177653210237,0.0003435710069723,0.0372697002083063,0.0010013607097789,-0.0014236317947506,7.09359446773e-05
3.36369140625,-0.00635786286043,-0.0008811941481661,0.037419337812066,0.0027683679945766,-0.0007306775078177,-0.000748785038013
3.373671630859375,0.0055986419909633,-0.0055727220984175,0.0487906266540288,0.0006180782802402,0.0001668175682425,-0.000806764466688
3.383651611328125,0.0016585260630585,-0.0005284351877402,0.0478922165095806,0.0002465673023834,-0.000657963566482,0.0002036388468695
3.39363134765625,-8.57237883843e-05,-0.0008653024592902,0.0351741892337799,0.0004800262977369,-0.000715434551239,-0.0005736293969675
3.403610595703125,0.0016653393963351,0.0007171261602547,0.0405593894034624,0.0025375846307724,-0.0009782891720533,-4.20624273829e-05
3.413590576171875,-0.0022006335831247,-0.0072290470712352,0.0507335774153471,0.002558228559792,0.0018190490081906,-0.0015266188420355
3.4235703125,-0.0001904080055654,-0.002568096922338,0.0416039300203323,-0.0025590355508029,-0.0018009860068559,-0.0002909121685661
3.43355029296875,-0.0035661680489778,-0.001946540091047,0.0438496631205081,0.0010999599471688,0.0001532277092337,0.0017697602743282
3.443530517578125,-0.0052920602598227,0.0001701324025169,0.0450479329943656,-0.0014827735722064,-0.0004515768960118,0.0016174275660887
3.45350927734375,-0.0070986530240625,0.0024060016958042,0.0471428594470024,0.0010921086650341,-0.0019439384341239,-0.0004640662227757
3.463489501953125,-0.006096892102994,-0.006548490061704,0.0408551574796438,0.0005016858340241,-0.0007388582453131,0.0002326167305
3.4734697265625,0.0064894350845366,0.0003901774945203,0.0460924736112356,0.0002764129894785,0.0002248315140604,-0.0009741690009832
3.483449462890625,-0.0037490138025954,0.0061870911370962,0.0454927541524171,-0.0006487690843641,0.0001739645376801,0.0018426565220579
3.493429443359375,0.0045774639833718,0.0020956297055352,0.0466875168949365,-0.0015699042705819,-0.0006912443786859,0.0002484574797563
3.50340869140625,0.0031375673733651,-0.0006523355620447,0.0493827473282814,-0.0005547072505578,-0.0002201311290264,-0.0018485155887901
3.513388427734375,-0.0015637787180021,0.0016876790923066,0.0421995578259229,0.0002800400252453,0.0009375140070915,-0.0017814477905631
3.523368408203125,-0.0069940236058086,-0.010361646008538,0.0480325017631053,0.0038049998693168,-0.0007234998047351,0.001574401394464
3.533348388671875,-0.0024513569411821,-0.0100766733210068,0.0483311924487352,0.0007649204926565,-0.0009916024282574,-0.0011047790758311
3.543328369140625,-0.0019073497249744,0.0028463841407559,0.0402525154113769,-0.0009360404801554,0.001105104573071,-0.0018307567806914
3.5533076171875,-0.0019697839693166,0.0065280043961014,0.0462386040836572,-0.0020985817536711,-0.0002248883247375,-0.0006834687665104
3.56328759765625,-0.0036815197906456,-0.0032240035478025,0.0537210687935352,0.0047361548058688,-0.0018108012154698,-0.0009825418237596
3.573267333984375,-0.0005896729888394,-0.0001945179251022,0.0501280127376317,-0.0013242702698335,-1.92373991012e-05,0.0015126997604966
3.583250732421875,0.0075567720551043,0.0002591715259943,0.0508779543220996,0.0008725713705644,0.0001293672248721,0.001458371290937
3.59323046875,0.0008021466957405,0.0017277919069863,0.0423480263859033,-0.0013379422016441,0.0022875573486089,0.0026141204871237
3.60320947265625,-0.0082092080818489,0.0037812721043825,0.0465361257255077,0.0013582421233877,-0.0002938443794846,-0.0004551724996417
3.613189453125,-0.0048140309519134,0.0040591026650741,0.0460883819580078,0.0005555545794777,-0.0002129524946212,-0.0003650803118944
3.62316943359375,-0.0009074337011203,0.0042528351388871,0.041449616241455,0.0008692750125192,0.0030957581475377,0.001403791247867
3.6331494140625,0.0036427769491448,-0.0072560538091696,0.0350081850171089,0.0015633162111043,0.0015693632885813,-2.89699946733e-05
3.643129638671875,0.005959328529518,0.0018121000564191,0.0532628036320209,0.0010155038908123,-0.0006035100668668,-0.0031603146344423
3.6531083984375,0.0001675751192495,0.0032868670504074,0.0397948347717523,0.0016139603685587,-0.0010292697697877,-0.0024818857200443
3.663088623046875,-0.0006139306472614,-0.000664400459174,0.045479894670844,0.0019673618953675,-0.0009275367483496,0.0001218868565047
3.673068359375,-0.0038523463129065,-0.0072798822093289,0.0451800349414348,0.0008812035666778,0.0019003190100193,-0.0006710692541673
3.68304833984375,0.0001588072909042,0.0074431373464874,0.042337504991889,-0.0014972655335441,0.0010702116414904,0.0019292411161586
3.693028564453125,-0.0022412578544579,-0.0021212756034452,0.0380009370923042,-0.000271413824521,-0.0015958677977323,0.0014145293971523
3.70300732421875,-0.0014553316411562,0.0077361472100019,0.042191959041357,0.0023033302277326,0.0005825981497764,-0.0004193233326077
3.7129873046875,-0.0056152460658922,-0.0031767486062832,0.0391962843567132,0.0001355205895379,0.0004805903881788,-0.0013161059468984
3.722967529296875,-0.008500373048149,3.68157458957e-05,0.0466764109790325,0.0037744636647403,0.0023051220923662,4.87640390929e-05
3.73294775390625,-0.0084894680616445,0.0100304230264853,0.0441284800618886,0.0004104367108084,0.0003872606903314,0.0009140284382738
3.742927490234375,0.0017454371615312,0.0006351378320716,0.0448778371244668,0.0004216220113448,-0.0012047765776515,0.0010636979714035
3.75290673828125,0.0003382372447289,0.0001888371029868,0.041585809841752,-0.0004650715272873,-0.0017453441396355,0.0004542614042293
3.762886474609375,0.0074769117519259,0.0058361588075757,0.0484720622241497,-0.0001260511344298,-0.0026609385386109,0.0008526702877134
3.772866455078125,-0.0002925897384062,0.0072433495912235,0.0393482600480318,-0.0004012673744,0.0006633903831243,0.0025497453752905
3.782846435546875,0.0030892895185388,0.0035253063156269,0.040841713476181,-0.0026263385079801,0.0037244269624352,-0.002541419584304
3.79282666015625,-0.0050287148822098,0.0002977043049409,0.053559156230092,0.0008373700547963,-0.0014001065865159,-3.5003908124e-05
3.802805419921875,-0.0042169783742167,-0.0008622245862148,0.0447317066520452,-0.0001735658734105,-0.001125268638134,0.0002803143579512
3.812785400390625,-0.0019290135675109,-0.0013693612575996,0.0411404041618108,0.0005128991324454,0.0011806655675172,-0.0002175021509174
3.822765625,-0.0041191074903123,-0.002402613295475,0.0507148727148771,0.0026618037372827,0.0020611062645912,0.0012256648624315
3.83274560546875,0.0016649740701541,0.00128701673639,0.0424830509424209,0.0018227730179205,-0.0011788951233029,-0.0009584928629919
3.8427255859375,-0.0059779418984428,0.0018120452574919,0.044127895539999,0.0007114359177649,0.0005750628188252,-0.0001382392365485
3.852704345703125,0.0027077976539731,-0.0071893178490456,0.0454746339738368,-0.0004198600072413,3.53930518031e-05,8.84197434061e-05
3.8626845703125,-0.0061599291355349,0.0116771490538958,0.0412853655904531,-0.0025320132263004,0.0018330262973904,-0.0013432956766337
3.87266455078125,-0.0043653556026518,0.0122158316410146,0.0411368970304727,-0.0002774958848021,-0.00053939409554,0.001839073956944
3.88264453125,-0.0079732621678151,0.0076979340914636,0.0460731843888759,0.0030115079134702,0.0015181638300418,-0.0006411279318854
3.892624267578125,-0.0006457688239403,0.0050531734700314,0.0533995817542076,0.0019386588828638,0.0008494304493069,-0.0007263242150656
3.9026044921875,-0.0042522140843793,0.0039112277601379,0.0451654218941926,0.0001727167982608,0.0007865792140364,-9.38234661589e-05
3.912583251953125,-0.0032670755045488,-0.0030100776693318,0.0409761535108089,0.0026298728771507,-0.0016668383032083,0.0007112926105037
3.9225634765625,-0.0101849103352986,0.0072120137380436,0.0327484233915805,-0.0019387800712138,-0.0014418009668588,0.0013858713209629
3.93254345703125,-0.0021419256658293,0.0026272523642051,0.0396335067301988,-0.0006292681209743,-2.28155404329e-05,-0.0002380395599175
3.942523681640625,-0.0041872408230789,0.002947597759217,0.0557955369800329,0.0015350829344242,0.0003854464739561,3.86628780688e-05
3.95250341796875,-0.0107393293476663,0.003593951105047,0.0535527264893054,-0.0013520078500732,-0.0011302893981337,0.0009998031891882
3.962482421875,-0.0026097623732872,-0.0006087430154904,0.0477191980302333,0.0002296435413882,0.0008870549499988,-0.0016987778944894
3.972462646484375,-0.0011463752898387,0.0108111890074796,0.0590904868721961,-0.0006916489219292,0.0006111236289143,-0.0022304905578494
3.9824423828125,-0.0075462871937081,-0.0010859594726469,0.0424842199862003,0.0010386068606749,-0.0020248731598258,-0.0004291283548809
3.992422607421875,-0.0029518538092263,-0.003299023279082,0.042632104024291,0.000329318922013,0.0020616762340068,-0.0014306352240964
4.002402587890625,-0.0027277261971496,-0.0012423738770652,0.0388899948865175,-0.000613706477452,0.0001974627375602,-0.0013824320631101
4.01238037109375,-0.0024492015167139,-0.0037441184317693,0.0516086066842079,-0.0005667149089276,-0.0004489887505769,0.0022783512249588
4.022360595703125,-0.008415105917491,0.0042621600896585,0.0390402170121669,0.000472184154205,-0.0029726000502705,0.0017720843898132
4.032340576171875,-0.0052600394200533,0.0105398886522743,0.0396422745585441,0.0004749204963445,-0.0005065836012363,0.0003845611354336
4.042320556640625,-0.0016490641149692,0.0034692744126077,0.0400906028479337,0.0024491217918694,-0.000980625860393,0.0006287730066105
4.052300537109375,-0.0001284304189495,0.0136894387243781,0.0511637855261564,-0.0008016273495741,0.0003623906522989,0.0013212661724537
4.062279296875,-0.0062718650774098,0.0101937877614982,0.0496674094885587,-0.0035521402023732,-0.0018259286880493,0.0007137991487979
4.072259521484375,-0.0095448771324008,0.0039734062761534,0.0558072274178266,-0.000134443398565,-0.002384927123785,-0.0001403099013259
4.082239501953125,-0.0056813153057359,0.0041816056667361,0.0504226117700338,-0.0016878652386367,0.0004609264433383,0.000961706158705
4.09221923828125,-0.0020444201081059,0.0011586959152948,0.0429401470601558,-0.0019861203618347,-0.0003762179985642,0.0008056224323809
4.102199462890625,0.0024954883438535,0.0054431683014612,0.050271220600605,0.0005497416714206,0.0007849195972084,-0.0016391593962907
4.1121787109375,0.0012894735549576,0.0056559982013888,0.0508686019718647,0.0004880299093201,0.000766260549426,-0.0001530849403934
4.122158447265625,-0.0036660116942599,0.0061403567853849,0.0436854124695062,0.0023208174388855,0.0014493614435195,0.0007337477291002
4.132138427734375,-0.0017317008971236,-0.0045945977812632,0.0463783048152923,0.0019986666738986,-0.000382088124752,-4.13825546274e-05
4.14211865234375,0.0007489186711609,-0.0109916966735385,0.0502700515568256,-0.0002005717251449,-0.0003128461539745,0.0009945870842784
4.152098388671875,0.0003103811234235,0.0013113931258209,0.0457791698783636,-0.0004245818126946,0.0026643145829439,-0.0012470260262489
4.162077392578125,0.0049832500389777,0.0007869399934541,0.0501157377779483,0.0013948897831141,0.0014935890212655,-0.0009269139845855
4.1720576171875,-0.0029675445687025,-0.0023262783899437,0.0463736286401748,-0.0001412617275491,0.0009371982887387,0.0027239110786467
4.182037353515625,-0.005157346230559,0.0014870693531353,0.033357495200634,-0.0012355545768514,-4.39099967479e-05,-0.0001978428190341
4.192017578125,0.0006893157047219,0.0033676863348111,0.0429337173193693,0.0013044190127402,-0.0005009910091757,7.1876856964e-05
4.20199755859375,0.0008059095554053,0.0068377461987081,0.0546072039783,0.0002330292481929,-0.0003023194149136,-4.02422192564e-05
4.2119765625,-0.0080242251700721,-0.0021403364969417,0.03425999699831,-0.0011489957105368,-0.0020296154543757,0.0024832559283822
4.22195654296875,-0.0023171726348809,-0.0057812137499451,0.0498246458768844,-0.0002400588127784,-0.0028525320813059,-0.0017868565628305
4.2319365234375,0.0059933951959013,-0.001235880204197,0.0423427656888961,0.0016317426925525,0.0023542763665318,-0.0007219937397167
4.241916259765625,-0.0014697437589988,0.0045346020891796,0.0433861372619867,-6.14952296018e-05,-0.0001640086993575,-0.0017944487044587
4.251896484375,0.0007545446943491,0.0081098850263748,0.0495212790161371,-0.0008020639070309,-0.000544935464859,-0.0002012256300076
4.26187548828125,0.002440908612404,0.0078915752337314,0.0442822093188762,-0.0020774516742676,0.0011751996353268,0.0005415300256572
4.271855224609375,-0.0142124853509478,0.0034659590775147,0.046975686186552,0.0016376740531995,0.0014550508931279,-0.000787733704783
4.28183544921875,-0.0147955824685283,0.0076009491235483,0.046526188853383,0.0002030291361734,-0.0018025282770395,-0.0005211512325331
4.291815673828125,-0.0136582490016706,0.0043899968535639,0.0513169302612543,-0.0033577946014702,-0.0009554950520396,-0.0015986145008355
4.30179541015625,-0.0120084177017211,-0.0018858685455285,0.0408440515637397,0.0022273869253695,-0.0012098271399736,-0.0010489381384104
4.3117744140625,-0.0062434427005238,0.0041590193755924,0.0348562093257904,0.0007226493908092,0.0003028539940714,-0.000150906475028
4.321754638671875,0.0079045808457769,0.007355988785997,0.0402431630611419,-0.0013724594609811,0.0005326839163899,-0.0002310676209162
4.331734375,0.0028922873754054,-0.0003188292913604,0.0448807597339153,0.0017433437751606,0.0010922029614448,-0.0029724065680056
4.34171435546875,0.0016606997538357,-0.0006075191727839,0.0405401001811027,0.0004349327646195,0.0010447986423969,-0.0010695779928937
4.351694580078125,-0.0007385982065461,0.0006276121127419,0.038592473244667,-0.0019335082033649,0.0009452672675251,-0.0016675610095262
4.36167333984375,-0.0037223449913784,0.005970242649177,0.0412871191561222,0.0003629355924203,0.0001210188493132,-6.85992054059e-05
4.371653564453125,0.0041574119403958,0.0014566742148716,0.0466764109790325,-0.0012812973000109,-0.0013611083850264,0.0015877904370427
4.381633544921875,0.0057731583076529,0.004029429046018,0.0400958635449409,-0.0020490866154432,-0.002496413886547,-0.0011302318889647
4.391613525390625,-0.0006629391544498,0.0025377291835378,0.0501250901281833,0.0001173083437606,-0.0009208088740706,0.0008547333418391
4.401593505859375,-0.0033126864782534,-0.0061885889744386,0.0529693736433982,0.0001234336523339,-0.0015927236527204,-0.0004949566791765
4.411573486328125,0.0017469715314917,-0.0018570443098433,0.0523737458378076,-0.0032245151232928,-0.0019512521103024,-0.0011214152909815
4.42155224609375,-0.0010748809562064,0.008597403681837,0.0419026207059621,-0.0001682715956121,-0.0020157005637884,0.0003065716300625
4.431532470703125,-0.0044899135640822,0.0045621202837675,0.0435509724348783,0.0010063719237223,-0.0010032383725047,-0.001855926355347
4.4415126953125,-0.0029062976344488,0.004002915498428,0.0390647669315338,-0.0005294730071909,-0.0009598284959793,-0.001578424940817
4.451492431640625,0.0103352237924933,-0.0038378063309006,0.041311669075489,0.0009620079072192,0.0009287381544709,0.000121478762594
4.4614716796875,0.0057311823294498,-0.0042307603043969,0.0396644863903522,0.0001311015803366,-0.0018840925768017,-0.0001602836709935
4.47145166015625,-0.0079028455464169,0.0023882651097141,0.0487912111759185,0.001374663086608,0.0003037936985492,0.0011805492686107
4.481431396484375,-0.0024070063428021,0.0060332796817179,0.0474415501326322,0.003982963040471,0.0004289615899324,-0.0003382514987606
4.491411376953125,-0.0090797986376099,0.0025210794428363,0.0483382067114114,-0.003209882415831,0.0010280357673764,-0.0018172272248193
4.5013916015625,-0.0073867857830598,0.0047641913276631,0.0393576123982667,0.0036323107779026,-0.0009174039587378,-0.0014126930618658
4.511370361328125,-0.0156957827112637,0.001106454271404,0.0457879377067089,-0.0007936917245388,0.0017727259546518,0.0006490824744105
4.521350341796875,-0.0054469220279715,-0.0035638208282645,0.0487795207381248,-0.001297828159295,0.0008515380322933,0.0011212609242647
4.53133056640625,-0.0005641366887837,0.0056319232060573,0.0472825601786375,0.0003533230628818,0.0009168721735477,-0.000297021062579
4.541310546875,-0.001501362739969,0.0057488001845311,0.0498246458768844,-0.0026730932295322,-0.0009598573669791,0.0003938028821721
4.55129052734375,-0.0037362639188766,0.0064540532439015,0.0478799415498971,-0.0012912800302729,0.0015988983213901,0.0024640241172164
4.5612705078125,-0.0049725459818728,0.0026238365644123,0.0456353774935007,0.0005164736649021,-0.0006703808903694,-0.0003048643120564
4.57124951171875,0.0020536445941776,0.0014093188086524,0.0397995109468698,-0.0012677473714575,0.0006184773519635,0.0016590404557064
4.581225830078125,0.0019978227537125,0.0050248880904633,0.0477303039461374,-0.0005215296405367,0.0014184908941388,0.0016707583563402
4.591205810546875,-0.0003643945992924,-0.0008946838174015,0.0429436541914939,-0.0008131819195114,-0.0006826650351285,0.001596454414539
4.60118603515625,-0.008723897872027,0.0068070679326541,0.0451893872916698,0.0011807266855612,0.0028177937492728,0.0003346486773807
4.611166259765625,-0.0072730232102796,0.0081681088864803,0.043542204606533,0.001168530783616,-0.0010503167286515,-0.0019813037943094
4.62114501953125,0.0039300329253077,-0.0008507807435933,0.0519207413733005,0.0013991604791954,0.0003132214769721,0.001096777850762
4.631125,-0.0013387743230909,-1.87777657061e-05,0.0510211621850728,-7.19116069376e-05,0.0004502581432461,0.0013586273416876
4.64110498046875,-5.02506162039e-05,0.0026349333471618,0.0371054495573043,0.0020474318880587,-0.0017018429934978,-0.00094101234572
4.6510849609375,0.0004367657157592,0.0081488105309661,0.0460831212610006,0.0008919355459511,-0.0003032563254237,0.0003876380214933
4.66106494140625,0.0053804509293287,0.0025669826774857,0.0493745640218257,0.0023798437323421,0.0009630769491195,0.000744501594454
4.671043701171875,0.0059268144994042,-0.000237927808566,0.0454839863240718,-0.0025617203209549,0.0010328069329261,0.0004014733422081
4.68102392578125,-0.0015915617740713,-0.0010076335394289,0.0415928241044282,0.001084413495846,-0.0019621839746832,-0.0003514022682793
4.691004150390625,-0.0022578071304596,-0.0002575458244886,0.0388993472367525,-0.0026930605527013,0.0010576024651527,-4.9056034185e-06
4.70098388671875,0.001591835768707,-0.0024289167805109,0.0427899249345064,-0.000830179429613,-0.0009616063907742,0.0001697977568255
4.7109638671875,0.0038517435247078,0.0013602646356914,0.0508732781469821,0.0012861159630119,-0.0018224054947495,0.0007601561956107
4.720943115234375,0.0063498074181377,0.0039600353379268,0.0333674320727586,0.0016714753583073,-0.0004551382735371,0.0001127417417592
4.7309228515625,0.0064939285965636,0.0090054456266108,0.0423462728202342,7.57799716666e-05,0.0011958107352256,-0.001102048321627
4.74090283203125,-0.0008036627993918,0.0007555036755744,0.0553653288692235,0.0008880441309884,-0.0005909046158194,-0.0004048327391501
4.750883056640625,-0.0063695167656056,-0.0130374684885144,0.0472878208756446,0.0029192913789302,-0.0017005382105708,-7.75289372541e-05
4.76086279296875,0.0040013263295404,-9.3057711469e-05,0.0429500839322805,0.0038974701892584,-0.0009471299126744,0.0015288898721337
4.770841796875,-0.0016542334804311,0.003231456201896,0.043698856472969,0.0015259763458743,-0.0015471670776605,-0.0012016679393127
4.780822021484375,-0.00438274512887,-0.0034508619730826,0.0420563499629497,-0.001124135334976,-0.0010110726580023,0.0017009113216772
4.790802001953125,-0.0079569686201401,0.0021038952103815,0.0490910709053277,-0.0021715543698519,0.0005001947283744,0.0011311827693134
4.800781982421875,-0.0016956066704355,0.0075775225821882,0.0468465068489313,-0.000923597079236,0.0007318900898098,-0.0007386226207017
4.810761962890625,0.0057130073519423,0.0012240801685489,0.0495393991947174,-0.0030161566101014,0.0010520825162529,-0.002431652508676
4.820740966796875,0.0062678830220364,0.0050539497881662,0.0490899018615484,0.0005242495099082,0.00035912822932,-0.0012619921471923
4.830720947265625,0.0025018267530947,0.0010474084273912,0.057169747942686,-5.85619127377e-05,0.0008929660543799,-0.0018364469287917
4.840700927734375,-0.0044546961202286,0.0035031766822095,0.0404097517997026,-0.0018213082803413,0.0014644805341959,-0.0012055441038683
4.8506806640625,-0.0068197082185186,0.0019959869896527,0.0510310990571975,0.000482695759274,-0.0006798859685659,0.0009626308456063
4.860660888671875,-0.0020508315825834,0.0016382230605464,0.0483399602770805,-0.0005322349607013,-0.000901460647583,-0.0008264807402156
4.87064013671875,-0.0048934711299836,-0.000768527553929,0.0465443090319633,-0.0012386781163513,0.0031232628971338,0.0025828110519796
4.880619873046875,-0.0021035298842005,0.0013881846890784,0.0437023636043071,-0.0005672952393069,-0.0009481776505708,-0.0017645331099629
4.890599853515625,-0.0038139687975868,0.0058333001302089,0.0505851088553667,0.0008074973011389,0.0014666868373751,-0.0008206272032111
4.900580078125,-0.0028892917007207,-0.0003658376377075,0.031432664617896,-0.0001664207666181,-0.0019219201058149,-0.0011034549679607
4.910559814453125,-0.0032567733062431,-0.0031979923237115,0.0378700041890144,0.0002371849259361,-0.0007408894598484,0.0010828615631908
4.920538818359375,0.0025836415513418,-0.0088033471832517,0.0502910943448543,0.00029897026252,-3.40864062309e-05,-0.0003547127998899
4.93051904296875,-0.00590664849421,0.0060490069738123,0.0350298123270273,-3.6527053453e-05,0.0005614524707198,-0.0023541150148957
4.940498779296875,-0.0050625988855026,-0.0024713585495948,0.0335369434207677,-0.0013153770705685,-0.0019400548189878,-0.0008371784351766
4.95047900390625,0.0025816687899641,0.0017431538728997,0.0380278250992298,-0.00210014404729,0.0002274066209793,0.000885724381078
4.960458984375,-0.0136540294842794,0.0030898101083468,0.0470078348904848,0.0002359807258471,0.0006042439490556,0.0015765484422445
4.97043798828125,-0.0038901393063366,-0.0031909415284171,0.0550853428840637,0.0009844296146184,0.0005311388522386,0.0009439338464289
4.98041796875,-0.0079951452060602,-0.0064860101515892,0.0453559760302305,-0.0013474342413246,0.0010619070380926,0.0004704238090198
4.99039794921875,-0.0122143520699813,-0.003234214414563,0.0462538016527891,-0.0006896085687913,-0.0014624027535319,0.0011166568147018
5.000377685546875,-0.0022573870053514,0.001163454288803,0.0431090738862752,-0.0003303481498733,0.002068948931992,0.0023739351890981
5.01035791015625,-0.0083029507799074,0.0002887994792778,0.0508873066723346,-0.0006402962608262,0.0015021553263068,0.0010172227630391
5.0203369140625,0.0019802322980947,0.0042669184631668,0.051934769898653,-0.0013668065657839,8.02939757704e-05,0.0003373177314642
5.030316650390625,2.74177298881e-05,0.0067370623032096,0.051337973049283,-0.0002750265412032,-0.0011031832545995,0.0016265837475657
5.040297119140625,-0.0015802366624586,-0.0014965495675336,0.0465489852070808,-0.0025573554448783,0.0011791456490755,0.0005266981897875
5.050277099609375,0.0018656842740252,0.0007575769016519,0.0508902292817831,-0.0026926058344542,-0.0008569024503231,-0.0004519401700235
5.060257080078125,0.0025716405862942,-0.0015093633833341,0.0523889434069395,0.0003415336832404,-0.0007897913455963,0.0023116220254451
5.070236083984375,-0.0009967742186971,-0.0043400567646138,0.0392214187979698,0.0009982932824641,0.0028978390619158,-0.0024888729676604
5.080216064453125,-0.0068318553140386,0.0020018596080131,0.0402647903710603,0.003015371505171,0.0010360227897763,0.0006965339416638
5.09019580078125,-0.0059133522296324,-0.0047922666446771,0.0484942740559577,0.0023124346043914,-0.0009513767436146,0.0006945070344954
5.10017578125,-0.0033456754324026,3.55736368801e-05,0.0474468108296394,0.0008431687019765,-0.0003889175131917,-0.0010336181148886
5.110156005859375,-0.0027003084672614,-0.0020683124403469,0.0402671284586191,-0.0016431487165391,4.02377918362e-05,0.0011226310161873
5.120134765625,-0.0090890048573724,0.0033774314106907,0.0329354703962802,0.0009947123471647,-0.0006788158789277,0.0006893347017467
5.130114990234375,-0.001458053321205,-0.0013231292293872,0.0383230086535215,-0.0001878918264992,-0.0008709449321031,-0.0012748551089316
5.140094970703125,-0.0016483882615342,0.0024713676827494,0.0502957705199718,0.0007713787490502,-6.18770718574e-05,0.001014131703414
5.150074951171875,-0.0072824120931327,0.0002933569233864,0.0431084893643856,-0.000865121372044,-7.5027346611e-06,0.0005955042433924
5.160054931640625,0.0023468005881644,-0.002936007786123,0.0458043043196201,0.0012904411414638,0.0010391203686594,0.0012690175790339
5.170033935546875,-0.0031272469087503,-0.0067521594076417,0.0440092375963926,-0.0004933143500238,-0.0022724634036421,-0.0021725110709667
5.180013916015625,-0.0084415737993083,-0.0036503209347836,0.0449070632189512,-0.0021511320956051,0.0012503657490015,-0.0009405328892171
5.189993896484375,-0.0008129968833178,-0.0053914746468421,0.0556803861677646,-1.82909425348e-05,-0.0019758949056267,-0.0011868923902511
5.199973876953125,-0.0048481706835329,-0.0046175037328153,0.0420680404007434,-0.001299271476455,0.0006377315148711,-0.0022561515215784
5.2099541015625,-0.007192395722121,0.0058013980214484,0.0401245051175355,-0.0001353329280391,-0.0015377383679151,-0.00057245104108
5.21993310546875,0.0013006708024069,0.0024613212127704,0.0368336468786001,0.0020660362206399,-0.0026346947997808,0.0001953382452484
5.2299130859375,-0.0005626753840595,0.0076107763978186,0.0410229152619838,-0.0015322590479627,0.0015857750549912,0.0005517493700608
5.239892822265625,-0.0051944999031722,-0.0024261677009984,0.051496378481388,-0.0016489054542034,0.0010536750778555,0.0014492346672341
5.249872802734375,-0.0036355800233781,0.0025709921323228,0.0477577764749527,-9.21479659155e-05,0.0014363005757331,-0.0009257291676476
5.25985302734375,-0.0037358072611503,0.0053849444413557,0.0476063853055238,-0.0017174752429127,-0.0001038061454892,-0.0015124235069379
5.269831787109375,-0.0057827481199055,0.0018348142117261,0.0447621017903089,-0.0005013248883187,0.0018539447337388,0.0009828789625316
5.279811767578125,-0.0011253873007372,0.0022993081846274,0.0464051928222179,-0.0017205199692398,-0.0004198625683784,0.0005035100039094
5.2897919921875,0.000500825661607,-0.0070978767059277,0.0446101260989904,-0.0027161026373505,0.0011585038155317,-0.0012965630739927
5.299772216796875,-0.0029968802610412,0.0011811908748932,0.0422159244388341,-0.0005632031825371,0.0008061677217483,-7.33732813387e-05
5.309751953125,-0.0062716641480103,-0.0015952972342725,0.0426624991625547,-0.0006597351166419,0.0002076281234622,0.0014333279104903
5.319731201171875,-0.0109998799799941,-0.0020746691158972,0.0398129549503326,0.0004196440568193,0.0012380052357912,0.0023678310681134
5.3297109375,-0.008307316427771,0.0047899924892,0.0383171634346246,-0.0015761299291625,0.0007912227883934,-0.0010504653910174
5.33969091796875,-0.0024527451806701,0.0023962748862337,0.0360714303344488,-0.0006568066892214,-0.00079096108675,0.0028875509742647
5.3496708984375,0.0018237082958221,-0.0066664447524119,0.045351299855113,-0.0009285745909437,8.72183591127e-05,0.0002147290069842
5.359650634765625,-0.0056696796668693,-0.0009235811183229,0.0386170231640338,0.0034352811053395,0.0006805704906582,0.001499970559962
5.3696298828125,0.0025229426063597,-0.0051958607431966,0.0425029246866703,0.0009007054613903,0.000828999094665,6.96746719768e-05
5.37960986328125,-0.0091039466981776,0.0008758238533046,0.0429500839322805,-0.0001315358094871,0.0007722740992903,-0.0012640364002436
5.38958984375,-0.009686678489577,0.0011637556829024,0.0416039300203323,-0.0028056600131094,0.0003307443112134,0.0021292325109243
5.399570068359375,-0.0017817871165461,-0.0021445012154057,0.0426543158560991,0.0020016122143715,-8.57738777995e-05,8.9517518063e-05
5.409550048828125,-0.0004811711130663,0.0004994465552736,0.042203064957261,0.0006349188042804,0.0026216441765427,0.0006265342817641
5.41952880859375,0.0046379619989544,-0.003187954986887,0.0416027609765529,-0.0015126543585211,0.002000062726438,0.0005394489271566
5.429509033203125,-0.0060266764109954,-0.0074371277308091,0.0410024569958448,0.0010335828410461,0.0006364230066537,-0.0003215321921743
5.439489013671875,-0.0053389316088519,0.0104804866152349,0.0495312158882617,-0.0020072145853191,0.0018691997975111,0.0011165747418999
5.44946875,0.0051800877853296,0.0035610169498249,0.0456400536686182,0.0002937288954854,0.0001558642834424,-0.0006599813932552
5.45944873046875,-0.0067244128841906,0.0026314170826692,0.0454921696305274,0.0021182605996727,-0.001516068354249,0.001383994705975
5.469427978515625,0.002018792476505,-0.0027945991545915,0.0341202962666749,-0.0004524223040789,-0.0013943929225206,0.001090211328119
5.479407958984375,0.0068275079324841,-0.0044654823757242,0.0354658656567335,-0.0002588104689493,0.0010983264073729,5.7721845223e-06
5.489387939453125,0.0022387188374996,0.0057851866721641,0.0390542455375194,0.0005736788734793,-0.0009910622611641,-0.0005931793712079
5.499367919921875,-0.0011772270858287,-0.0006786938460078,0.0305278247326612,-0.0004609592142514,-0.0025101285427808,2.94677138299e-05
5.509346923828125,-0.0040462979824282,-0.0016528817735612,0.0419020361840724,0.0003110985271632,-0.0017420575022697,-0.0001082121452782
5.519326904296875,-0.0061830542827956,0.0010964991329703,0.0486386509627103,-0.0003104832139797,-0.0008589532226324,0.0008918048115447
5.529306884765625,0.0036997313007712,0.003969131959835,0.0426531468123197,-0.0002543159644119,-0.0005021365359425,-0.0001620477560209
5.539286865234375,0.0037961956788785,0.0010676109652034,0.0472913280069828,-0.0013739088317379,-0.0008416902273893,-0.0015005525201559
5.549266845703125,-0.0107237664523534,-0.0021536983020137,0.0492372013777494,-0.0005599908181466,-0.0004054075106978,0.0002416719071334
5.559245849609375,0.0018083828625269,-0.0007509279651567,0.0477443324714899,-0.0019629441667348,-0.0008807815611362,-0.0016260029515251
5.56922607421875,-0.0021954459513537,0.0046248741885181,0.0440063149869442,-0.0024229381233453,-0.0001891106367111,-0.0015518406871706
5.5792060546875,-0.0044085006246343,-0.0066591656282544,0.0501426257848739,-1.83701049536e-05,-0.0008549010381102,0.0003853426605928
5.58918603515625,-0.0100042748050764,-0.0039151732828933,0.0338332960188388,0.0006095686694607,0.0003883996978402,0.0001411374978488
5.599166259765625,0.0062897112613543,0.0013991992734372,0.0434089336156845,0.0014633780810981,0.0005662981420755,-0.0005523496656678
5.609145263671875,0.0023112726170569,-0.0002673182998318,0.040567572709918,-0.0013701496645808,-0.0004062466323375,-0.0032138181850314
5.619125244140625,0.0028768523442558,0.0013743388268165,0.0396691625654697,-0.0021874736994504,-0.0008219657465815,0.0007891791756264
5.62910498046875,-0.0063941580165177,-0.000682584569836,0.0420680404007434,-0.0018882744479924,-0.0011428045108914,-0.0021147886291146
5.6390849609375,-0.0110870650731027,-0.0003571246082894,0.054489715078473,0.0010811502579599,0.0008979765698313,-0.0014649771619588
5.649065185546875,-0.0134132977972738,-0.007443858865695,0.0431190107583999,-0.0001082988455891,-0.0004779761657118,0.0006072844844311
5.6590439453125,-0.0091604261257685,-0.0011101531989872,0.0429717112421989,0.0004392471164464,-0.00204364862293,0.0001324429031228
5.66902392578125,-0.000676858081948,-0.0050211708965711,0.0372895739525556,-0.0023819676134735,-0.0012418944388628,-0.0007029186817817
5.679004150390625,-0.0004262808543629,-0.0040294564454816,0.0497124176740646,0.0019419407472014,0.0002891570329666,-0.0007460618508048
5.688984375,-0.0032208252100273,0.0053685138963628,0.0477636216938495,0.00204494362697,-0.0003367001190781,-0.0010074683232232
5.698964111328125,-0.001429959737882,-0.0047802108807023,0.0408797073990106,-0.0017082493286579,-0.0004224544391036,0.0021507742349058
5.708943115234375,-0.0022554690429009,-0.0040711218964308,0.0488128384858369,-0.0007794967386871,0.0021732440218329,-0.0007446585805155
5.718923095703125,-0.0013400529647246,-0.000949263548851,0.0392348628014326,-0.0017496863147243,4.11178916692e-05,0.0006420493591576
5.728903076171875,0.0012526669422164,-0.0021192023773677,0.0425274746060371,-0.0015484835021197,0.0004768529906868,0.000940668338444
5.738883056640625,0.000275894331932,0.0003994476463645,0.0506067361652851,-0.0005077201640233,0.0017655566334724,0.000546254159417
5.74886279296875,0.0008568542913533,-0.0036401283343322,0.0471609796255826,0.0009358330862596,-0.0006163278594613,0.0004304649773985
5.758842041015625,-0.0036583946433849,0.0021668865771498,0.0372831442117691,0.0009528772206977,0.0007874248549342,0.0014187640044838
5.768822021484375,-0.0041607181423343,-0.0043134701517876,0.0459597871422767,-0.0013038903707638,0.0019128452986478,-7.50455801608e-05
5.778802001953125,-0.0058281764305196,-0.0072541358467191,0.0413204369038343,4.57996502518e-05,0.0011573070660233,0.0001622420677449
5.7887822265625,-0.0126878148006275,-0.0009887370427139,0.052689972180128,0.0003821043064817,0.0015001455321907,4.732843081e-05
5.79876220703125,-0.0062530690453946,-0.0060153878320008,0.0441617978096008,-0.0010099299252033,-0.002315898425877,0.0009557326557114
5.808740966796875,-0.0097943218488246,0.0027922336675692,0.0488034861356019,-0.0017113793874159,0.0006591416895389,0.0007209300529211
5.818720947265625,-0.0001825717589817,-0.0027134419434703,0.0416214656770229,0.0007256793323904,0.0007515531033277,6.12650255789e-05
5.828701171875,0.0034729550738818,-0.0040684732816182,0.0431172571927309,0.0015647638356313,0.0002385303378105,-0.0010270884959027
5.838680908203125,0.0108721984797157,0.0010294069798197,0.0449146620035171,0.0014545089798048,2.49445438385e-05,0.0023458050563931
5.848660888671875,-0.0018827084740623,0.0025375008546747,0.0488075777888298,0.0004864943912252,-0.001836652867496,0.0005253348499536
5.85864013671875,0.0007924655519425,-0.0075277925557922,0.0426753586441278,-0.000501538394019,0.0006949482485651,0.0003037599090021
5.8686201171875,-0.0056766391306184,-0.0020236604478675,0.0266635505199432,0.0002434923080727,0.000158648006618,-0.0003692987374961
5.87860009765625,-0.0042312626278959,0.006249899840774,0.0470142646312713,-0.0012055336264893,0.0018300479277968,0.0004456285387277
5.888580078125,-0.008285141128581,-0.0045818296312354,0.0429728802859783,-2.7068890631e-06,0.0026764972135424,-0.0002022055996349
5.898560302734375,-0.0105434414493851,-0.0047626843571662,0.0434217930972576,-0.0020980820991098,0.0002223942428827,-0.0024946548510342
5.9085390625,-0.0084634568375535,0.0024072620711289,0.0398269834756851,-0.0008356572361662,0.0006463257595896,0.000394535716623
5.91851904296875,-0.0039112186269834,-0.0067829564047046,0.0449134929597377,0.000718563562259,-0.0019981926307082,0.0014518105890601
5.9284990234375,-0.0008265139520168,0.011337423104979,0.0432663102746009,-0.0019891976844519,0.0020640147849917,0.0006522762705571
5.93847900390625,-0.0025168964580632,0.0097226174526382,0.0389268197655677,-0.0009684079559519,-0.001068128272891,0.0004296359838917
5.948459228515625,0.0036994938387535,-0.0020135226463433,0.0407253936201333,-0.000593454868067,-0.0001956392079591,-0.0012966638896614
5.95843798828125,-0.0034605522500351,0.0049701987611595,0.0482078583300113,0.0016497256001457,0.0007537771016359,-0.0001656194217503
5.968418212890625,-0.0124887850971892,0.0074450187763199,0.0485100561469793,0.0011784035013988,6.19851052761e-05,2.80182430287e-05
5.978398193359375,0.0059901072602719,-0.0026305311666801,0.046263154003024,0.0006803924916312,0.0037339515984058,-4.62839525425e-05
5.9883779296875,-0.0115662451584823,-0.0069383478958159,0.0453618212491273,0.0019100703066214,0.0011959746479988,0.0002398634096607
5.99835791015625,0.0003297068784013,0.0010671360411681,0.0420674558788538,0.0014141896972432,-0.0002029836177825,0.0004795478889718
6.008337158203125,-0.0032643538244999,-0.0032887028144672,0.0407207174450159,-0.0009115015855059,-0.0027399063110351,-0.0001181441330118
6.01831689453125,0.0003108560474589,-0.0019134050064254,0.0470095884561538,-0.0012734251795336,0.0027419440448284,0.0007966517005115
6.028296875,-0.0051414545416831,-0.0065863469872158,0.0565858105748891,0.0010854704305529,-0.0003164866939187,0.0013851608382537
6.038277099609375,-0.0059133704959414,-0.0014460888887755,0.0450625460416078,0.0019334210082888,0.0006909873336553,0.0007947380654513
6.04825732421875,-0.0051614196174778,-0.0096311032442841,0.0417699342370033,-0.000303752545733,0.0018055299296975,-0.0001353587431367
6.058236083984375,-0.000734396955464,-0.0146767783944495,0.0401239205956459,-0.000337308330927,0.0004782108590006,0.000214314306504
6.068216064453125,-0.000985302976612,-0.0067002465573139,0.0526940638333559,-0.002009070245549,-0.0001396033912897,0.0001641806593397
6.078196044921875,5.15109915286e-05,0.0026383491469547,0.0375812503755092,-0.0026221298612654,-0.001073308289051,-9.09501686692e-05
6.088176025390625,0.0024996530623175,0.0025252806939184,0.0480582207262516,0.0003922285977751,0.0007123425602912,-0.0020630741491913
6.098156005859375,-0.0089555694697424,-0.0076591090515721,0.050899581632018,0.0005099403206259,0.0009957021102309,0.0020547052845358
6.108135009765625,-0.0095187380441464,0.0044406219291035,0.0416179585456848,0.0011013133917003,0.0010315552353858,-0.0015663665253669
6.118114990234375,0.0044350233053788,-0.0073959554702043,0.0522416438907384,2.00701178982e-05,-0.0014891261234879,0.0013316853437572
6.12809521484375,0.0026725619438104,-0.0060510619335807,0.0519435377269983,0.0003537180600687,0.0014660395681858,-0.0021095362026244
6.138074951171875,-0.003086914898362,-0.005439624637505,0.0570247865140438,0.0008389460854232,0.0010489886626601,0.0008995695970952
6.148054931640625,0.0025494470207951,-0.004752044232143,0.0414601376354694,0.0007838155142962,-0.0004281383007764,0.001288361265324
6.1580341796875,0.0018406046316958,-0.0001595105438027,0.0444511361449956,-0.0007965043187141,0.0013649677857756,0.0004143117985222
6.168013916015625,-0.0027497918984852,0.002893355954485,0.0462485409557819,-0.0007466075476258,-1.8114224076e-06,0.0034671407192945
6.177993896484375,-0.010638371457532,-0.0018259641849901,0.0463952559500932,-0.0010952153243124,0.0019063437357544,0.0007706900942139
6.18797412109375,-0.0042674847187474,-0.0024561153146903,0.0423527025610208,0.0014885041164234,-0.0006012292578816,0.001025425735861
6.1979541015625,0.0005331570286303,-0.005125800314825,0.0438455714672803,0.0003103215713053,0.0016755070537328,0.0019713805522769
6.207932861328125,-0.0117487255859188,0.0009019994741771,0.0546153872847557,-0.0011098459362983,0.0020801955834031,0.0006160886841826
6.217913330078125,-0.0013654431343078,-0.0046682110067456,0.0484755693554878,-0.0020137229003012,0.0008117323741316,-0.0005937853711657
6.22789306640625,-0.0027363296287134,-0.0010152779897674,0.0454816482365131,-0.0009140154579654,0.0007918681949377,-0.0001037252077367
6.237873046875,-0.0045167650383897,0.0001747355123981,0.0351601607084274,-0.0001632703351788,-0.0019421335309743,0.0003181194770149
6.247852294921875,-0.0046783488082699,0.000866288839979,0.0462339279085397,-0.003645431715995,-0.0004885075613856,0.0010787500068545
6.25783203125,0.0049904652310535,0.0013362718387506,0.0484802455306053,-0.0004624217399396,0.0008169738575816,-0.0003945106291212
6.26781201171875,-0.0063895001077093,-0.0043643144230358,0.0369610726505517,-0.0003639279748313,-0.0014196438714861,0.0013874303549528
6.2777919921875,-0.0006317585648968,-0.0018274163565598,0.0427986927628517,0.0010083988308906,-0.0008161710575222,-0.0006056793499737
6.287771728515625,-0.0003516812481917,-0.0012715451726224,0.0441425085872411,-5.57942548766e-05,0.0019964091479778,0.0003522452316246
6.2977509765625,0.0043248957281,-0.0064418513494543,0.0544675032466649,-0.000979644828476,-0.0007716799154877,0.0011232304386794
6.307731201171875,0.0019509331383742,0.0012901585415471,0.0496796844482421,-0.0007209294708445,3.99304553866e-05,-1.42243443406e-05
6.3177109375,0.0011720759866759,-0.0046067540099378,0.0341208807885646,-0.0018245433457195,-0.0008325213566422,0.0013266772730275
6.327691162109375,-0.0009896686244755,-0.0013910981653723,0.046839492586255,2.68310541287e-05,0.0005795788019895,-1.22379060485e-05
6.337671142578125,0.0056677434381097,-0.0065427087748888,0.045341947504878,0.0004215114749968,-0.0002156412228941,-0.0012729783775284
6.34764990234375,-0.0024572569590061,-0.0076522317862138,0.0324713600158691,0.0002761738141998,0.0014398172497749,-0.0022421148605644
6.357630126953125,0.007125869824551,0.0026926548837684,0.0430956298828125,-0.0004506028490141,-0.001436929218471,0.0004716461407952
6.367610107421875,-0.0038247276536189,-0.0035471984870266,0.0456400536686182,0.0002101935679093,0.0006408775225281,-0.0003411886282265
6.37758984375,-0.0032752405446954,0.0028296522016637,0.0489344190388917,-0.0004979409277439,-0.0018957834690809,-0.0005608994397334
6.387570068359375,-0.0039832609498873,3.22948344051e-05,0.0413069929003715,0.0010517213959246,4.37945127487e-05,0.0002652990515343
6.39754931640625,-0.0053541474442929,0.0017270521214697,0.0465460625976324,-7.61273549869e-05,-0.0013109557330608,-0.0003227269044145
6.407529052734375,0.0008052885008975,-0.0007471011734101,0.0395177713960409,-0.0026022465899586,-0.0021824641153216,0.0008136894321069
6.417509033203125,-0.0030843941477127,-0.0117198191518429,0.0350292278051376,0.0007189814932644,-0.0011315811425447,-0.00125239090994
6.427489013671875,0.0067947381740435,-0.0104262996094301,0.0351782808870077,0.0010779827134683,-0.0006787097081542,-0.0014582256553694
6.43746923828125,0.0055980574690736,-0.0030697811004705,0.0474479798734188,-0.0001225703745149,-0.0016169408336281,-0.0008611449738964
6.447447998046875,-0.0004802943302318,-0.0011980598113033,0.0447550875276327,0.0008611880475655,0.0003619799390435,-0.001964340917766
6.457427978515625,0.006570665360894,-0.0073253196530975,0.0350292278051376,-0.0002786449040286,-0.0008148709312081,-0.0006274339975789
6.467407958984375,0.00189470943911,0.0036486130348872,0.0472977577477693,0.0005093534709885,-0.0002714917063713,-0.0024905961472541
6.47738818359375,0.0024931685226038,0.0010819956835824,0.0407107805728912,0.0002270584227517,0.0009839218109846,0.0023683412000536
6.4873681640625,0.0005445186728611,-0.0035977139647118,0.0505839398115873,0.0002312917495146,-0.0004894938319921,-0.001677585649304
6.49734716796875,-0.0009012779549695,0.0013252207217738,0.0553723431318998,-0.0002243751077912,-0.000267120078206,-0.0012538767186924
6.5073271484375,-0.0101630820959806,-0.0009229600638151,0.0466933621138334,-0.0007762823952361,0.0009048273786902,-0.0007363993208855
6.51730712890625,-0.0059731926580891,0.0065245429305359,0.0402612832397222,-0.0006391296046786,-0.0006451327353715,-0.0013246915768831
6.527286865234375,-0.0003347666460089,0.0147361530320253,0.0348731604605913,-0.0024473527446389,-9.43597406148e-05,-0.0013496837345883
6.537266845703125,-0.0074167425299063,-0.0011183091059792,0.043102059623599,-0.0005370673607103,0.0010745013132691,8.49610878503e-05
6.54724609375,-0.0004397613904438,0.0029881032995413,0.0448959573030471,-0.0016522378427907,0.0005219522863626,0.0013558657374233
6.557225830078125,-0.0036288580216467,-0.0023332013210747,0.0332224706441164,-0.0002412951434962,0.0001914538443088,0.0011561287101358
6.5672060546875,-0.0021027626992203,-0.0050643615843262,0.0471364297062158,-0.0016258693067356,0.0010705729946494,0.0003313801134936
6.577186279296875,-0.0065706288282759,0.0030051457658875,0.049381578284502,0.0006391492206603,-0.0017992500215768,0.0011516336817294
6.587165283203125,-0.0117974966310895,0.0069952839811332,0.0480342553287744,0.0003207683330401,0.0015147039666771,-0.0006884929607622
6.59714453125,0.001494768602401,0.0027922884664963,0.0390554145812988,0.0017442280659452,-0.0010038474574685,-0.0006962161278352
6.60712451171875,0.0006994169736281,-0.0074912599376868,0.0489332499951124,-0.00022809416987,0.0003615505993366,6.21723156655e-05
6.6171044921875,-0.0061042716918513,-0.0047719088432379,0.0426467170715332,0.0002994780661538,0.0013176249340176,0.0034060373436659
6.62708447265625,-0.0122980665643699,0.0022302615364082,0.0415986693233251,-0.0036914879456162,-0.000389982946217,-0.0007489621057175
6.637063720703125,-0.0066033255214802,0.0020160799296107,0.0412999786376953,0.000926167005673,0.0020377542823553,0.0013538699131458
6.64704345703125,-0.0031910328599624,-0.0054774632967077,0.0405512060970068,-0.0002267423551529,-0.0016683293506503,-0.0002233195700682
6.6570234375,-0.0024045038584619,0.0031251554163638,0.045489247021079,0.0021029911004006,-0.000617180019617,0.0002065146400127
6.66700341796875,-0.0047231377980671,-0.0037995475465897,0.0345662864685058,-0.000586926122196,-0.0004717763513326,0.0010571075836196
6.6769833984375,-0.0070391413891687,0.0073617792059667,0.0396563030838966,-0.0010782793397083,0.0004283720627427,0.0017519262619316
6.68696240234375,-0.0002863243944011,0.0028494894132949,0.0523760839253664,-0.0025001293979585,0.0021372893825173,0.0002824833791237
6.6969423828125,0.0009202018511481,-0.0062257426470518,0.0438449869453907,-0.0010766696650534,0.0007628323510289,0.001038821064867
6.70692236328125,-0.0029910715747624,0.0045996940814889,0.0377104297131299,-0.0012658616760745,-0.0003700219094753,-0.0014367594849318
6.716902587890625,0.0047886955812573,-0.0052873292857781,0.043396658656001,-0.0012903626775369,0.0016209576278924,-0.0020575423259288
6.726882568359375,-0.0093873484831303,0.0050515934342984,0.0404009839713573,-0.0006519778398796,5.0688162446e-05,-0.0016503221122547
6.736861328125,0.0004878200495615,0.0020940222703386,0.0381546663492918,0.0008742797654122,0.001751116476953,0.0014549236511811
6.746841552734375,-0.0071033657317981,-0.0040325799843296,0.0444382766634225,0.0003616972826421,7.19716772437e-05,-0.0001693932717898
6.756821533203125,-0.0050135721120052,0.0083885558372829,0.0411497565120458,0.0025574734900146,-0.0019560251384973,-0.00043783991714
6.76680126953125,-0.0061062809858471,0.0015346074224449,0.0417500604927539,-0.0013821073807775,-0.0003390684723854,-0.0007808393565937
6.77678125,-0.004940031951759,-0.0012695541449356,0.0469879611462354,6.82502286508e-05,0.000521931797266,-0.0012546158395707
6.786760498046875,0.0021251389278098,-0.0094758396173361,0.054321957296133,-0.0012772139161825,-0.0012185247614979,0.0009521695319563
6.796740478515625,-0.0003254690947011,0.0025286234284751,0.044150107371807,0.0010543835815042,0.0010944306850433,0.0001449654373573
6.806720458984375,0.0007276566874235,0.0021821754778269,0.0441506918936967,-3.47181921824e-05,0.0009191017597913,-0.0008394983015023
6.81670068359375,-0.0053452152191661,-0.005347973431833,0.0345674555122852,-0.0004576281644403,0.0032496340572834,0.0002848883159458
6.826680419921875,-0.0004214950813911,-0.0093799414948094,0.0354617740035057,0.0005075617227703,0.0006268173456192,-0.0001759662409313
6.836659423828125,0.0036677287273108,-0.0015150807380676,0.0483288543611764,-0.0001246727188117,0.0019245762377977,0.0005707840900868
6.846639404296875,-0.0090412567255087,0.0005037482710555,0.0400982016324996,2.9880320653e-06,-0.0008189119398593,0.0019054258009418
6.856619384765625,-0.0111001802830025,-0.0018292429874651,0.03964987334311,-0.001470272662118,-0.0015187906101346,-0.0011971567291766
6.866599365234375,-0.009671097327955,-0.0077571991311851,0.0435398665189743,-0.0025927699171006,0.000525782816112,-0.0022279496770352
6.87657958984375,0.0025054617485962,-0.0034302393101621,0.0348620545446872,-0.0004752904642373,0.0017947787418961,-0.0019075714517384
6.88655859375,-0.0005976005669683,-0.0076668904992286,0.0495247861474752,0.0002683374332264,0.0001964503899216,0.0002989233180414
6.89653857421875,-0.0063634706173092,-0.0025794403002597,0.0474281061291694,0.0002417057985439,0.0008063148707151,0.00036470341729
6.9065185546875,-0.0012000965047627,0.0001463405349757,0.0474257680416107,-0.0002499531838111,0.0025391662493348,-0.0019609124865382
6.916498291015625,-0.0079121796303428,-0.0020621475610416,0.034855040282011,-0.0002821774105541,0.0018259724602103,-0.0001784588384907
6.926478515625,-0.0005571224261075,0.001498759790929,0.0421861138224601,-0.0027003227733075,0.0016133654862642,0.0002937195531558
6.93645751953125,-0.005186097401008,-0.0061102173754479,0.0478705891996622,-0.0005327760009095,0.0002543544396758,0.0014969357289373
6.946437255859375,0.0069417088966816,-0.0013399707663338,0.0534077650606632,4.88009536638e-05,-0.0010695923119783,0.0007668018806725
6.95641748046875,0.0008571648186072,-0.005271538061602,0.0492190811991691,-0.0009754508500918,0.0010606702417135,-1.5201367205e-06
6.966397705078125,0.0077923526429571,-0.011753986282926,0.0409872594267129,-0.0023497212678194,0.0016834288835525,0.0003806476015597
6.97637646484375,0.0003179981742985,-0.0017924089752603,0.0540068999975919,0.0004402061458677,-2.9781833291e-05,-0.0006175051676109
6.9863564453125,-0.0092311167418025,-0.0020545122438576,0.0543061752051115,0.0003724721027538,-0.0003986349329352,0.0005180076695978
6.996336669921875,-0.006723864894919,-0.0024344332058448,0.0534083495825529,-0.0018174452707171,0.0007220236584544,0.0006759330863133
7.00631640625,-0.0027755839268676,-0.0114925954003818,0.0415846407979726,0.0010657125385478,0.0008707419037818,-0.0005533051444217
7.01629638671875,-0.0084812482225708,-0.007942045045644,0.0436789827287197,0.000130410422571,0.0009972425177693,0.0014235593844205
7.026275634765625,-0.012242317789141,0.0011954203296452,0.0474199228227138,0.0011988540645688,-0.0010601114481687,0.0006329863099381
7.03625537109375,-0.0003777472712099,-0.0067607902386691,0.0391857629626989,0.0002843244001269,0.0005047619342803,-0.0003081748145632
7.0462353515625,-0.0046192938311025,-0.0010383209386374,0.0483089806169271,-0.0001760305603966,0.0027904547750949,0.000865057343617
7.056215576171875,0.0051179640682414,0.0014932524987496,0.0400759898006916,0.0005081355338916,-0.0011366419494152,0.0017039531376212
7.0661953125,-0.0054814453520812,-0.0065372014827094,0.0492073907613754,-0.001283468096517,-0.0023720106109976,0.0021327433641999
7.076174560546875,-0.0085763791601173,-0.0029311763473786,0.0538467409998178,0.0010894084116443,0.0002312297001481,0.0011228724615648
7.086154541015625,-0.0027643501468002,0.0030710140763316,0.0510047955721616,-0.0014699071180075,0.0021675676107406,-0.0002815039188135
7.09613427734375,-0.0082314016473479,-0.0034631277996115,0.0474111549943685,0.0025943429209291,0.0009297309443354,0.0011635272530838
7.106114501953125,-0.0077481481750495,-0.0031505364527925,0.0435194082528352,-0.000950485758949,8.06525349617e-05,-0.0001582884142408
7.116094482421875,-0.0052394350234419,0.0039445637741591,0.0436713839441537,0.0007507415721192,0.0001336494460701,-0.0003598897019401
7.1260732421875,-0.0058568545357324,-0.0039736802707891,0.0471107107430696,0.0030569490045309,-0.0008232295513153,-0.000228584423894
7.136053466796875,-0.0018625242025591,-0.0063039955150336,0.0384334832906723,-0.0007234082440845,-0.0031521636992692,0.0007954010507091
7.14603369140625,0.0067241388895548,-0.0084479944069404,0.0408294385164976,-0.0012197970645502,0.0001661898568272,-0.0008761187200434
7.156013427734375,-0.0059346142133697,-0.0044500747440382,0.0535503884017467,-0.0003116590669378,-0.0007046638056635,0.0010088665876537
7.165993408203125,0.0001354629479348,0.0041705636829137,0.0547451511442661,-0.0008193227695301,0.0021380875259637,-0.0012058950960636
7.17597265625,-0.001521821006108,-0.0016650106027722,0.048609424868226,-0.0007295742398127,-0.0005767382681369,-0.0015161533374339
7.185952392578125,-0.010231489423383,0.0029885051583405,0.0517547371566295,0.0002310166601091,-0.003048182465136,0.0017152599757537
7.195932373046875,0.0003883599967695,-0.0068267864132765,0.0405325013965368,0.0012709810398519,0.002071744762361,0.0007722347509115
7.205912353515625,-0.0087677187474444,-0.0054266007591504,0.0420277083903551,0.0027749331202358,-2.09612771868e-05,-0.0010461843339726
7.215892333984375,-0.0089571221060119,-0.0034519488184712,0.0510065491378307,0.0015008768532425,-0.0006097862496972,-0.0016813483089208
7.225871337890625,-0.0061130212538875,-0.0060337454725988,0.0469651647925376,-0.0010543778771534,-0.0009880149737,-0.0022064191289246
7.2358515625,-0.0022604740115813,0.0081945676351431,0.0370879139006137,0.0012431311188265,0.000330782495439,-0.0007502026273868
7.24583154296875,-0.0073511664804071,0.001673787564272,0.0397808062463998,0.0006825203308835,-0.001212116330862,0.0035746581852436
7.2558115234375,-0.0043908371037803,-0.0096299342005047,0.0478629904150962,-0.0003028492792509,-0.0014709755778312,0.0014411997981369
7.265790283203125,-0.0033086678902618,-0.0065310640028677,0.0460690927356481,0.0018275985494256,0.0022433856502175,-0.002496130997315
7.2757705078125,-0.0075936882656998,0.0012035853697918,0.0544452914148569,-0.0001199711114168,0.003210911527276,-0.0018367322627454
7.28575048828125,0.0007292823889292,-0.0025138551176059,0.0420242012590169,-0.001409072894603,-6.44223764538e-05,1.52635911945e-05
7.29573046875,-0.0078464939829893,-0.0008301215480547,0.0435205772966146,-0.0024945773184299,0.0023579886183142,-0.0011996704852208
7.305710205078125,-0.0003417626423761,-0.0026658764746971,0.0366349094361066,-0.0002689936081878,0.002483214251697,0.0023360513150691
7.315689453125,-0.0066643532600253,-0.0016555029889103,0.0521966357052326,0.0005219652084633,-0.0001511853188276,-0.0012365792645141
7.325669677734375,-0.0010349142719991,-0.0013773162351921,0.0551917258679866,-0.0007634374778717,0.0006736172363162,-0.0011539852712303
7.3356494140625,-0.0006831964911893,-0.0071698368304409,0.0454623590141534,0.0034443570766597,0.0004240786656737,0.0013611040776595
7.34562939453125,-0.0136379003333859,-0.0063815451301168,0.0435135630339384,6.45664986222e-05,0.000896637327969,-0.0003125933289993
7.355609619140625,-0.0077927179691381,-0.0124203229708597,0.0442611665308475,0.0007500641513615,-0.0006977971643209,-0.0004010102711617
7.36558837890625,0.0009393814756534,0.0007151990646496,0.0572808071017265,-0.0005725750233978,-2.15424224734e-05,-0.0006431859219446
7.375568359375,-0.0026954861616715,-0.0040601438446901,0.0515951626807451,0.0006823064759373,0.0018903408199548,-0.001313237240538
7.385548583984375,-0.0087877934210933,0.0025092154751066,0.0342366161227226,-0.0022736981045454,0.0001123091205954,-0.0003429581411182
7.3955283203125,-0.0031549934322014,-0.0034105482290033,0.0456084894865751,0.0013948061969131,-0.0002243146300315,-0.0016628208104521
7.405508544921875,-0.0126227319414727,-0.0037066998976748,0.0493488450586795,-0.0004969612928107,-0.0015475628897547,-0.0001726146874716
7.41548779296875,-0.0020246376954019,-0.0008022745599038,0.0456079049646854,-0.0003693958860822,0.0008554076775908,-0.0005156298284418
7.425467529296875,-0.0036404205952771,0.003033887803182,0.0441080217957496,0.0004746448248624,0.001311058178544,0.0004626229638233
7.435447509765625,-0.0024309717402793,0.0011917579346802,0.0325865108281374,-0.0003765014698728,-0.0001257173717021,-0.0004029043775517
7.445427490234375,-0.0082932696361094,0.0017352445610798,0.0421633174687623,0.0002999833086505,0.0027003251016139,0.000531205558218
7.4554072265625,-0.0075161660500802,0.0040669206453487,0.0463531703740358,-0.000605757755693,-0.0003087809309363,-0.0001929079153342
7.465386474609375,-0.0038316688510589,0.0013122333760373,0.0438087465882301,-0.0012294319458305,0.0016392637044191,0.0009372103377245
7.475366455078125,-0.0032790034043602,-0.001770836464269,0.0436591089844703,0.0005255911964923,0.000613946467638,0.000892469251994
7.48534619140625,-0.0105255587328225,-0.0018000534255988,0.0357271469414234,-1.56335299834e-05,-0.0002475744113326,-0.0003721089160535
7.49532666015625,-0.0079560735709965,0.0050342678401619,0.0447048186451196,0.0008783896919339,0.0008781440556049,0.0018348527373746
7.505305419921875,-0.0059233986996114,0.000827819993114,0.0532312394499778,0.004315061494708,-0.0008566053584218,0.0009761780383996
7.515285400390625,-0.0079148830440826,-0.0063807779451366,0.0406628497779369,-0.0002485312288627,-0.0023772707208991,6.83064426993e-05
7.525265625,-0.0063317968374118,0.0026235169040039,0.0393190339535474,-0.0018866839818656,-0.0005037309601902,0.0002067652822006
7.53524560546875,0.0052128940763883,0.0051662145236041,0.0439566306263208,0.0020835567265748,0.0020792689174413,-0.0014364051166921
7.545225341796875,-0.0057999184504151,-0.0076328694986179,0.0418622886955738,-0.0009597233729436,-0.0006508762016892,0.00065326213371
7.55520458984375,-0.0077360010795295,-0.001938037124183,0.0442570748776197,0.0011188738280907,-0.0023427819833159,-0.0010040230117738
7.565184326171875,-0.0105826409486122,-0.0010040533428546,0.0430623121351003,-0.0040620537474751,0.0018350165337324,-0.0007687619654461
7.575164306640625,0.0014808496749028,-0.0029123072501271,0.0491974538892507,0.0004541346570476,0.0005756076425313,-0.0005250826943665
7.58514501953125,-0.0054386656562797,-0.0008435655515175,0.0478489618897438,-0.0005632962565869,-0.0002172095701098,0.00089684658451
7.595125,-0.0085566698126494,-0.0020712624492589,0.0450064319401979,-0.001808856613934,0.0015716357156634,-0.0009481913875788
7.60510400390625,-0.0037462555899284,0.0021779285609722,0.0415665206193923,0.0007733965758234,0.0014689499512314,0.0006778508541174
7.615083984375,0.00029772257125,-0.0015882464389782,0.0476987397640943,-0.0004396733129397,0.001948052085936,-0.0005533284856937
7.62506396484375,-0.0069398639994673,-0.0049786103964783,0.0469487981796264,-0.0004154075286351,-0.0010383129119873,-0.0015332958428189
7.635043701171875,0.0020141163013875,-0.0032536223679315,0.0479980149716138,0.0010597173823043,0.0005246959626674,7.33892811695e-05
7.64502392578125,-0.0072726944167166,-0.004854609557474,0.0424637617200613,-0.0021232897415757,-0.0004495996981859,-0.0011691919062286
7.6550029296875,-0.005223196274694,-0.0071380808521527,0.0550327359139919,-0.0013810667442157,-0.0007574604824185,0.000373044720618
7.66498291015625,0.0012318068172782,-0.0023303152442444,0.0433662635177373,0.0024979661684483,-0.0021094856783747,0.0021869870834052
7.674963134765625,-0.0066849759229458,0.0042753848974127,0.0496510428756475,-8.98274593055e-05,0.00077152159065,0.0003227742854505
7.684943115234375,-0.0022323986945673,0.0063877282757312,0.0483031353980302,0.0014820570359006,0.0005550598725676,-0.0010899115586653
7.6949228515625,-0.0103516817369498,-0.0041093715475872,0.0438134227633476,-0.0001166384899988,0.0018195286393165,-0.0010997653007507
7.704902099609375,-0.014916103575658,0.0051559853905346,0.0456073204427957,-0.0014649903168901,7.36368820071e-05,-0.000880237610545
7.714882080078125,-0.0017486885645426,0.0050827100917696,0.0397726229399442,-0.0010261012939736,0.0009178593754768,-0.0002208389341831
7.72486181640625,-0.008485486006271,-0.0039567200028337,0.0503922166317701,0.0002189996885135,7.93458893895e-05,-0.0007045293459668
7.734841796875,-0.004610105877649,-0.0040217389299068,0.0444072970032691,-0.0009538564481772,0.0001840079203248,0.000537036336027
7.744822021484375,-0.0045837475936859,-0.0039821649713441,0.0420101727336645,4.16833208873e-05,0.0040417285636067,-0.0006560997571796
7.754801025390625,-0.0100527718556113,-0.0036075321058277,0.0485913046896457,-0.0016797840362414,0.0006611123681068,-0.0011583719169721
7.764781005859375,-0.0111164190317504,-0.0015737338564358,0.0397615170240402,-0.0019803196191787,0.000233706086874,-0.0020187732297927
7.774760986328125,0.003117090840917,0.0030375227986834,0.0456008907020092,-0.0018037520349025,-0.0024534231051802,0.0008904639398679
7.784740966796875,-0.003024553719256,-0.0069214058941695,0.045604982355237,0.0012747526634484,0.0001469058915972,-0.000370044610463
7.794719970703125,-0.0030586751845665,0.0014961111761163,0.0366273106515407,0.0011810092255473,0.0015844805166125,0.00036552050733
7.804699951171875,-0.0005156396382488,0.0031895350226201,0.0370721318095922,0.0004909732379019,0.0013617658987641,0.0003294939815532
7.814679931640625,-0.005401329320576,0.0041157099568285,0.0427612833619117,-0.0005910691106691,-0.0003557065501809,0.0005595911061391
7.824659912109375,0.0049877435510046,0.0038876094225328,0.0345329687207937,-0.0004456406459212,-2.65957787632e-05,0.0016219238750636
7.83464013671875,-0.0041452100459486,-0.00125963553912,0.0523404280900955,-0.0001103486865758,0.0001758048310875,0.0018176659941673
7.844618896484375,-0.0041143947825767,-0.0074168703940697,0.0487502946436405,7.09524611011e-05,0.0002411641180515,0.0023747480008751
7.85459912109375,-0.0088020776747725,-0.0034672285859938,0.0343845001608133,-0.0009245371329598,-5.63105568289e-05,0.0007757860003039
7.8645791015625,-0.0085151687584817,-0.0025193715429399,0.0384258845061063,-0.0005723277572542,0.0003232937306165,2.73379264399e-05
7.874558837890625,-0.0033474655306898,-0.0007382694129832,0.040519057393074,-0.0026216302067041,-0.0014517027884721,-9.4102222647e-05
7.884538818359375,-0.0041704906176775,0.0020895835572388,0.0406704485625028,0.0001860983902588,-0.0001942394301295,0.0001807677035685
7.89451806640625,-0.0074936071584001,-0.0077009297661483,0.0493529367119073,-0.0024496321566402,-9.83653590083e-05,-0.0017252566758543
7.904497802734375,0.0024412191396579,-0.0044120716880541,0.0439689055860042,-0.0028066518716514,0.0007313592359423,-0.0003757691010832
7.914477783203125,-0.0032478228148072,0.000140741911251,0.0465104067623615,-0.0005528187029995,0.0028176801279187,-0.0014689967501908
7.924458251953125,-0.0093226309501566,0.0003309215879533,0.0475602080762386,-0.0015685110120102,-0.0016676001250743,0.0013622967526316
7.93443798828125,-0.0154228475213982,-0.0088807872004806,0.0445721321761608,0.0005889157764613,-0.0018689353018999,-0.0009184343507513
7.9444169921875,-0.0109768278979696,-0.0039928324958309,0.0345493353337049,0.0025074880104511,0.0024563940241932,-0.0010276066605001
7.95439697265625,-0.0029984876962378,-0.0073436590273864,0.0486135165214538,-0.0001657930552028,8.48490744829e-05,0.0014051909092813
7.964376953125,-0.0035557197201997,-0.0078319722672924,0.0414309115409851,0.00037462846376,-0.0013945158571004,0.0013301708968356
7.97435693359375,-0.003890961290244,0.0023409371029585,0.0370937591195106,0.0006824898300692,-0.0007532266899943,-0.0004261837457306
7.984335693359375,-0.006679843090102,-0.0020658099560067,0.0508574960559606,0.0009223748929798,0.0007891599088907,-0.0016286224126815
7.99431591796875,0.0007968859987333,-0.006320800519362,0.0517541526347398,0.0005513965152204,-5.29317185282e-05,-0.0012392682256177
8.0042958984375,-0.0052848085351288,-0.0080527480116579,0.0525029251754283,0.0019311988726258,-0.0012562880292534,0.0014952132478356
8.014276123046875,-0.0031499336645938,-0.0068553914532531,0.0429272875785827,-0.0014155956450849,-0.0005899649113416,0.0013231729390099
8.024255859375,-2.58650936186e-05,-0.0096686039767693,0.0403875399678945,-0.0027189566753804,-0.0009619761258363,0.0008069449104368
8.034235107421875,-0.0034358927328139,-0.0017667448110412,0.0457756627470254,-0.0006219836068339,0.0009128889068961,0.0001286377664655
8.044215087890626,-0.0052200179369188,-0.000407576153893,0.0490676900297403,-0.0002054775250144,0.0012102760374546,-0.0005374266183935
8.05419482421875,-0.0063866140308789,0.0012156228674575,0.0451730206787586,0.0009940102463588,0.0022174827754497,0.0001707079354673
8.064175048828124,-0.0010125380434095,0.0005380432663019,0.0447229388236999,0.0007434119470417,-0.0008741552010178,0.0002306115929968
8.074155029296875,-0.0040767113870009,0.0060172509955242,0.0533995817542076,0.0032340004108846,0.0017029857262969,-0.0011680806055665
8.0841337890625,-0.0158287979737855,0.0008047131121624,0.0454670351892709,0.0005100517300888,-0.0001777037978172,-0.0004823747440241
8.09411376953125,-0.005098090323992,-0.0005968425151426,0.0290080678194761,0.0014666592469438,0.0015381705015897,8.88733047759e-05
8.10409423828125,-0.0016268705494701,-0.0085727441646158,0.0442687653154134,-0.0007082039373926,0.0014254543930292,-0.0015752861509099
8.114073974609376,-0.0041779980706982,-0.0035859047959093,0.0542956538110971,0.0003943447954952,0.0008805710822343,-2.1568848751e-06
8.124053955078125,0.0034627624734304,-0.0079247742504347,0.0526496401697397,0.0009391125058755,0.0003057029098272,6.28278939984e-05
8.134033203125,-0.0035917956805787,-0.0070393240522593,0.0481622656226158,0.0017883946420624,-0.0032078055664896,-0.0008506363374181
8.144012939453125,-0.0019035685990005,-0.0030484095188789,0.0444207410067319,-0.0001665257732383,-0.0009662937372922,-0.0011598363053053
8.153992919921874,0.0004797646072693,-0.0012667593996506,0.0486105939120054,0.0003874116810038,0.0016494635492563,0.0002825317787937
8.163972900390625,-0.0057307987369596,-0.0060643689397256,0.0408300230383872,0.0002962604630738,0.0002501290291547,-0.0008570833597332
8.173952880859375,-0.0128891095263883,-0.0049790487878955,0.0321475348889827,-0.001761297811754,0.0017574783414602,-0.0021497816778719
8.183931884765625,0.0027283472516573,-0.0027845709509216,0.0459130253911018,-0.0029309061355888,0.0014664148911833,-0.0003077244618907
8.193912109375,-0.0011801496952772,-0.0074431099470239,0.0539928714722394,0.0003865936305373,-0.0005224337801337,0.0006472851382568
8.203891845703126,-0.002541428111121,-0.0033718236538115,0.0408276849508285,-0.0007735822582617,-0.0012890817597508,0.0004895931342616
8.2138720703125,-0.008423782414291,-0.0028658560262061,0.0397831443339586,-0.0011291141854599,-0.000205441378057,0.0009146336233243
8.223850830078124,-0.0064437875782139,-0.0003608874679543,0.0429237804472446,0.0003418400883674,0.0010063620284199,-0.0021391077898442
8.233830810546875,-0.0045028461108915,-0.002770332363015,0.0453162285417318,-0.0005082409479655,0.0006404435262084,-0.0002021909167524
8.24381103515625,-0.0013456972542218,0.002211657300638,0.0345452436804771,0.0012879319256171,0.0013220207765698,0.0010185894789174
8.253791015625,0.004322100982815,0.0029373594929929,0.0444230790942907,-0.0005216859281063,0.0006903186440467,0.000311786570819
8.263770751953125,-0.006739427790232,-0.0059803804507013,0.0432271473079919,0.000852778321132,-0.000400835648179,6.79319637129e-05
8.27375,-0.0110725616237148,-0.0051220739877782,0.0385872125476598,0.001899134251289,-0.0008714161813259,0.0009987067896872
8.283730224609375,-0.0100386337324045,-0.004259027417656,0.0357458516418933,0.0007837730227038,0.0003401162102818,-0.0013208320597186
8.2937099609375,-0.007954192141164,-0.0033008499099873,0.0409837522953748,-0.0013922958169132,0.0003273328766226,-0.0002707475796341
8.30368994140625,-0.0024380956008099,-0.0103683223444968,0.0406879842191934,-0.0005032849730923,-0.0011521205306053,0.0003608966071624
8.313669921875,-0.0074718337180092,0.0044371239309199,0.039940965244174,0.0032248743809759,-0.0016144458204507,0.0008969909977167
8.32364892578125,-0.0068614102020859,-0.007649007782666,0.043083354923129,-0.0019130753353238,0.0020316941663622,-0.001550882239826
8.33362890625,-0.0105575613062828,-0.0026235991023946,0.0415852253198623,-1.95677857846e-05,0.000447379425168,0.0010038882028311
8.34360888671875,-0.0016475114786997,-0.0015087697282899,0.0445756393074989,-0.0001287191407755,0.0012782728299498,-0.0008351736469194
8.3535888671875,-0.002092606631387,-0.001088251894433,0.0418856695711612,-0.0015399281401187,-0.0017571980133652,-0.0009779190877452
8.363569091796874,-0.0008200294123031,-0.0023152546724304,0.0454758030176162,-0.0008656354038976,-0.0001188237220048,4.7471927246e-05
8.3735478515625,-0.0018488427370786,0.0054353411880321,0.0406879842191934,0.0017503877170383,0.0017906622961163,0.0014131409116089
8.383528076171874,-0.0082943656146526,0.0039531306731048,0.0528086301237344,-0.0010724499588832,-0.0007483372464776,0.0022367504425346
8.393508056640625,-0.0033805275500752,-0.0099156192740891,0.0523632244437932,-0.000625571468845,0.0015502367168664,-0.0005486496957018
8.403488037109375,-0.0039172465089708,-0.0116969132002908,0.0475730675578117,-0.0006034234538674,0.0021542338654398,-0.0011987794423475
8.413467041015625,-0.0004054024631157,-0.0051118448547087,0.046673488369584,-0.0001608060556463,0.0012125400826334,0.0014561258722096
8.423447021484375,-0.0060985908697359,-0.006435321143968,0.0397895740747451,-0.0004975342308171,-0.0006405087187886,-0.0016401754692196
8.433427001953126,-0.0152172967456281,-0.005719144831784,0.0436807362943887,-0.0012099298182874,0.0009451378136873,-0.0018194061703979
8.44340673828125,-0.0063850796609185,-0.0049666276977397,0.0438321274638175,6.5360218286e-06,-0.0019918205216526,-0.0006019306019879
8.453386962890624,-0.0012891812940128,-0.0004251392100472,0.0427840797156095,0.0012446397449821,0.0001221969723701,-0.0013492135331034
8.463365966796875,0.0006940101461485,-0.0026732469303999,0.0492190811991691,4.71542589366e-05,-0.0013538496568799,-0.0013966140104457
8.473345947265624,0.0002229585682973,-0.0023855799622833,0.0382955361247062,-0.0001629691687412,-0.0003378530964255,0.0005837125354446
8.483325927734375,-0.0043886816793121,-0.0094369963111355,0.043982349589467,-0.0015022562583908,0.0011109458282589,-0.0002155943075194
8.49330615234375,-0.0041831674361601,-0.003940536053013,0.0412923798531293,-0.0032580783590674,0.0004086699336767,0.0009631208376958
8.503285888671876,-0.0087516991944052,-0.0092223397803027,0.0360568172872066,0.000933559378609,-0.0021435851231217,0.0010593552142381
8.513264892578125,-0.0074454389014281,-0.0081816624877974,0.0251356103003025,-0.0004129348089918,0.0006146505475044,-0.0008546586614102
8.523244873046876,-0.0037027087091468,-0.0085944902055431,0.044588498789072,-0.0001015407033264,-0.0006084246560931,-0.0007614825153723
8.533224853515625,-0.0036540472618304,-0.0063243350501637,0.0432423448771238,0.001463332795538,-0.0022273603826761,-0.0018243500962853
8.543205078125,-0.0015711035079322,0.0003626684330869,0.0357639718204736,-0.0005187932983972,-0.0004222188144922,-0.0016085088718682
8.55318505859375,0.0029252215306274,-0.0059481860809959,0.0416015919327735,9.0452376753e-06,0.0007969764992594,0.001497003249824
8.5631640625,-0.0042133251124061,-0.0063226088839583,0.0463870726436376,0.0009866346372291,0.0003942716866731,-1.95592510863e-05
8.57314404296875,0.0005397876988165,-0.0032008510010782,0.0544651651591062,0.0012324444251134,0.0005716383457183,0.0008896439103409
8.583123291015625,-0.0079715268684551,-0.0027904709687456,0.0466834252417087,0.0020469273440539,7.78259709477e-05,-0.0010996318887919
8.593103515625,-0.0037930904063396,-0.0090165698088239,0.0508726936250925,0.0010865913936868,0.0012970203533768,-0.0001105338596971
8.60308251953125,0.006877740282379,-0.0051488158642314,0.0427899249345064,0.0003725982969626,0.0004397192969918,0.0008489217143505
8.613062255859376,3.69162105955e-05,0.0077540755923371,0.0406973365694284,-0.0022151954472064,-0.0003030365332961,-0.0008773392182774
8.62304248046875,-0.0061940506008453,0.0003853825883939,0.047279637569189,-0.002775925444439,0.0038764718919992,-0.001132303266786
8.633022705078124,0.0024141850022599,-0.0050253538813441,0.0300748202681541,0.000112805282697,-0.0015883343294262,0.0010189983295276
8.64300244140625,0.0049364700214937,0.0025406974587589,0.0481809703230857,0.0016196540091186,0.0007086768746376,0.0023878505453467
8.652982421875,-0.011857592787873,-0.0009911025297362,0.0555149664729833,-0.0003617378533817,-0.0011504758149385,-0.0006281795212998
8.66296240234375,-0.0097915088372305,-0.0010628434585407,0.0448912811279296,-0.0019525471143424,0.0035979934036731,-0.0003969424287788
8.67294140625,0.0008357384380884,-0.0113592422111425,0.042044659525156,-0.0015381592093035,0.0006541348993778,-0.0010661948472261
8.68292138671875,-0.0096901125556789,0.0010475910904817,0.0489268202543258,-0.0012249555438756,0.0007228096947073,-0.0015707327984273
8.6929013671875,-0.0073723736652173,-0.0023230269869323,0.0429401470601558,0.0003902516327798,0.0019097812473773,0.0005440834211185
8.702881591796874,0.0002449877370148,-0.0099128153956495,0.0412935488969087,-0.0013812880497425,-0.0002243313938379,-0.0003185985842719
8.712861572265625,-0.0104469588049687,0.0021125169082544,0.0393476755261421,-0.0019203118281438,0.0014984672889113,-6.7995104473e-05
8.722840576171874,-0.0121357521421276,-0.0074955342540051,0.0442822093188762,0.0019229929894208,0.0022164620459079,0.0002775512984953
8.7328203125,-0.0071755176525563,-0.000707207554439,0.0448772526025772,0.0019309823401272,0.0018036728724837,-0.0012428472982719
8.742800537109375,-0.0073214654618874,-0.003381860990636,0.0438262822449207,-0.0015580642502754,-0.0011231116950511,-0.0008686354849487
8.752780517578126,-0.0052120720924809,0.0010506780967116,0.0471194785714149,-0.0013759040739387,-0.0002788892015814,0.0010131540475413
8.762760498046875,-0.0005641549550928,-0.0032515308755449,0.0399380426347255,-0.0011374932946637,0.0005987165495753,0.0007216019439511
8.772739501953126,-0.0053380913586355,-0.0009308237098623,0.0483189174890518,-0.0015747842844575,0.0005987165495753,-0.00156259117648
8.782719482421875,-0.0081445088151842,-0.0113129645171575,0.0450280592501163,-0.0016176684293895,0.0013422342017292,-0.0008641824824735
8.79269921875,-0.0151114617509767,-0.0054047542535234,0.0430851084887981,-0.0011894321069121,-0.0020234687253832,0.002075947355479
8.802679443359375,0.0011890819204039,-0.0098636972906067,0.0403945542305707,0.0016095933970063,-0.0018986091017723,0.0013128763530403
8.81265966796875,-0.0075916241727769,0.0015625366089865,0.0490735352486371,0.0008263577474281,0.000546439550817,0.0005695880390703
8.822638427734375,-0.0061918221111409,-0.0045003710260149,0.0562538021415472,-0.0003116989391855,-0.0005219541490077,-0.0010516969487071
8.832618408203125,-0.0071581281263381,-0.007363952896744,0.0463759667277336,-0.0006107719382271,0.0018573133274912,-4.2756728362e-06
8.842598388671876,-0.0061030113165266,-0.0028642485910095,0.0388940865397453,-0.0016931317513808,0.0018568253144621,0.0005754084559157
8.85257861328125,-0.0087840488277375,0.0014906495497096,0.045927638438344,0.0009945303900167,0.001003548502922,-0.0011639019940048
8.862557373046876,-0.0071676448733545,-0.0070264737038407,0.0366489379614591,-0.0014165967004373,-0.0022630421444773,0.0011374846799299
8.872537353515625,-0.0003364471464417,0.0051416737373918,0.0414390948474407,0.0030015874654054,0.0010408759117126,-0.0014274057466536
8.882517333984374,-0.0102551077609881,0.0006668938103597,0.0480254875004291,0.0002402403624728,-0.0023654354736208,0.0009943796321749
8.89249755859375,-0.0018134060975164,-0.0032495398478582,0.0406949984818696,-0.0011259611928835,-0.0004825806245207,-0.0020032743923366
8.9024775390625,-0.0044427682204172,-0.0120489963072817,0.0387520477205514,0.0015062419697642,-0.0011578919366002,-0.0028066877275705
8.91245654296875,-0.0051671187059022,-0.0106112277222797,0.0306716171175241,0.0032886958215385,-0.002199986949563,-0.00026150472695
8.9224365234375,-0.0049975160263478,-0.0036920959835872,0.0404009839713573,0.0003055246779695,-0.0009015090763568,-0.0016454377910122
8.93241650390625,-0.0065374937436543,-0.0034024014551658,0.0522217701464891,0.0006804977310821,0.0015193037688732,0.0010323707247152
8.942396240234375,-0.002063143074885,-0.0040857075442094,0.0381564199149608,-0.0004810983082279,-0.0008622296154499,-0.0019417377188801
8.95237646484375,0.0018984722987748,-0.0026183749380055,0.0405552977502346,-6.51126028969e-05,-0.003785581793636,0.00088467518799
8.96235546875,-0.0040635231118649,-0.0025251710960641,0.0447480732649564,0.0011897528311237,0.0016810717061161,-0.0029337056912481
8.972335205078124,-0.0135932757403701,-0.0028904972771182,0.0454933386743068,-0.0016867273952811,0.0002813143655657,-0.0012074447004124
8.9823154296875,-0.0087120978363789,-2.37644680775e-05,0.0430991370141506,-0.0002514509833417,-0.0002927286550402,0.0004404376086313
8.992295654296875,0.0028354791542515,0.0003272500598337,0.0513327123522758,0.0001871716231107,-0.0007222965359687,0.0010838573798537
9.002275634765626,-0.0028480281085707,-0.0021973913132678,0.0529787259936332,0.0008109203772619,-0.0015849992632865,-0.0008459532400593
9.01225439453125,0.0010649988830089,-0.0026424773328006,0.0457961210131645,-0.0023068422451615,0.0001010484993457,0.0001583248085808
9.022234619140624,-0.0045678559048101,-0.0021361443790141,0.0437000255167484,0.0013828049413859,0.0001283669844269,-7.89077603258e-05
9.03221435546875,-0.0028643764551728,-0.0062898847912903,0.0504360557734966,0.0019737603142857,-0.0011803107336163,-0.0014522999990731
9.0421943359375,0.0072290196717716,-0.0095120708413422,0.0420575190067291,0.0007239810656756,-1.68625265359e-05,0.0005163532914593
9.05217431640625,0.0054035578102804,0.0007692856057547,0.0366699807494878,-0.0004547339631244,0.0015437500551342,-0.0004825984942726
9.0621533203125,0.0020023710646666,-0.0059453274036291,0.0417599973648786,-0.0004491045838221,0.0011143609881401,-0.0012301839888095
9.072133544921876,0.0040001755520701,-0.0037540279044304,0.0404150124967098,0.0002334635937586,-0.0012396071106195,0.0023685456253588
9.082113525390625,-0.0071313131846487,0.0013097674243152,0.0588210222810506,0.0031471995171159,-0.0016811257228255,0.0021312648896127
9.09209326171875,-0.0038547939983196,-0.0066085862184874,0.0411620314717292,-0.0010603285627439,-0.00117246247828,-7.46314617572e-05
9.102072509765623,-0.0030636253543198,0.0014528382899705,0.0318856690824031,-0.0004547469434328,-0.0016662282869219,0.0044644623994827
