seconds_elapsed,ax,ay,az,gx,gy,gz
0.073922119140625,0.0035796851176768,0.0027812190832104,0.0467138203799724,0.0012581712799146,3.02260741591e-05,0.0001253981899935
0.083902099609375,0.0054424467822536,-0.006631327773258,0.0449193381786346,-0.0006774569046683,-0.0018430054187774,-0.0010386649519205
0.093883056640625,0.006234492209088,0.0047266175299417,0.0435737687885761,-0.0009829214541241,0.0011575780808925,0.0015251602744683
0.10386279296875,0.0061571709228679,0.0024538868249859,0.0281599265575408,-0.0001034594606608,0.0008835941553115,0.0012223910307511
0.113843994140625,0.0049854785286821,-0.0015763185391668,0.0299561623245477,0.0007476869504898,-0.0012884801253676,4.52738458989e-05
0.123823974609375,0.0061386854181066,-0.0025315917036961,0.0393827468395233,-6.00084895268e-05,-0.0010903757065534,0.0002686337975319
0.133803955078125,-0.0033418395075015,0.0015215835440903,0.0375888491600751,-0.0005790585419163,0.001261462457478,0.0010547989513725
0.143784912109375,-0.0026236082355491,-0.012409171389183,0.04207447014153,0.0013213553465902,0.0003404850140213,0.0005067524034529
0.15376513671875,0.0022363990162499,-0.0121215774863027,0.0359410819530487,0.0008941844571381,-0.0008028093725442,0.0011773364385589
0.16374609375,0.0051090135768055,-0.0001876680592074,0.0455202266812324,-0.0009971214458346,-0.0008278656750917,-0.0003723014669958
0.17372607421875,-0.0008730017085559,0.0073683002782985,0.042076223707199,-0.0004104271065443,-0.0010904530063271,0.0012263940880075
0.18370703125,0.0015948131770826,-0.0029351766690611,0.0321983882933855,-0.0021260250359773,0.0031822770833969,0.0013241890119388
0.193687255859375,0.0052466684818267,-0.0058456298888195,0.0441682275503873,0.0012125137727707,-0.0006340323016047,-0.0008806420955806
0.203668212890625,-0.0021731062553822,-0.003622199951997,0.0395277082681655,-0.0019233791390433,0.0007967045530676,0.0007206347654573
0.21364794921875,0.0006561988864094,-0.001932137106359,0.0289028538793325,-0.0012237667106091,-0.001991624943912,0.0021739217918366
0.22362890625,-0.0004291851975023,-0.0020816742454189,0.0414729971170425,-0.0021812161430716,0.0020676013082265,-0.0004582564870361
0.233609130859375,0.0035371611502021,-0.0026132329720072,0.0456605119347572,-0.0014027742436155,-0.0005902340635657,-0.0001064529205905
0.243589111328125,0.0041401137457229,0.0033870120897889,0.0444651646703481,-0.0006858513224869,0.0011152541264891,0.003494617762044
0.25356982421875,0.0029684761504642,-0.0042253352106083,0.0485088871031999,-0.0026288935914635,-0.0006333766505122,0.0008168092463165
0.263550048828125,-0.0001866268795914,-0.0005868599772453,0.0435714307010173,0.0013976143673062,-0.0003219535574316,-0.0012142114574089
0.27353125,0.0029535343096591,0.0053095776502043,0.0365413859337568,0.0020719268359243,-0.0013227695599198,0.0002065849257633
0.28351123046875,0.0021927060049958,0.0049558597085531,0.0369891297012567,0.0034661896061152,0.0009566405788064,-0.0021561733447015
0.2934921875,-0.0108679241633974,0.0015671762514859,0.0426736050784587,-0.0014787677209824,0.0001041619107127,0.0005850185407325
0.303471923828125,-0.0016847930154763,-0.0014546009887941,0.0407265626639127,0.0001100631197914,-0.0005806172266602,0.0004191091866232
0.313453125,0.0081368552316911,-0.004024935533991,0.0485083025813102,0.0031663067638874,-0.0001209555193781,0.0022247321903705
0.32343310546875,0.001505162132252,-0.0081177030066493,0.0411743064314126,-0.0011599045246839,0.0009595034644007,-0.002408753382042
0.3334130859375,0.0001605973891913,-0.0034621779515407,0.041927170625329,-0.0022608553990721,-0.0027308389544487,0.0002906266599893
0.343393798828125,0.0125276740691624,-0.0013259057083632,0.0357937824368476,-0.0020678401924669,-0.0007876744493842,-0.0003940046590287
0.3533740234375,0.0041082207701168,0.0083308708332944,0.047913843819499,-0.0006470438675023,0.0002016900107264,-0.000954067450948
0.36335498046875,-0.0100580873515456,-0.0004747870380524,0.048062896901369,-0.0023650145158171,0.0011215535923838,-0.0004383095656521
0.373335205078125,-0.0019822050594724,0.0042406149781309,0.0399848043859005,-0.000317842583172,-0.0007977867498993,0.0002679607423488
0.383316162109375,0.0011082352365367,-0.002501552758459,0.0392389544546604,0.0002574834506958,-0.0005037169903516,0.0003917634894605
0.3932958984375,-0.0051983358280733,-0.0036952103892806,0.0308569105565547,0.0003965004580095,-0.0006752246990799,-0.0007233020151033
0.403277099609375,-0.0047633419442921,-0.00505821497133,0.0423790060460567,-0.0007187770679593,0.0001309616491198,-0.0014439634978771
0.413257080078125,-0.0039598983406089,-0.0057643539466895,0.0449234298318624,-0.0014684569323435,-0.0004810327664017,0.0003171849239151
0.423237060546875,-0.0062490139247849,-0.0079345193263143,0.0471679938882589,0.0008412690367549,0.0010094037279486,0.000548294163309
0.433218017578125,0.0005947144901379,-0.0089595241256523,0.0396866982221603,-0.0015366673469543,-0.001526191830635,-0.0006104472558945
0.443197998046875,0.003139960259851,-0.004116239679791,0.0399853889077901,0.0016440206672996,-0.0007364619523286,0.0008072233758866
0.453178955078125,0.0006707571347244,-0.0049043669833336,0.0456733714163303,0.0004306844202801,-0.0007931869477033,-0.0013312948867678
0.463158935546875,0.0031816805097274,-0.0134173072521109,0.0465706125169992,6.60229707136e-05,0.0007494799792766,0.0003658640489447
0.473139892578125,0.0006545731849037,-0.0045297980498988,0.0473182160139083,0.0002569715725257,-1.53807923197e-05,0.0010686722816899
0.483120361328125,0.0021289017874747,0.0055382079074624,0.0437263290017843,0.0006929649971425,-0.0009631905704736,-0.000169154460309
0.49310107421875,0.0013178959318436,-0.0005941025687847,0.053754971063137,-0.0020144046284258,-0.0014553423970937,-0.0001369302190141
0.5030810546875,-0.0051695115923881,0.0043088487755972,0.0377431629389524,0.0009630613494664,0.0009146519005298,0.0002699790929909
0.51306103515625,0.0017618037744425,0.0040555590011179,0.0443248794168233,-0.0001133882906287,0.0010781697928905,-0.0006575998850166
0.523042236328125,-0.0032704365054145,-0.0028140162411145,0.0543511833906173,-0.0024222724605351,0.0003066258504986,0.0002242203336209
0.53302197265625,0.0113140056967735,-0.0018212332109455,0.0351999081969261,-0.0003380826092325,-0.0018396154046058,-0.0034333651419728
0.5430029296875,-0.0018278730142861,-0.0065925483991391,0.0432838459312915,0.0005559277487918,-0.0028935233131051,0.002011545933783
0.55298291015625,-0.0033451822420582,-0.0047391573511064,0.0458265161514282,0.0017152017680928,0.0006860308349132,0.0001939386420417
0.562964111328125,-1.5343699604e-06,-0.0046012467177584,0.0365501537621021,0.0020620443392544,-4.53339889645e-05,-0.0010484040249139
0.572944091796875,-0.007562215415202,-0.0081681271527893,0.0452308883458375,0.0019882747437804,0.0004082024097442,0.0001995531783904
0.582925048828125,0.0052723143797367,-0.004676823571464,0.038495442610979,-0.0011926481965929,-0.0013879742473363,-0.0013693103101104
0.592905029296875,-0.0049465530240908,0.0027651721307076,0.0441816715538501,0.0022279159165918,-0.0003538690507411,-0.000706449500285
0.602885009765625,-0.000902501797676,-0.0020468129945918,0.0405903690636157,-0.0014702305197715,-0.0028453385457396,0.0023562950082123
0.6128662109375,0.0058721069037914,0.0018303206996992,0.0425321507811546,0.0020491369068622,0.0011984053999185,0.0005120560526847
0.62284619140625,-5.77763355337e-05,-0.005384688713029,0.0372913275182247,-0.001856921124272,0.0008505443111062,-0.0019224238349124
0.632826904296875,0.0001010126890614,-0.0092217095926404,0.0441740727692842,0.0015660397475585,0.0010992838069796,-0.0005988328484818
0.642806884765625,0.0003731624276377,0.001986744237272,0.0456716178506612,-0.0021514422260224,0.0008705938234925,0.000542934751138
0.6527880859375,-0.0002490976565517,-0.0032929314650129,0.0386421576052904,0.0019990941509604,-0.0020775254815816,0.000357046170393
0.66276806640625,-0.004038626132626,0.0020551880972925,0.0471709164977073,-0.0009874994866549,0.0015686275437474,0.0011901427060365
0.672748046875,0.0061546684385277,0.0010938139855396,0.0444815312832593,-0.0005805683904327,-0.0019246404990553,-0.0006937773432582
0.682728759765625,0.0060208677247166,-0.0061619840953033,0.0437374349176883,-0.0001351855462417,-6.57802447676e-05,-0.0014067450538277
0.692709228515625,-0.0064017202684655,-0.0066360587473027,0.0377525152891874,0.0002216780558228,-0.0003837617114186,-0.0007931527215987
0.702690185546875,0.0065066419476643,0.0005557889855466,0.0423871893525123,0.0025376584380865,0.000668347813189,0.0012550051324069
0.712670166015625,0.0078005724820308,-0.0047596521498635,0.0302694660574197,-0.0010645332513377,-0.0016169100999832,0.0021122768521308
0.722651123046875,-0.0007028875723481,-0.0141185508566442,0.0374520710378885,0.0018723582616075,0.0007078228518366,-0.0003994631988462
0.732631103515625,0.0117747002773918,0.0011489051736425,0.0401449633836746,-0.000252577883657,-0.0012711724266409,0.0035033992026001
0.742612060546875,0.0088488211596384,-0.0006579067863058,0.041194180175662,0.0008778212359175,0.0005442593246698,-0.0014429469592869
0.752592041015625,-0.0015765468680299,-0.0061153867409098,0.0389496161192655,0.001488484092988,-0.0015372671186923,0.0011272698175162
0.762572021484375,0.0061276343011297,-0.0017108133727218,0.0392483068048954,-0.0028127375990152,0.0026438981294631,-0.0010110600851476
0.772552978515625,-0.0042870662020519,-0.0043594281853642,0.0325151991575956,-0.0001170861069113,0.0006071124225854,-0.0016302450094372
0.782532958984375,-0.0035148579868488,-0.0015532664571423,0.0407458518862724,-0.0002159217838197,0.0008633760735392,0.0014636622508987
0.79251416015625,0.0133116092547774,-0.0019236067400313,0.038652094477415,0.0008168520871549,0.0014703106135129,0.0003142419445794
0.802494384765625,0.005080043210648,-0.0026920612287241,0.038650340911746,-0.0004077043267898,0.0008217925205826,0.0012110668467357
0.812475341796875,0.0003002250555902,-0.0041589006445836,0.0420902522325515,-0.0002923894207924,0.0015051588416099,-0.0005711205303668
0.822455322265625,0.0098044048514217,-0.0060598662945441,0.0416378322899341,0.0010829216334968,0.0019689816981554,-0.0005337307229638
0.832436279296875,-0.0001906820002011,0.0025293175482191,0.0389443554222583,0.0002986205508932,-0.0013144295662641,0.0010159626835957
0.842416259765625,0.0047282158319838,-0.004422099891724,0.0477718050003051,0.000613939249888,0.0013807518407702,-0.0009229292627424
0.852396240234375,0.0067530909894034,-0.0064162602504715,0.0594441226154565,0.0010368491057306,-0.0023793652653694,0.0013876291923224
0.86237744140625,0.0006251644273288,0.0035383484602905,0.0435831211388111,-0.0028426810167729,-0.0015624184161424,-0.001310282270424
0.872357177734375,-0.0066446256462484,-0.0014667846169322,0.0425379960000514,0.0005254186689853,-0.0006830422207713,-0.0026005837135016
0.882338134765625,-0.0054671245657838,0.0043105384091846,0.0480699111640453,0.0006321424152702,0.0010193847119808,0.0018260404467582
0.892318115234375,0.0045244368881918,-0.0042416835572104,0.0354997679263353,-8.23837472125e-05,-0.0003651920706033,-0.0004645443987101
0.90229931640625,-0.0024797610517591,-0.0019189944969955,0.0387900416433811,-0.0001967690186575,-0.0011635227128863,-0.0003670114383567
0.912279541015625,-0.0017171426488086,-0.0030904768286272,0.0510620787173509,-0.0013853377895429,0.0018732799217104,-0.0011182891903445
0.92225927734375,-0.0002114507935941,-0.0055872438141144,0.0404389778941869,-0.0017196793342009,-0.001893344335258,0.0002516482200007
0.932240234375,0.0022395225550979,-0.002009093066398,0.0489694903522729,0.000699003576301,0.0006201472133398,-0.0010666165035218
0.942220458984375,0.0004545753670856,-6.8772653583e-06,0.0574953266352415,0.0003838030388578,0.000918916426599,0.0004051756695844
0.952201416015625,0.0009760419579222,0.006850532615045,0.0501665911823511,-6.92006433382e-05,-0.0003269100561738,-0.0006718066870234
0.96218115234375,-0.0004695720068179,0.001707415839238,0.0358031347870826,-0.0005251970142126,-0.0016208831220865,-0.0012283502146601
0.972162109375,-0.0043773383013904,-0.0004514792277012,0.0434334835350513,0.0016737750265747,0.0007064528763294,-0.0003825302410405
0.982142333984375,0.0036667058140039,0.0018672186439856,0.0420879141449928,-0.0002855630009435,0.0003295429050922,-0.0009161256020888
0.992122314453125,0.0030062326112762,0.0003078238401561,0.0358013812214136,0.0010995470220223,0.0005575092509388,0.0009808439062908
1.002103271484375,0.0008913410828448,-0.0031462804027833,0.0392424615859985,-0.0014929126482456,0.0002421997487545,-0.0002028064045589
1.012083251953125,-0.0038472500126808,-0.0035764519809745,0.0350537777245044,-0.0013693419750779,-0.0009341184049844,-0.0004749814688693
1.022064453125,-0.0008747004752978,0.0007300221744459,0.0354974298387765,-0.0007373103871941,0.0025290185585618,-0.0003166928072459
1.03204443359375,0.0058321584858931,-0.0125456846498884,0.053902270579338,-0.0011088213650509,-0.0021110065281391,0.0001288540515815
1.042025390625,-0.0029048911286517,-0.0030936916990205,0.0428337640762329,-0.0025058486498892,-0.0035311845131218,0.0012583554489538
1.052005126953125,-0.0018733926564455,0.0005459891107399,0.0364034387677907,-0.0008493623463436,-0.0031271828338503,-0.0002945337910205
1.061986328125,0.0018390337291173,-0.0020887159075587,0.0368558587104082,-0.0003792344941757,-0.0009300448000431,0.0008978739497251
1.07196630859375,0.0081975724429823,0.0006602996727917,0.0444879610240459,-0.0014037525979802,-0.0007537435740232,-0.0012558244634419
1.0819462890625,-0.0010645787579007,0.0010786072832532,0.0512274984121322,0.0001548908185213,-0.0004820525646209,0.0012387726455926
1.09192724609375,0.0077655925001949,-0.0092898246590979,0.040304537859559,0.0003700741799548,0.0011762976646423,-0.0016062823124229
1.1019072265625,0.0037534890483133,-0.0043235714206937,0.0459860906273126,0.001094244653359,0.0005594547837972,-0.0001860506017692
1.11188818359375,0.0033952501951716,0.0003871087545994,0.0358119026154279,-0.001556932227686,-0.0016126194968819,-0.0014838089700788
1.121868408203125,0.0066851220534183,0.0005144705944694,0.0464350034385919,0.0024086576886475,0.0010336032137274,-0.0005525862798094
1.131849365234375,-0.0010545688205398,-0.0046051283084321,0.0405967988044023,-0.0006758153322152,0.0009675566107034,-0.0013536651385948
1.141829345703125,-0.0087234229479916,-0.0013631598456762,0.040147885993123,-0.0019861818291246,-0.0002666180953383,0.0012852631043642
1.151809326171875,-0.014527944508288,0.0016804547670762,0.0417938996344804,-0.0004151831381022,0.0005208784714341,-0.0012607187964022
1.161790283203125,0.008890943268314,-0.0008663710383698,0.0444844538927078,0.0022674743086099,0.0027897180989384,-0.0014098068932071
1.171770263671875,0.0011040887843817,-0.0016389811123721,0.029964930152893,3.86747997254e-05,0.0020403042435646,0.0010112727759405
1.181751220703125,-0.0009881707871332,-0.0021663751204963,0.0414864411205053,0.0023127789609134,-0.000170930288732,0.0012683771783486
1.1917314453125,-0.0008562697694636,-0.0046448118648491,0.0311632000267505,-0.0011064533609896,-0.0004609487950801,0.0006681006634607
1.201712158203125,-0.005293558097165,-0.0062246284021995,0.0365524918496608,-9.62346093729e-05,-0.000366716645658,-0.0007887138053774
1.211692138671875,0.0020954744419083,-0.000796255811071,0.029220833787322,8.83224420249e-05,0.0001645842567086,-0.0013165522832423
1.22167236328125,0.0088048724200576,0.002099894888699,0.0322124168187379,0.0013013052521273,0.0016446681693196,0.0014058969682082
1.231653564453125,0.0023833514725789,-0.0003098696667701,0.0410398663967847,0.001948986086063,-0.0004192823544144,-0.0008178424905054
1.24163330078125,-0.0058831762870773,-0.0013496793095953,0.0467255108177661,0.0018303939141333,0.0016602994874119,-0.0007097438210621
1.2516142578125,0.0023568287918344,0.0089390841258224,0.0404378088504076,-2.6628258638e-05,0.0016200859099626,0.0026200064457952
1.26159423828125,-0.0063161791431717,0.0058017359481658,0.0313099150210618,-0.000180930015631,-0.0010257707908749,0.0018516867421567
1.271575439453125,-0.0015340411668643,0.0018610628978349,0.0289162978827953,7.20702810212e-05,-0.0003064507618546,0.0018977595027536
1.281555419921875,0.0038647126041352,0.0019599384287372,0.038191491228342,-0.0015073425602167,0.0029801083728671,-0.0009759027743712
1.29153515625,-0.0027294249638915,-0.0045740573167335,0.0441764108568429,0.0013771272497251,0.0008338671177625,-0.0013450169935822
1.30151611328125,0.0043970293825492,-0.0020355792145244,0.0449234298318624,-0.0015876989345997,-0.0012556901201605,0.001975261606276
1.311496337890625,0.0088019132779911,-0.0011029380069114,0.0410334366559982,-0.0022790555376559,-0.0004692589864134,-0.0014005613047629
1.321477294921875,-0.0066257017500698,0.0003168839294463,0.042231122007966,-0.0013779238797724,-0.0005203019827604,-0.0017732920823618
1.33145751953125,-0.0023259221969172,-0.0034141101592686,0.0368435837507247,-0.0001747077330946,0.0028187688440084,-0.0007285339524969
1.341438232421875,0.005574968854431,-0.0074435848710592,0.0519558126866817,0.0012235254980623,-0.000169469974935,0.0019248817116022
1.351418212890625,-0.0039702553378418,0.0035698943760246,0.038338790744543,0.0006456195842474,0.0002489127218723,0.0008921077824197
1.3613984375,-0.0021979301693849,0.0031611309120431,0.0371422744363546,-0.0004183545242995,-0.0006234822794795,0.0003360653645358
1.37137939453125,-0.0015622626143507,-0.0065010981228668,0.0464215594351291,0.0020850168075412,-0.0007337369024753,0.0007155658095143
1.381359130859375,-0.0065804926351644,-0.008114816929819,0.0260720143675804,0.0010621902765706,-0.0004265699535608,-0.0003805583401117
1.391340087890625,-0.0001062185871414,-0.0122461263145785,0.0414835185110568,0.0043043224141001,-0.000236420892179,0.0002479476679582
1.4013203125,-0.0003768522220663,0.0005090820332989,0.0482172106802463,-0.0006231675506569,-0.0006110006943345,0.0020914981141686
1.41130126953125,0.004936579619348,0.0035398371644783,0.0387929642528295,-0.0019704606384038,-0.0019188793376088,0.0023405037354677
1.421281494140625,-0.0049780076082795,0.0067897058058995,0.0296627323359251,9.4820628874e-05,-8.90213996171e-05,0.0007801576284691
1.43126123046875,-0.0119936767903156,0.004245008025458,0.0428296724230051,0.0020013526082038,0.0009935349225997,0.000421360891778
1.441242431640625,-0.0015974435255862,-0.0003780943310819,0.0368441682726144,0.0013268305920064,-0.0013637794181704,-0.0014532477362081
1.451222412109375,-0.0008017448369413,-0.004470615208568,0.0343020825743675,-0.0003384440205991,-0.0021203840151429,-0.0010710840579122
1.461203369140625,0.0107654684359207,-0.0063536433430388,0.0440285268187522,0.0013315972173586,0.0005904212594032,0.0035572575870901
1.471183349609375,0.0117079917167313,0.0012461550030391,0.0513619384467601,-0.0008724349318072,-0.0017073545604944,-0.0008984770392999
1.481164306640625,0.0114082415851764,0.0026993129534181,0.0384919354796409,0.0010933594312518,0.0002507418394088,-0.0011090370826423
1.491144287109375,-0.0025048589603975,0.0025007764403242,0.0383428823977708,0.0022355893161147,-0.0017032194882631,0.0013767573982477
1.501124267578125,0.0077135152530856,0.0021052103846333,0.0352010772407054,0.0010699195554479,-0.0010254895314574,0.0011518300743773
1.511105224609375,-0.0023398045917972,-0.0057665824363939,0.0358031347870826,0.0007463454967364,-0.0014768950641155,0.0025790180079638
1.521085205078125,-0.0043205666128546,-0.0020709610551595,0.0399959103018045,-0.0006798388785682,-0.0004441337659955,0.0019673728384077
1.531066162109375,0.000986362422537,-0.0003807429458945,0.0443383234202861,-0.0030021152924746,0.0017021084204316,0.0020946718286722
1.54104638671875,0.0019001527992077,-0.0009952398487366,0.038348143094778,0.003664166200906,-0.0004132958129048,-0.000579219777137
1.55102734375,0.0027412067332305,0.0030048991707153,0.0471761771947145,0.0028401841409504,-0.0001238100230693,0.0009446410113014
1.56100732421875,-0.0010573635658249,-0.0005320975827053,0.0543599512189626,0.0018496616976335,-0.000726731494069,0.000148382037878
1.5709873046875,0.0036623218998312,-0.0053381004917901,0.0355061976671218,0.0011140966089442,-0.0003704000264406,0.0016160501400008
1.58096826171875,0.0046149099169299,-0.0086683500261977,0.0429863242894411,-0.0014842480886727,6.59544020891e-05,-0.0026442874222993
1.5909482421875,0.0054026810274459,-0.0044735743506345,0.0341588747113943,0.0003045971971005,-0.0009521720930933,-0.0011435963679105
1.60092919921875,0.0047238684504292,-0.0070583940789103,0.0395475820124149,-0.0013059412594884,-0.0006064875051379,0.000728425453417
1.610909423828125,0.0031935901432298,-0.0020005170342978,0.0410433735281229,-0.0007330952794291,-0.0002317810431122,0.0012402849970385
1.62089013671875,0.0053192587940022,0.0022800737611949,0.0387999785155057,-0.0009447693591937,-0.0017970632761716,-0.0008693586569279
1.630870361328125,0.0062645402874797,-0.0036534627399407,0.0395522581875324,0.0024057535920292,-0.0005208756774663,-0.0024283733218908
1.640850341796875,0.0099898809535428,0.0034098997750319,0.0456868154197931,0.0013321861624717,0.0005904724821448,0.0002301306230947
1.65083154296875,0.002012892458681,-0.0012777009187731,0.0522702854633331,-0.0016028836835175,0.0009699733927845,-0.0011967911850661
1.660811279296875,0.0040801089204847,-0.0010327314480673,0.0441898548603057,-0.0006863470189273,0.0007609277963638,0.0014327267417684
1.670792236328125,-0.0011505034756846,-0.0056540619726292,0.0298246448993682,0.0019592372700572,-0.0013213977217674,0.000990109401755
1.680772216796875,0.001057765424624,-0.011378303104639,0.0307201324343681,0.0004925455432385,0.0029612956568598,-0.0010787300998345
1.69075341796875,-0.0059072878150269,0.00353295989912,0.0452326419115066,-0.0008233223343268,0.0001740306615829,-0.0004315819824114
1.7007333984375,-0.0052562400277703,-0.0021781568898353,0.0376022931635379,-0.0020232822280377,-0.0017534997314214,-0.0002299129846505
1.710713134765625,0.0034229967186227,-0.0074161945406347,0.0456856463760137,-0.0003438928397372,-6.07948750257e-05,-0.0026022568345069
1.720694091796875,0.0066012066296301,-9.05552271287e-05,0.0422451505333185,-0.0008630555821582,-0.0011135740205645,-0.0002511874190531
1.73067431640625,0.0056253473347984,0.0014225436164066,0.0368593658417463,-0.000212179031223,-0.0008475240319967,-0.000423493940616
1.740655517578125,0.0029299525046721,-0.0025793489687144,0.041800329375267,0.0008550463244318,-0.0014990149065852,0.001320278737694
1.750635498046875,-0.0012871172010898,0.006315923414845,0.0498795909345149,-0.0027090623043477,-0.0004747631028294,0.0003418333653826
1.7606162109375,0.005813398986496,0.0047831426233053,0.0524251837641,-0.0012506283819675,0.0004120245575904,-0.0008808857528492
1.77059619140625,0.0008393369009718,0.0030907873558811,0.0452455013930797,0.0030836663208901,-0.0025368938222527,-0.0015874224482104
1.780576416015625,-0.0022501352806575,-0.0040217571962159,0.0479424853920936,-0.0001544341212138,-0.0034376652911305,-0.0004412854032125
1.790557373046875,0.0069193326680921,-0.0019899408413562,0.0427016621291637,0.0019340168219059,0.0038817664608359,-0.0005057338858023
1.80053857421875,0.0022577705978415,-0.0071656264462042,0.0431494058966636,0.0009150262922048,0.0006061717867851,0.0010488452389836
1.81051953125,0.0075935969341546,-0.0015159118551295,0.0385100556582212,0.0010817402508109,0.0002293344587087,-0.0007698273984715
1.820499267578125,0.0082204601282253,-0.0049770120944362,0.0422521647959947,-0.0010650205658748,-0.0005291318520903,0.0002067736349999
1.830480224609375,-0.003592581131868,-0.003067187284585,0.0382125340163707,-0.0012940524611622,-0.0001408429816365,0.0007625753642059
1.84046044921875,-0.0119173601510934,0.0051154889833647,0.0485386977195739,-0.0018576849251985,-0.0002483166754245,0.0003214963071513
1.850440673828125,0.0062992097420617,0.0034077352174092,0.0471937128514051,0.0018536964198574,-0.0010975990444421,-0.0018591000698506
1.860421142578125,0.0023776341178454,0.0072499985277187,0.0416571215122938,-0.0026959185488522,-0.0014624949544668,-0.0020991552155464
1.8704013671875,0.0027285116484388,-0.0013057305700145,0.0341764103680849,0.0021808620076626,-0.0007868511602282,-0.0011995392851531
1.880382568359375,-0.0007442972949706,0.0014027612037025,0.0464443557888269,0.0011807039845734,0.0019117258489131,-0.0010653015924617
1.890362548828125,0.0036407676551491,-0.0035169768786989,0.0383645097076892,0.0002560544526204,-0.0014702221378684,-0.001653061248362
1.90034228515625,0.0016971045077778,-0.006210910404101,0.0465945779144763,0.0011575954267755,0.0018933098763227,0.0007826100918464
1.9103232421875,0.0025433460735715,-0.0034829741443973,0.0453963080406188,0.0005157735431566,-0.0001991363242268,0.0003977832966484
1.92030322265625,-0.0126166857931762,0.0030021683575119,0.0461427424937486,-0.0003981310874223,-0.0018038135021924,-0.0003315066278446
1.930284423828125,0.001990370099619,0.0011902326978743,0.040608489242196,-7.9617020674e-05,0.001399703323841,-0.0006399006815627
1.940264404296875,0.0009651735040359,-0.0027993209954816,0.0365682739406824,0.0001120814122259,-0.0004381770268082,-0.0003223838284611
1.950245361328125,0.0074356116271577,-0.0033086039581801,0.051084290549159,0.0001277939882129,-0.0010507032275199,-0.0019493089057505
1.960225341796875,0.0007963380094617,-0.0028539372595492,0.0424070630967617,-0.0016816474962979,-0.0009521590545773,0.0002751558204181
1.97020556640625,0.0018987828260287,-0.0039598344085272,0.0383656787514686,-0.0012560742907226,0.0015067383646965,0.0010219061514362
1.9801865234375,0.0045918030359782,-0.0015894428822211,0.0458463898956775,-0.0004216250963509,-0.0008455039933323,-0.0022630533203482
1.99016650390625,-0.0045829804087057,-0.0072462448012083,0.0271434429913759,-0.000368894485291,-0.0036514108069241,0.0010360707528889
2.000147216796875,0.0022962759773246,0.0018590079380664,0.0424111547499895,-0.002273331861943,-0.0026639429852366,0.0005816302727907
2.01012744140625,0.0077292242788709,0.0086771726534701,0.0492944845229387,0.0010084813693538,0.0010434435680508,0.000661258760374
2.0201083984375,0.00628266046606,-0.0099635226695798,0.0401642526060342,-0.0004527436103671,0.0022323885932564,-0.0015489608049392
2.03008837890625,-4.18846466578e-05,-0.0086059888470917,0.0389659827321767,0.001572856795974,-0.0022643590345978,3.77504620701e-05
2.040068115234375,-0.0019537461499683,-0.0011560290341731,0.0380722487628459,8.08591721579e-05,-0.0014671217650175,-0.0022250162437558
2.05004931640625,0.0029554705384187,-0.0016851583416573,0.0380728332847356,-0.0033168015070259,0.0021808762103319,0.0009662497905083
2.060029541015625,-0.0034433636532165,-0.001698547546193,0.0313397256374359,0.0022926074452698,3.14051285386e-05,0.000397206749767
2.070010498046875,0.0093670180811546,0.0004868610683362,0.039717093360424,-0.001219835714437,-5.24837523698e-05,-0.0004467489779926
2.079990478515625,0.0085868640215136,-0.0079929258495103,0.0427139370888471,-0.0017659876029938,-0.000355782918632,0.0005751146236434
2.08997021484375,9.93687212467e-05,0.0009207681067287,0.035382863548398,-0.0005595756811089,-0.0019073402509093,0.0010134709300473
2.099951416015625,0.0017298377336002,0.0004365556532051,0.041819034075737,0.0007753768004477,-0.001715094782412,1.556181814521551e-07
2.109931396484375,0.0005175576006993,0.0038348837214522,0.0401747740000486,-1.9576633349e-05,-0.0017462531104683,0.0013759445864707
2.119912353515625,0.0031530389371328,0.001611216322612,0.0484048422068357,0.0004407401429489,0.0014601703733205,-0.0011941285338252
2.129892333984375,-0.0042761977481655,-0.005329926318489,0.0424181690126657,-0.0027036541141569,-0.0011148396879434,0.0013960620854049
2.139873291015625,0.0003923968510702,-0.0011980506781488,0.0488520014524459,0.0028285980224609,0.0001385128125548,0.0021329594310373
2.149853271484375,0.0130185263260267,5.83517242688e-05,0.0409188703656196,-0.0015408501494675,0.0020826207473874,0.000255164457485
2.15983349609375,-0.0022875812142156,0.0039009072955232,0.0416664738625288,0.0011546544265002,0.0001602303236722,-0.0001290345389861
2.169814453125,0.006759210202936,-0.0024236743498127,0.0439127914845943,0.0001072330633178,-0.0004264637827873,-0.0027184260543435
2.179794677734375,0.0092640143644064,0.0010777761661913,0.0400257209181785,0.0020363335497677,-1.20680779218e-05,0.001135193509981
2.189775390625,0.0111998777978122,0.0001360474698245,0.039726445710659,-3.82687430828e-05,0.0007823528721928,0.0005527602043002
2.19975537109375,0.0042189328692853,0.0015994710858911,0.0400239673525094,-0.0013347559142857,0.0016269488260149,0.0009657768532633
2.209736328125,-0.0024452559939585,-0.0058375105144456,0.0422714540183544,0.0002298512263223,-0.0016263695433735,-0.0002358414494665
2.219716552734375,0.0027038521312177,-0.0095001612078398,0.0398825130552053,-0.0020885709673166,-0.0039138412103056,-6.00723142269e-05
2.2296962890625,0.0168708361063152,-0.0056494405964389,0.0428746806085109,0.0008771253051236,0.0009967619553208,-0.0003642053052317
2.23967724609375,0.0076946278895251,0.000321477906173,0.0500549475014209,-0.0020798691548407,0.0022339215502142,-0.0005750082782469
2.2496572265625,0.0133467353670857,-0.0032079839947633,0.0514016859352588,-0.0007368369842879,-0.0014702696353197,-0.0005260061006993
2.259638427734375,0.0065367630912922,0.0015691124802455,0.0356879839748144,-0.0023112688213586,0.0015482520684599,-0.000307037262246
2.26961865234375,0.0028738201369531,0.0023175288279075,0.0379325480312109,0.0012898576678708,-0.0012464690953493,-0.001729697920382
2.279598388671875,0.0019123729599639,0.0022462628231383,0.0349409649997949,0.0001011760905385,-0.0008492628112435,0.0006093535921536
2.289579345703125,0.0036526042234152,-0.0013376966108568,0.041975685942173,0.0001451183343306,0.0013180179521441,-0.0008170354994945
2.299559326171875,0.0001513363705016,-0.0034528804002329,0.0418266328603029,0.001164017478004,-0.0013157650828361,-0.0013475252781063
2.30954052734375,0.001568948083464,-0.0001722878269851,0.0386859967470169,0.0003434974933043,0.0013268897309899,0.0014898064546287
2.319520263671875,0.0044581119200214,0.0057025864226277,0.031951135534048,-0.0020657356362789,-0.0010106060653924,-0.0009708535508252
2.329501220703125,0.0042709370511583,0.0031103597060311,0.0443710566461086,0.0003052765969187,-0.0002681165933609,0.0024819346144795
2.339481201171875,0.0027624139180406,0.0009844353269319,0.0400315661370754,-0.0007411786937154,-0.0030446266755461,0.0003932865802198
2.34946142578125,-0.0034228688544593,-0.0026146212114952,0.0416799178659915,0.0007536537013947,-0.0001923814415931,-0.0001199045436806
2.3594423828125,-0.0068941799605265,0.0007438041046261,0.0442225880861282,0.0032955068163573,-0.0001453775912523,0.0012177568860352
2.36942236328125,0.0096152024222537,0.005326802779641,0.0434744000673294,0.0008613775717094,-0.0024399571120738,-0.0016302275471389
2.3794033203125,0.0019072949260473,-0.0011414159869309,0.0365910702943801,-0.002666640561074,0.0022915536537766,0.0004269518249202
2.389383544921875,-0.003701046475023,-0.002921257741563,0.0341968686342239,-0.0016128276474773,0.0007634311914443,0.0005984593881294
2.399363525390625,0.0034538119819946,0.002488209219696,0.0371902052313089,-8.97201243788e-05,-0.0016019064933061,-0.0017941360129043
2.409344482421875,0.0094039342917501,-0.000817910520453,0.0333037191867828,-0.0010551160667091,-0.0005169352516531,0.0001060294307535
2.41932421875,0.0063424826282076,-0.0037087183248251,0.0418354006886482,-0.0039060164708644,0.0009455708786845,0.0005009402520954
2.429305419921875,0.0020051658099517,-0.0055222248870413,0.0436281293243169,0.0015148478560149,-0.0003324802964925,-0.0001962753449333
2.439285400390625,-0.001529766850546,-0.0032809213668107,0.0439303271412849,1.10736582428e-05,0.0013108290731906,-0.0007205734145827
2.449266357421875,0.00443750752341,-0.0009189871415961,0.0454267031788825,-0.0003018477000296,0.0006706053391098,4.6053319238e-06
2.45924658203125,-0.0006802373491227,0.0047242520429193,0.0361491717457771,0.0005653871921822,-0.0009306641295552,0.003517135977745
2.469226318359375,-0.0046284269856289,0.0012636358608026,0.0383925667583942,-0.0004194497014395,-0.0006278632208704,-0.0001913157611852
2.47920751953125,-0.0087511694714426,-0.0030637349521741,0.049314358267188,0.0021510981023311,0.0014343904331326,-0.0012324976269155
2.4891875,0.0013750329465605,-0.0037710338381584,0.0458680172055959,-0.0024758777581155,0.0010607494041323,-0.0024136097636073
2.49916845703125,0.0071604114149697,0.0035828999880701,0.0347948345273733,-0.0028463597409427,-0.0004022782668471,0.0001571909087942
2.509148193359375,0.0076040635292418,-0.0062774180353619,0.0502075077146291,0.000834661652334,0.0003993334248661,-0.0011741232592612
2.51912939453125,0.0057751493353396,-0.0008541326113045,0.043023733690381,-0.0017717187292873,-0.0005588764324784,-0.0019759351853281
2.529109375,0.0011089658888988,-0.0047573049291502,0.0416781643003225,-0.001893957844004,-0.0011178739368915,0.0009918916039168
2.53908935546875,0.000343479675427,0.0005956278055906,0.0374912340044975,-0.0001227698521688,-0.0007334481924772,-0.0009088410879485
2.5490703125,0.0111657928651198,0.0017227138730697,0.0303103825896978,-0.0018884455785155,0.0008868193253874,-0.0002590297663118
2.559050537109375,0.0046409211410209,-0.0028887254451401,0.0421294151991605,0.0007004373474046,0.0001458246260881,-0.0007781275780871
2.569031494140625,-0.0016823087974451,-0.0099856614361517,0.0503629905372858,-0.0006101041217334,0.0009074890986084,0.0018357648514211
2.579011474609375,0.0058021834727376,0.003343045083899,0.0412345121860504,0.0012172338319942,-0.0002935016527771,-0.0015488560311496
2.588991455078125,0.0107862920282408,0.0078953289602417,0.0340495691180229,0.0010774178663268,0.0019507445394992,0.0004570368910208
2.59897265625,0.0061861778216436,0.0041542336026206,0.0431751248598098,0.0007120493100956,0.0014906283468008,-0.0027247252874076
2.608952392578125,0.0079267013460397,-0.0051103378842119,0.0373375047475099,-0.0025141041260212,-0.0005030138418078,-0.0018773075425997
2.618933349609375,0.0067191156545653,-0.0071339161336887,0.0322504107415676,-0.0017319548642262,-0.000196224078536,0.0003549503744579
2.628913330078125,0.0015797434721142,-0.00099710301226,0.0310574015647172,-0.0026542074047029,-0.0008875802159309,-0.0008650437230244
2.6388935546875,0.0075097911082208,-0.0012091839935164,0.0322521643072366,0.0009116382570937,0.0003419378772377,0.0009907000930979
2.648874267578125,0.0149710303669795,0.0034346871564164,0.037339258313179,-0.0022282286081463,-0.0002351691946387,5.11368562001e-05
2.6588544921875,-0.0007535948462784,-0.0034572277817875,0.0374918185263872,-0.0008373577147722,-0.000178936868906,0.0005328739644028
2.66883544921875,0.0060270965361036,0.0020681480435654,0.0358516501039266,-0.0020232633687555,-0.0030503571033477,-0.0001249267806997
2.6788154296875,0.0039027795922011,-0.0008342680002097,0.0355523748964071,-0.0008823632379062,-0.0003502694889903,0.0008591274963691
2.688796630859375,0.0064588390168733,-0.0096462003487162,0.0363005629152059,0.0012060876470059,0.0007813079282641,0.000423700606916
2.6987763671875,0.0006858085733838,4.43505983799e-05,0.0409399131536483,0.0030860672704875,-0.0008824039250612,0.0017997603863477
2.70875634765625,0.0058427712114527,0.0034566797925159,0.040491000342369,0.0012285127304494,0.0011929981410503,9.61363693932e-05
2.7187373046875,0.0025653752422891,-0.0058309346431866,0.0466267266184091,-0.0016879278700798,0.0018790820613503,0.000991660519503
2.72871728515625,0.0018921886884607,-0.0062750982141122,0.0512637387692928,0.0024833811912685,0.000449763610959,-0.0032020192593336
2.738698486328125,-0.0042053610016591,-0.0027011943832505,0.0428834484368562,0.0017797816544771,0.0021759234368801,-0.0007662292919121
2.74867822265625,-0.0023956994974985,0.0039229090647771,0.0421317532867193,0.000715848756954,0.0004171719774603,-0.0002786045079119
2.7586591796875,-0.0001308598380535,-0.0039708215934224,0.0383943203240633,0.001007888582535,-0.0037409723736345,-0.0004672285285778
2.768639404296875,0.0036365116051398,-0.0023264519198797,0.05246259316504,0.0023392029106616,1.32862478494e-05,-0.0004903980297967
2.77861962890625,0.0109668910258449,-0.002562388700759,0.0472241079896688,-0.0025161544326692,-0.0006660846993327,-0.0015749546000733
2.788600341796875,0.0067030047699809,-0.0092413824074901,0.0309130246579647,-0.0012455603573471,-0.0007592961192131,0.0014320205664262
2.798580078125,-0.0006608202625997,-0.0035331882279831,0.0355541284620761,-0.0005882864352315,-0.0006070928648114,-0.000347337743733
2.80856103515625,0.0084780150858685,0.0086836845926474,0.038396658411622,0.0010990923037752,0.0019356934353709,0.0015365824801847
2.818541015625,0.0110710272537544,-0.0055248461023904,0.037350364229083,-0.0026932614855468,-0.0001738965511322,0.0004183660494163
2.82852099609375,-0.0066561334209516,-0.0003562112928368,0.0464770890146493,-0.0001909554703161,-7.53598287701e-05,-0.0001677957334322
2.838501953125,0.0042099093126133,-0.00181950704474,0.0424386272788047,0.0025756829418241,-0.0017119841650128,0.0002337415353395
2.848482177734375,0.0090252554387785,0.0047421438926365,0.0313660291224718,0.0007777829887345,0.0010137613862752,-0.0014765405794605
2.858463134765625,-0.0037789705494418,-0.000459388539521,0.0415396326124668,0.0010520590003579,0.0018796073272824,-0.0002550110220909
2.868443115234375,0.0015172178962267,-0.0040837439159862,0.0433317767262458,0.0012629814445972,0.0020077051594853,-0.0002827079151757
2.878424072265625,0.0064623461482115,-0.0023630941358394,0.0478220738828182,-0.0001791227841749,0.0002482971176505,-0.0003130443801637
2.888404052734375,-0.0061760582864284,-0.0003170939920004,0.0457259783864021,-0.0012856662506237,-0.0007362738251686,0.0006528841331601
2.898384033203125,0.008142006330844,-0.0028926983673591,0.0294148950546979,-0.0021508182398974,0.0031932536512613,0.0011038531083613
2.908364990234375,-0.0024889672715216,-0.0022748313304968,0.0389917016953229,0.0012769364984706,0.0010233093053102,-0.0002024273126153
2.9183447265625,0.0039910241312347,0.0049260856247972,0.0463245288014411,-0.0012580559123307,-0.001461905427277,-0.0015777528751641
2.928325927734375,0.006280249313265,0.0077661130900029,0.0491699813604354,-0.0038953842595219,-9.6502713859e-05,-0.00154206645675
2.938305908203125,0.0032823644052259,0.0001034877739381,0.0518652117937803,0.0006570784607902,0.0004545971751213,0.0012559711467474
2.9482861328125,0.0134195631412789,-0.0049921274651773,0.0440817183107137,0.0003894306719303,-0.0007986864075064,-0.000121415767353
2.95826708984375,0.0109040914553217,-0.0030603374186903,0.042885786524415,-0.0002968608168885,-0.000235672108829,-0.0014467479195445
2.9682470703125,-0.0018166575005277,-0.0018083463299088,0.0403425317823886,6.77260104566e-05,0.0002767201513051,0.0016901893541216
2.97822802734375,-0.0038792160535231,0.0040668841127306,0.0328577289849519,-0.0005445493734441,-0.000275170430541,-0.0003475337580312
2.9882080078125,-0.0051362303772941,-0.0017610822552349,0.0380938760727644,0.0022515035234391,-0.0006384262815117,-2.575543476268649e-07
2.99818798828125,0.0007374291627667,-0.0067073612846899,0.0401928941786289,-0.00221285270527,-0.0012761717662215,-0.000315373239573
3.008169189453125,0.0012118052088655,-0.0030815811361186,0.0391454309523105,-1.84079399332e-05,0.0021566431969404,-0.0015734505141153
3.01814892578125,0.0062097961592487,0.0009591090894304,0.0406418069899082,-0.0004343937034718,0.0005764113739132,0.000374014081899
3.0281298828125,0.0010628982574678,-0.0007372099670581,0.03989244992733,-0.000644250831101,0.0018027974292635,-0.0010830013779923
3.038110107421875,0.0043773383013904,-0.0027351057860068,0.0321124635756015,-0.0001741151791065,-0.0007975148037075,-0.0012498113792389
3.048091064453125,0.0070063350981101,-0.0032299126987811,0.040341947260499,-0.0015967758372426,0.0029918970540165,0.0003105346695519
3.0580712890625,0.0007736877862364,-0.0036213049028534,0.0413911640524864,0.0015017241239547,-0.0006139799952507,-9.80118929874e-05
3.068051025390625,0.0101972218276001,0.0009863806888461,0.0412421109706163,-0.0024312320165336,-0.0006882827728986,0.0004069234710186
3.078031982421875,0.0061618470979854,-0.0043803887750022,0.0324146613925695,-0.0016672436613589,0.001088073477149,8.58374842209e-05
3.088011962890625,0.0003232406049966,-0.009680970267998,0.0391471845179796,-0.0012376756640151,-0.0008831983432173,-0.0008531931089237
3.0979931640625,-0.0005526289140805,-0.0013245174688752,0.0334632936626672,-0.0016245810547843,0.0004502749070525,-0.0036056090611964
3.107972900390625,-0.0084426880441606,0.005607537683472,0.0427414096176624,0.000591967953369,-9.14111733436e-05,-0.0009139523026533
3.117952880859375,0.0017534012722782,-0.0066354194264858,0.0493254641830921,0.0019804977346211,-0.0003225626423954,-0.0003745757276192
3.127933837890625,0.0090327994244173,-0.0039149540871847,0.045586277654767,-0.0004640177940018,-0.0019630696624517,-4.94037667522e-05
3.137914306640625,0.0091867478771135,-0.004526071722852,0.0487304208993911,-0.0006112784612923,-0.00169881246984,-0.0001767793874023
3.147895263671875,-0.0043606794275343,-0.0018815942292101,0.0443897613465785,0.0003147026291117,0.0006674053147435,-0.0022186248097568
3.157875,0.0035896402561105,-0.0057404342149849,0.0385509721904993,-0.0008054611971601,0.0007405960932374,-0.0036030407063663
3.16785498046875,0.005994673837535,0.0004255593351554,0.0397498265862464,-0.0039123049937188,0.0003557698801159,0.0022218250669538
3.177836181640625,0.0055099590605124,0.0008127320218365,0.0367564899891614,-0.0009782360866665,-0.0008421828970313,0.0018068187637254
3.187816162109375,0.0088020046095363,-0.0048789037485141,0.0400520244032144,-0.0008789001149125,-0.0010762754827737,-0.0008595382096245
3.197796875,0.0132901646079495,0.001929378893692,0.0427449167490005,-0.0004977254429832,0.0001974459737539,-0.0012340688845142
3.20777685546875,0.0065169258796609,-0.0025447160467505,0.0373550404042005,0.0009451752994209,0.0009420663118362,-0.0006918493891134
3.217758056640625,0.0005870609066449,-0.0025629732226487,0.0416956999570131,-0.0016247376333922,-6.2539242208e-05,0.000178968446562
3.227738037109375,0.0060907363568432,-0.0019808807520661,0.0524696074277162,0.0020224615000188,0.0019848989322781,0.0002495422377251
3.23771826171875,-0.0013446378082968,-0.0057954797373153,0.0484258849948644,0.0027577097062021,0.0016600647941231,0.0002081513812299
3.247698974609375,0.0059471631676889,0.0019250315121375,0.0446849449008703,0.0007187938317656,-0.0012020347639918,3.0879746191e-06
3.257678955078125,-0.0045120705969631,-0.0046989440717268,0.0321194778382778,0.0011191064259037,-0.0006335694342851,-0.0011871861061081
3.26766015625,0.0070465940432623,-0.002118252529297,0.0325683906495571,-0.0008186096092686,0.0006388882175087,-0.0019821396563202
3.27764013671875,0.0025784904521889,-0.0039004049720242,0.0433399600327014,0.0015094566624611,0.0011570136994123,-0.0022161463275551
3.287619873046875,0.0027606420860625,-0.0040426903863903,0.0416945309132337,0.0010740298312157,-0.0019050883129239,-5.33932034159e-05
3.297600830078125,0.0002254427863284,-0.003090211967146,0.0496247393906116,0.0033040179405361,0.000465765595436,-0.000122033903608
3.3075810546875,0.0056118667987175,-0.0036087468153797,0.0505213959693908,-0.0009309409651905,-0.0005867155268788,0.0028985233511775
3.31756201171875,0.0073783832808956,-0.0054673346283379,0.0442372011333703,-0.0012647550320252,0.001220897771418,-0.0008490243344567
3.3275419921875,0.0055886868525296,-0.0025255820880178,0.0433399600327014,0.0010079864878207,-0.0006470428779721,-0.0002793741587083
3.33752197265625,0.0054390492487698,-0.0008297562218736,0.0517190813213586,0.0001527576241642,0.0006990805268287,-0.0006808243924751
3.347503173828125,0.0022442535291425,0.00601492204112,0.0373532868385314,-0.0024392970371991,-7.981434464454651e-07,0.0004057453188579
3.357483154296875,0.0023122772640548,-0.0042219285439699,0.0434901821583509,0.0008192792301997,-0.0002743490040302,0.0010891035199165
3.367464111328125,-0.0019392244342714,-0.0063506020025815,0.0395990199387073,-0.000517627748195,-0.0017356257885694,0.0001026686222758
3.37744384765625,0.0072175301633775,0.0029867241932079,0.0434890131145715,0.0003549532266333,-0.0001117261126637,-0.0023180057760328
3.387423828125,0.004080218518339,-0.0026619218187872,0.0512701685100793,0.0007525632390752,-0.0006912304088473,-0.002291107783094
3.397405029296875,0.0069748622476123,-0.0062590603947639,0.0461854125916957,-0.0007732966332696,-0.0018488727509975,0.0013539788778871
3.407385009765625,0.0075171706970781,-0.0012556900163646,0.0430406848251819,0.0005633438704535,0.0019059181213378,0.0004218725953251
3.417365966796875,0.0059911667061969,0.0022055015544872,0.042887540090084,0.0010991133749485,0.001365665346384,-0.0002127957704942
3.427345947265625,0.002018445416633,-0.0055270654589403,0.0454319638758897,0.000980868935585,-0.0016402443870902,-0.0016405164496973
3.437326904296875,0.0070707238375209,-0.000400653222762,0.0455851086109876,-0.002167978323996,-0.0002844659611582,-0.0004350672825239
3.44730712890625,-0.0069658021583221,0.0050925190997309,0.0413964247494935,-0.0021911477670073,4.15053218603e-05,0.0023170434869825
3.457287109375,0.0017404687254689,-0.0022545191948302,0.036458968347311,0.0017275660065934,0.0007293866947293,0.0017623078310862
3.46726806640625,0.0089600081828422,0.0074069609214086,0.0406488212525844,-0.0025441441684961,-0.0013521406799554,-0.0021330979652702
3.477247802734375,0.0081099306921474,0.0043523499906063,0.0476852957606315,0.001417389139533,0.0006307670846581,-0.0012925182236358
3.48722900390625,0.0050169513791799,-8.68836990091e-05,0.0415460623532533,0.0002599792787805,0.0015740590170025,-0.001297578215599
3.497208984375,-0.0064824025555513,-0.0026723244817927,0.0385521412342786,-0.0006229434511624,0.0005713365972042,0.0021827614400535
3.50718896484375,0.001668773462437,-0.0002298814994283,0.0376537310898303,-0.0004213421489112,0.0002807863056659,0.0005086985183879
3.517169677734375,0.0057292461006902,-0.0007522157399449,0.0303197349399328,-0.0008566790493205,0.0003061052411794,-0.0010026893578469
3.527150146484375,0.0019432247559539,-0.0004421908095479,0.038249358895421,0.0012107329675927,-0.0003413092344999,0.0010069319978356
3.537131103515625,0.0030257227630354,0.0043131322250701,0.0421381830275058,-8.79550352692e-05,-4.41018491983e-05,-0.0003673166211228
3.547111083984375,0.0107023766044527,0.0016024941600393,0.0324129078269004,0.0010175232309848,-0.0007346598431468,-5.9987840359e-05
3.557091064453125,0.0128965073815546,-0.0038879838818684,0.0383984119772911,-0.0013933811569586,-0.0004429081454873,-0.0007976566557772
3.567072021484375,-0.0039053003428503,0.0021880024304147,0.0339086993426084,0.0004761578748002,0.0012508630752563,-4.21178701799e-05
3.577052001953125,0.0030479163285344,0.0054428669073618,0.0371995575815439,-0.0042236787267029,-0.0007495852187275,0.0033759882207959
3.587032958984375,0.0023808489882387,-0.0047378878426272,0.0418400768637657,0.0021223677322268,0.0020973337814211,-0.0002328612317796
3.597012939453125,0.0052996042454615,-0.0008189243006054,0.0419879609018564,-0.0024449084885418,0.0007194811478257,0.0013383484911173
3.606994140625,0.0053413427616469,-0.0014149630981497,0.0445323846876621,0.0011045524151995,-0.0008885348215699,-0.0007903161458671
3.616973876953125,0.0124966578763909,-0.0050243492343463,0.0364519540846347,-0.0009045350598171,-2.0125880837e-06,0.0004152465844526
3.6269541015625,0.0078228939116932,0.0009504051931668,0.0333119024932384,-0.0015120020834729,-0.0013889865949749,0.0003465370391495
3.63693505859375,0.0016120748391374,-0.001776699949475,0.0520154339194297,-0.0004549286677502,0.0012024780735373,-0.0006830081692896
3.6469150390625,0.0021904044500552,0.0009590451573487,0.0446820222914218,-8.98092985153e-05,0.0011553401127457,-0.0002105634048348
3.656896240234375,0.0001971848062239,-7.2425915393e-06,0.0406400534242391,0.0033953646197915,6.8005174398e-06,-0.001940794289112
3.6668759765625,0.0073891238706186,0.0013871069768443,0.0388426486134529,-0.0012688955757766,0.0001807045191526,-0.0017059033270925
3.67685595703125,0.0050998986885882,0.0023194193908944,0.0469265863478183,0.001430373173207,0.0007182825356721,0.0015374515205621
3.6868369140625,-0.0010141454786062,-0.0012577358429785,0.0385468805372715,-0.0005827103741466,-0.0010180985555052,0.0006341073312796
3.696817138671875,0.0020074308322742,0.0001661868797615,0.0439367568820714,0.0024229674600064,-0.0011555468663573,-0.0008347907569259
3.7067978515625,0.0088477982463315,-0.0010564593835268,0.0331622648894786,0.0002740629715844,0.0006226459518074,-0.0005176082486286
3.716778076171875,0.0091337390482425,0.0043904443781357,0.045880876687169,0.0021841512061655,0.0002135299146175,0.0008681217441335
3.726758056640625,-0.0053660022788681,0.0075883362371474,0.0478255810141563,-0.0017288313247263,-0.0007337564602494,0.000716854177881
3.7367392578125,0.0017163389312103,-0.004094758500345,0.0366010071665048,0.0011152011575177,-0.0006735138595104,0.000660094898194
3.746718994140625,0.0043424679174087,-0.0017166311921551,0.0391448464304208,-0.0028302720747888,0.0014176005497574,-0.0024938867427408
3.756699951171875,0.0005098674845881,4.4752457179e-06,0.0401911406129598,-1.35857844725e-05,1.52084976434e-05,-0.0004419418983161
3.766679931640625,-0.0008533471600152,0.0011834741635248,0.0357037660658359,-0.0015840518753975,5.06285578012e-05,-0.0008217087015509
3.776659912109375,-0.0022644743332639,0.002096269026352,0.0370522580653429,0.0018600065959617,-0.0004976289346814,0.0006569004617631
3.78664111328125,0.0016661248476244,-0.0012967344128061,0.0403413627386093,-0.0005677309818565,0.0004134392365813,0.0002401157398708
3.79662109375,0.0063702656842768,0.0048597880560904,0.0482698176503181,0.0016134452307596,0.0011607315391302,0.0018096859566867
3.80660205078125,0.007180613952782,-0.0052507784013636,0.0452794036626815,-0.0016782218590378,-0.0004470190033316,0.000649613153655
3.816582275390625,-0.0009172244427725,0.002891447125189,0.04602817620337,-0.0020697717554867,0.0002171639353036,-0.0034995358437299
3.8265625,-0.0001209229659289,0.0025598496838007,0.0379459920346736,0.0023678534198552,0.0023373067378997,-0.0020302697084844
3.83654345703125,0.0052105194562114,-0.0028901319509372,0.0407867684185504,4.84191114082e-05,0.0005689896643161,0.0004413172136992
3.846523193359375,0.0016261946960352,0.0044212231088895,0.0356949982374906,0.0012412489159032,0.0008965581655502,-0.0008958559483289
3.856504150390625,0.0035719402026385,0.0022311017866246,0.0377893401682376,-0.0014373619342222,-0.000325639732182,-0.000827589596156
3.866484375,0.0029044344709254,0.0016592475822661,0.0380886153757572,-0.0001116404309868,0.0018256623297929,-0.0003809775225818
3.87646533203125,0.003361768050678,-0.0031363252643495,0.0467675963938236,-0.000444347737357,-7.36778602004e-05,-0.0009764698334038
3.886445068359375,0.008300411762949,-0.00588013494662,0.0388373879164457,-0.0011045453138649,-0.0001229466870427,0.0026494241319596
3.896425048828125,0.0031677615822292,-0.0012178148245438,0.0442231726080179,-0.0011267005465924,0.0004100920632481,-0.0009510812815278
3.90640625,-0.0023364618572406,0.0007189162585418,0.0448223075449466,-0.0020556112285703,-0.0036216671578586,-0.0026288726367056
3.916386474609375,0.0053028739147819,-0.0016242676004301,0.0374900649607181,0.0020733335986733,0.0015353308990597,0.0002974896342493
3.9263671875,0.0116845195095986,0.0010202281595207,0.0421264925897121,0.0034493887796998,0.0019300114363431,0.0005518214893527
3.93634716796875,-0.0041460137635469,-0.0001218180150724,0.0467652583062648,0.0004564856644719,-0.0018593855202198,0.0012295788619667
3.9463271484375,-0.0018754750156775,0.002495342213381,0.0485638321608304,0.0009307946311309,-0.0009611006826162,-0.001397629501298
3.956308349609375,0.0039125155349262,-0.0038033743383362,0.0466162052243947,0.0042047407478094,0.0016359956935048,-0.0002093036164296
3.966288330078125,0.0005619812643155,-0.0034765261373016,0.0466097754836082,0.0008946978487074,0.0016762092709541,0.0009851241484284
3.976269287109375,0.0023468553870916,0.0028390684839803,0.0409229620188474,-0.0002546326140873,-0.0005234060809016,0.0006644546519964
3.9862490234375,0.0090171999964863,-0.0021974278458859,0.0317962372332811,-0.0002839274238795,-0.0014400659129023,0.0007792368996888
3.996229248046875,0.0092433551688678,-0.0028967260885052,0.0386778134405612,-0.0003158015897497,-0.0006840229034423,0.0013602016260847
4.00620947265625,0.0071639733452349,0.0066461965488269,0.0380798475474119,-0.0002897026133723,0.0008017541840672,0.0004637816164176
4.0161904296875,0.00021210838072,-0.0068058988888747,0.03868015152812,-7.23546836525e-05,0.0007174164056777,-0.000902725267224
4.026170166015625,-0.003781473033782,-0.0018186211287509,0.0443634578615427,0.0002142015146091,0.0018668370321393,-0.0003687614807859
4.036150146484375,-0.000284205502551,-0.005428034664411,0.0425678066164255,-0.0003860832075588,0.0015795193612575,-0.0002498917165212
4.04613134765625,0.0019886713328771,0.0025429168153088,0.0406195951581001,0.0024033118970692,0.0016761925071477,-0.0008179439464583
4.056111328125,0.0040012167316861,-0.0004045165471266,0.0419651645481586,-0.0004921446670778,0.0001828158274292,-0.0009905686601996
4.066092041015625,0.0044871553514152,-0.0045760940101929,0.0477986930072307,0.0020700828172266,0.0009271698072552,-0.0002885593276005
4.076072021484375,0.0059618492801673,0.0026380568860098,0.0362707522988319,0.0003544699866324,0.00100954528898,0.0020987829193472
4.086052490234375,0.0069414349020458,0.0021625757282134,0.0446492890655994,-0.0006079963641241,0.0011168709024786,-9.96567396214e-05
4.096033447265625,0.0066215370316058,0.0015331004519481,0.0495873299896717,0.0010093855671584,-0.0004759775474667,-0.001520290505141
4.106013427734375,0.0061925344971939,0.0111310320789925,0.0248977098912,-0.0003000907017849,0.0020241979509592,0.0005974551313556
4.115994140625,-0.004157850331813,-0.0017187866166234,0.0307341609597206,-0.0015624405350536,-0.0003466727212071,0.0006051600212231
4.125974365234375,-0.0060854208609089,-0.0014031539293471,0.043003275424242,0.001355584943667,-0.0001501310616731,0.0018925321055576
4.135955322265625,0.0090047423737123,-0.0024594306497834,0.0507838462978601,-0.0006111074471846,-0.0011955071240663,0.0002359700156375
4.145935302734375,4.84787842258e-05,0.0015487912114243,0.0516840100079774,0.0011359262280166,-0.0010908441618084,-0.0002143705351045
4.1559150390625,0.0030143793851137,-0.0047041408366523,0.0380664035439491,0.0002163875615224,0.0009412867948412,-0.0021662721410393
4.165896240234375,0.0009495558097958,-0.0028307299138978,0.0272907425075769,-0.0005993386730551,0.0016385018825531,-0.0038168993778526
4.175876220703125,0.0052931379720568,-0.0072509666420985,0.0400087697833776,0.0001756085548549,-0.0004472248256206,0.0020960746333003
4.1858564453125,0.0046887423381209,0.0079439173423219,0.0450970328330993,0.0005612343084067,0.0018130000680685,0.0007019097101874
4.19583740234375,0.0007378310215659,-0.0019748254706151,0.0391080215513706,-0.0001649414189159,0.0018594674766063,0.0003811062488239
4.205817138671875,-0.0045147192117758,0.0047319512921851,0.030130934369564,-0.0019993267487734,-0.0001323102042078,0.0014295927248895
4.21579833984375,-0.0054507214202545,-0.0012902498730923,0.0383639251857996,0.0010320950532332,-0.0015313625335693,0.0015894302632659
4.2257783203125,0.0052066104660741,-0.0022352117061614,0.0382137030601501,7.1759102866e-05,0.0001962296664714,0.0008685125503689
4.23575927734375,-0.0003691986385732,-0.0044800314908847,0.0455453611224889,0.0012993122218176,-0.0005719428882002,-0.000140751566505
4.2457392578125,0.0009533734683878,0.0028560013524722,0.0388128379970788,0.0011437834473326,-0.0013847388327121,0.0005213102558627
4.25571923828125,0.0024555033933371,-0.0038471952137537,0.0371662398338317,-0.0013181453105062,-0.0016692653298377,0.0004220125265419
4.2657001953125,0.0045905243943445,0.0007946301095653,0.0361199456512928,0.0011322292266413,-0.0012982869520783,0.0009061751770786
4.27568017578125,0.0056234659049659,0.0063105348536744,0.0528793572723865,-0.0012494281399995,-0.0003765765577554,0.0005303332582116
4.2856611328125,0.0011913286764174,-0.002108032529382,0.0545253709137439,0.002198566449806,-0.0018005687743425,-0.001219896133989
4.295641357421875,-0.001677431692928,-0.0043133057550061,0.0437502943992614,0.0003170589916408,0.0017437972128391,-7.61453266022e-05
4.305621337890625,0.0011555084443651,0.0033116452986374,0.0350678062498569,0.000167389283888,0.0011078342795372,0.0013742122100666
4.315602294921875,-0.0006097476624883,-0.0086585958171635,0.0461386508405208,-0.0022652836050838,-0.0005382243543863,-0.0006164169171825
4.325582275390625,0.0088726586929522,-0.0023499697927851,0.0476326887905597,0.0009068076033145,-0.0007512774318456,0.0012656389735639
4.3355634765625,-0.0038814628095366,0.0038180421845056,0.0489782581806182,0.0015294742770493,-0.000638211145997,-0.000167267397046
4.345543212890625,0.0023513488991186,-0.0043294257727451,0.0346159708291292,0.0007648805622011,-0.0017716521397233,-0.0001190641778521
4.355523193359375,0.0014301971998997,-0.0055559536267071,0.0428460390359163,-0.0010866672964766,0.0006803860887885,-0.0008455986971966
4.365504150390625,0.0044343109193257,0.001821936463844,0.0368570277541875,0.0008353360462933,0.0003741225227713,-6.34282769169e-05
4.375484375,-0.0017305501196533,0.001833215909684,0.031919571352005,-0.0012458803830668,-0.0006055096164345,-0.0002346013206988
4.38546533203125,0.0016421411838382,0.0019680030041839,0.045390462821722,-0.0002961971913464,-0.0029695974662899,-0.0008985273307189
4.3954453125,0.000772189948894,-0.000204856656026,0.0554191048830747,-0.0001817645970731,0.0007630111649632,0.0002739163464866
4.40542529296875,-0.0046984417482279,-0.0041400315473321,0.0435965651422739,-0.0016944401431828,0.0005491590127348,-0.0012443517334759
4.41540625,0.0007697970624081,-0.0026945545799098,0.0347667774766683,5.39496541023e-05,0.0001953113824129,0.0001093137543648
4.425386474609375,-0.0015037190938368,-0.004035329063842,0.0410544794440269,-0.0001809411915019,-0.0008249459788203,-0.0017892536707222
4.4353671875,-0.0081137300844304,-0.0009518025658093,0.042848377123475,0.0034547972027212,0.0017251837998628,-0.0020454309415072
4.44534716796875,0.0062944787680171,0.0082243873846717,0.0403016152501106,0.0010741977021098,9.39974561333e-05,0.0006267848075367
4.4553271484375,0.0053030383115634,0.0001608805169817,0.0527227054059505,-0.0006425590254366,0.0002719918265938,0.001558392541483
4.465308349609375,-0.0058920537132769,-0.0060941247571725,0.0391091905951499,0.0002850199816748,-0.0029280623421072,-0.0007849227986298
4.475288330078125,0.0072057483940385,-0.0001456281489226,0.0453928009092807,-0.0009002991719171,0.0012305723503232,0.0005501530249603
4.485269287109375,0.0056638344479724,-0.0011555175775196,0.0458422982424497,0.000526089919731,0.0022553568705916,-0.0021289871074259
4.495249267578125,-0.0005725209246389,-0.0045822771558072,0.0425479328721761,0.0006516338326036,-0.0014195563271641,0.0012851553037762
4.505229248046875,0.0035859321953728,0.0030898557741194,0.0307283157408237,0.0005227368092164,0.0022241808474063,0.000747729325667
4.51521044921875,0.0028465120049193,0.0077492532867472,0.0410533104002475,0.0010798496659845,-0.0011322395876049,0.0028845835477113
4.525190185546875,0.0102783973050303,0.0002921513469889,0.044344168639183,0.0008846400305628,0.0005013439804315,0.0019173234468325
4.535171142578125,-0.0025620690403506,-0.0024465437687467,0.0359656318724155,-0.0013804542832076,-0.0007223198190331,-0.0033227812964469
4.545151123046875,0.0035161183621734,0.0063849883293733,0.0432996280223131,6.7863147705e-06,-0.001522067002952,-0.0033765772823244
4.55513134765625,-0.0008679419409483,0.0051333077678456,0.0389583839476108,0.0014812804292887,0.0017290152609348,-0.0024353398475795
4.5651123046875,-0.0067166131702251,-0.0010018979183863,0.0414998851239681,0.0008075006771832,0.0015849377959966,-0.0016387884970754
4.57509228515625,0.0031673779897391,-0.0024372736169025,0.0480839396893978,4.19858843088e-05,-0.0014071650803089,-0.0021101185120642
4.5850732421875,0.002475212740805,0.0011271408664062,0.0455383468598127,0.0011400071671232,0.0021292464807629,-0.0003250016015954
4.595053466796875,-0.0032685002766549,-0.0047287912207189,0.0419429527163505,0.0002579696010798,0.002204842865467,0.000818803848233
4.605033447265625,0.0072608213158324,-0.0017000545166898,0.0459790763646364,0.0022886297665536,-0.0010572634637355,0.0019258798565715
4.61501416015625,-0.0028911731305532,-0.0056011627416126,0.0438847344338893,0.0006776563823223,0.0001235958188772,0.0018436722457408
4.624994140625,0.0040239217538386,-0.0034787272275425,0.0500169535785913,0.0006182678043842,0.0024725031107664,0.0009581712074577
4.634976318359375,0.0012222352713346,-0.0009121464088559,0.0401397026866674,-0.0020112274214625,-0.0012490106746554,0.0002549119235482
4.644956298828125,0.0010546784183941,-0.0003374152608215,0.0432850149750709,-0.0006346393493004,-0.0023832507431507,-0.0004931699950248
4.654936279296875,0.0060560669022612,-0.0052235798671841,0.033262218132615,-0.001003403798677,0.000890233553946,-0.0003430487704463
4.664917236328125,-0.005922923775576,0.0018330971786752,0.0319131416112184,-0.0015653307782486,0.0024910597130656,0.0008396611083298
4.674897216796875,0.0058079738927073,0.0029733167223632,0.0365507382839918,-0.0010404367931187,-0.0001755896955728,-0.0021595559082925
4.684878173828125,0.0128035684010945,0.0038350207187701,0.0423860203087329,0.0007902201032266,0.0019565364345908,0.0011132025392726
4.6948583984375,0.0075330075870268,0.0012136044403072,0.0369943903982639,-0.0005102300783619,0.0019734445959329,0.0006710162851959
4.70483837890625,-0.0058589186286553,-0.0051248048009816,0.0411830742597579,-0.0008689578971825,0.0008554495871067,0.0022848919034004
4.7148193359375,-0.0092671379032544,-0.0095179799923207,0.0411842433035373,-0.0010925375390797,0.0005571097135543,0.0007981683593243
4.72479931640625,0.0070964975995942,0.0059914589671418,0.0277186125308275,0.0018289500148966,-0.0008125538006424,-0.0003134350408799
4.7347802734375,0.0028500191362574,0.0040835703860502,0.0304109203547239,0.0009043194586411,-0.0002473155036568,0.0023352345451712
4.74476025390625,-0.0055560266919434,0.0001455550836864,0.0378910469770431,0.0017623897874727,-0.0017860904335975,0.0001770087255863
4.754739990234375,-0.0036675095316022,0.0036795104966498,0.0414835185110568,0.0002671499969437,-0.0006983894854784,-0.0017753220163285
4.76472119140625,0.0018606427727267,-0.0005952624794095,0.0471685784101486,0.0017188391648232,-0.0002427231520414,-4.45336336269e-05
4.774701171875,-4.89171756431e-05,-0.006826083160378,0.0414823494672775,0.0011723877396434,-0.001144359819591,-0.0001897110196296
4.78468212890625,0.0140459879439324,0.0056755340189207,0.0365443085432052,-0.0001746391062624,0.0010932283475995,-0.0015316779026761
4.79466162109375,0.0005977466974407,0.0009492178830783,0.0389396792471408,-0.0017597237601876,-0.0011717351153492,0.0001217336248373
4.8046416015625,0.0011438910718075,-0.0068577752065844,0.035500352448225,-0.0015200392808765,0.0007939441129565,-0.0012101131724193
4.81462255859375,0.0008234086794778,-0.0065892421972006,0.038640988561511,5.08580124005e-05,-0.001455184072256,0.0002910574839916
4.8246025390625,0.0014477511228993,0.0011283738422673,0.0410369437873363,-0.000103605329059,-0.0003558304160833,-0.0021278916392475
4.83458349609375,0.0088685122407972,-0.0039319874203763,0.0432826768875122,-0.0005788708804175,-0.0009611351415514,0.0012766806175932
4.8445634765625,0.0010127937717363,0.0061687152301892,0.0341559521019458,-0.0004590286407619,0.001045823097229,-0.001608055550605
4.854543701171875,-0.0080154208091087,0.0025531276820693,0.035500352448225,0.0006221304647624,-0.0011391881853342,-0.0007660269620828
4.864524658203125,-0.0043249322607181,-0.0010790091420523,0.0328092136681079,-0.0021432959474623,-0.0005082851275801,0.0012156311422586
4.874504638671875,-0.0012819295693188,-0.0012910261912271,0.0459790763646364,0.0024176002480089,-0.0003775218501687,0.0004439593176357
4.88448583984375,0.006381079339236,0.0028542751862667,0.0346042803913354,-0.0002942967112176,0.0022938949987292,-0.000850336975418
4.894465576171875,0.0047997832308523,0.0084594473827164,0.0347498263418674,0.0020623286254704,-0.0017346264794468,-0.001800657948479
4.904445556640625,0.0051949200282804,-0.0007210442835465,0.0443278020262718,0.0013416772708296,0.0006776647642254,-0.0023854880128055
4.914426513671875,0.0054349941281601,-0.0003841404793784,0.0414829339891672,-0.0003726115101017,0.0015874486416578,-8.44119349494e-05
4.924406494140625,-0.0056053274600766,5.06890076212e-05,0.0488128384858369,-0.0002117565600201,0.000211127102375,-0.0007829591049812
4.9343876953125,0.000251965467073,0.0006517145075369,0.0449245988756418,-0.0024270135909318,0.0007927827537059,-0.0002220408350694
4.944367431640625,-0.0064415408222004,-0.0046230292913038,0.0455243183344602,6.0502206906e-06,-0.0002743462100625,0.0011620039585977
4.95434765625,0.0010798311259597,0.0016141115325968,0.0456704488068819,0.0004190891049802,-0.000609409995377,0.0012193013681098
4.96432861328125,-0.0012359715357422,0.0002560571203008,0.0450736519575119,0.0001320003066211,-0.0005297819152474,0.0001774727861629
4.97430859375,-0.0050065578493289,0.0057958359303418,0.0378922160208225,-0.001703965710476,-0.0028209947049617,0.0011549760820344
4.98428955078125,-0.002540368665196,0.0021223441825248,0.0305605579584836,0.001437232713215,-0.0006353380158543,-0.0013049857225269
4.99426953125,0.0023681721697561,-0.0021730423233006,0.0440250196874141,0.002312894212082,0.0008535124361515,0.0007685560267418
5.00424951171875,0.0026882161706686,0.0040422885275911,0.0319055428266525,-0.0009297707583755,0.0007741497829556,-0.0002447767474222
5.014230712890625,0.0019171587329357,0.001937881860556,0.0390881478071212,0.0009896747069433,-0.0011817403137683,-0.0006811777129769
5.02421044921875,0.0039311289038509,-0.0011565678902901,0.0392383699327707,-0.0011970468331128,-0.0021564569324254,-0.001657226239331
5.03419140625,0.0046888336696662,-0.0058408167163841,0.0340022228449583,0.0001688690390437,-0.0007599303498864,0.0011706739896908
5.044171630859375,0.0031904848706908,-8.56233236845e-05,0.0398386739134788,-8.30660574138e-05,-0.0027751447632908,0.0014260711614042
5.054151611328125,0.0053181810817681,-0.0013130005610175,0.0480699111640453,-0.0020296371076256,0.0001287264749407,-0.0002371217560721
5.0641328125,-0.0043216625913977,-0.0081991068129427,0.0383452204853296,-0.0005105700111016,-0.0019978070631623,-0.0006760107353329
5.074112548828125,0.0073803743085823,0.004126459679706,0.0447796374469995,0.0017979557160288,-0.0006379652768373,6.66253472445e-05
5.084093505859375,-0.0001915222504176,-0.0070506400307174,0.0465729506045579,-0.0014894504565745,-0.0012467643246054,-0.0022412699181586
5.094073486328125,0.0007394932556897,-0.0026978059829212,0.0377449165046215,0.0001295577967539,-0.0003345729783177,0.0001433977740816
5.104053466796875,-0.006968870898243,-0.0018891290816944,0.0389443554222583,-0.0016635486390441,-0.001485857181251,-0.0016337295528501
5.11403466796875,-0.0011909998828545,0.0046727775840088,0.0377460855484008,0.0002497578971087,0.0009821290150284,-0.0038510113954544
5.124014404296875,-0.0002401654314249,0.0027891649276483,0.0380476988434791,-0.0009308213484473,-0.0001486493274569,-0.0008922392735257
5.133995361328125,0.0076943904275074,0.0042835682038683,0.04224222792387,-0.0002249600947834,-0.0012005204334855,-0.0033533009700477
5.1439755859375,0.0019271138713695,0.0094591259445529,0.0405967988044023,0.0012315226485952,-0.0016884114593267,0.0003711297758854
5.153955810546875,-0.0058691477617248,0.0049916160085238,0.0293733940005302,0.0011468158336356,-0.0002876603975892,0.0010665886802598
5.1639365234375,-0.0031320874806493,-0.0084128591614775,0.0423924500495195,0.0013324382016435,-0.0004839356988668,-0.0017217409331351
5.17391650390625,-0.0067560318651609,0.0043644788198173,0.0546627335578203,0.0012433337979018,0.0009072963148355,0.0006822815630584
5.1838974609375,-0.0051034606188535,-0.0037704036504961,0.0465799648672342,-0.0017346128588542,0.0011914558708667,-0.0011792680015787
5.193877685546875,0.0045366022500209,9.46560135111e-05,0.0407458518862724,-0.0001953585306182,-0.0015894118696451,-9.65429062489e-05
5.203857421875,0.0050796961507759,0.0006773238728288,0.0385036259174346,2.27543059736e-05,0.0009254114702343,-0.0016028268728405
5.21383837890625,0.0079931907109916,-0.0015582622926682,0.0456838928103446,0.001240337616764,0.0019208015874028,0.0003279147204011
5.223818359375,0.0055511495874263,-0.0006954349182546,0.0447825600564479,0.0007508485578,0.0007713809609413,0.000930055452045
5.233799560546875,0.0013688772004097,0.0028831633540336,0.0567535683572292,-0.0022441954351961,-0.0005197953432798,-0.0012146901572123
5.24377978515625,0.005033628519345,3.52631096262e-05,0.0425397495657205,-0.0011192762758582,0.0001036506146192,0.0003829401684924
5.253759521484375,0.0071865505032241,-4.60858977399e-05,0.0417903925031423,-0.001452449709177,0.0012227743864059,-0.0007980781956575
5.263740478515625,0.0105682470970787,-0.0031354576146695,0.0393961908429861,-0.0008465806022286,2.14232131838e-05,0.0010605418356135
5.273720458984375,0.0024577866819687,-0.0008901172401383,0.0438894106090068,-0.0007283670129254,-0.0017817635089159,0.0016417813021689
5.28370166015625,0.0021410671493038,0.0141079472642391,0.0414946244269609,0.001050091930665,-0.0019551357254385,-0.0004876822349615
5.293681640625,-0.0027911468221805,-0.0027641948831733,0.0426928943008184,-0.0006673461175523,-0.0009467368945479,0.001765335095115
5.303661376953125,0.0008963643178343,-0.0004738006573636,0.0431435606777668,0.0023215194232761,-0.0026775253936648,3.42803396051e-05
5.313642333984375,-0.0008398118250072,0.0013797730537597,0.0403010307282209,0.0031100381165742,-0.0011511510238051,0.0012313062325119
5.32362255859375,0.0003155139562673,-2.07322607748e-05,0.0404483302444219,0.0010527460835874,-0.0005141226574778,0.0021847179159522
5.333602783203125,-0.0043500849682837,-0.003768129495019,0.0468809936404228,0.0003018169663846,0.0007002465426921,-0.0014391143340617
5.34358349609375,-0.0036746333921328,0.000366677887924,0.0302718041449785,-0.0007109831785783,-0.0018968675285577,0.0008751725545153
5.3535634765625,0.0092047949904575,-0.0002779401585459,0.0440408017784357,0.0024022161960601,-0.0009815171360969,-0.0015526824863627
5.363544677734375,0.001740139931906,0.0037750615593045,0.0398509488731622,-0.0036359690129756,0.0007519340142607,0.0010702648432925
5.373524658203125,-0.0008707732188515,-0.0018788999486248,0.0422451505333185,0.0008742392528802,-0.0007752915844321,-0.0008771342691034
5.38350439453125,-0.0051069129512645,-0.004317589204479,0.0367062211066484,0.0016183264087885,0.0006348518654704,-0.0014723506756126
5.3934853515625,0.0070753269474022,0.0008888751311227,0.0386485873460769,-0.0001868973486125,0.0018365588039159,0.0023472178727388
5.40346533203125,-0.0009490078205242,-0.0044172319203615,0.0453828640371561,0.0020450979936867,-0.0015714885666966,0.0012686378322541
5.413446533203125,-0.0006952705214731,-0.0013300795599818,0.043738019439578,-0.0012448088964447,-0.0004902658984065,0.0001868611871032
5.4234267578125,0.0016914054193533,0.0036056963417679,0.0396978041380643,0.00236297538504,-0.0019928216934204,0.0001575664355186
5.433406494140625,0.0003682305241934,-0.0040383704042993,0.041643677508831,0.0005252509145066,-0.0006963210180401,0.0005678317393176
5.443387451171875,-0.004743541265279,0.0011367580781225,0.0414940399050712,-0.002311548218131,0.0010469844564795,-0.0003059513983316
5.45336767578125,0.0032875520369969,0.0044565410174429,0.0368552741885185,0.0007397739682346,5.92749565839e-05,-0.0002727042592596
5.4633486328125,-0.0001148037523962,-0.0043313620015047,0.0428413628607988,-0.0004887422546744,-0.0020656613633036,-0.0001525956904515
5.47332861328125,0.0006477781179361,-0.0039950609855353,0.0374561626911163,0.0007377999136224,0.0020337337628006,0.0002474578795954
5.483308349609375,-0.0004213672172278,-0.0075340487666428,0.0340133287608623,-0.0002736686728894,-0.0019330447539687,0.0002088420442305
5.49328955078125,-0.0049552295208908,0.0022993538504,0.0405997214138507,-0.0005683921044692,-0.002080668695271,-0.001169690163806
5.50326953125,-0.0012513152353465,0.0008792944520246,0.0389537077724933,0.0011959521798416,0.0003710379824042,-0.0008967161411419
5.51325048828125,0.0062488312616944,0.003363658613665,0.036263153514266,-0.0016808172222226,-0.0015343334525823,0.0013606019783765
5.523230712890625,0.0119985538948327,-0.0002912928304634,0.0410533104002475,-0.001534609706141,-0.0018411297351121,-0.000320118968375
5.53321044921875,0.0037988077610731,0.0015700714614707,0.04584171372056,0.002549352357164,0.0001353584229946,0.0013534683967009
5.543191650390625,0.0085362480791285,0.0032868761835619,0.0310305135577917,-0.0006672135787084,-0.0017885090783238,-0.0016361961606889
5.553171630859375,0.0035352249214425,-0.0018374080276116,0.0389607220351696,0.0003360813716426,0.002018716186285,9.57985030254e-05
5.563152587890625,-0.0051448155425488,-0.0006343432476278,0.0367161579787731,0.0009544674539938,-0.0005650827661156,0.0004758316208608
5.57313232421875,-0.0033030053344555,0.0025417386383749,0.0383627561420202,-0.0017318166792392,-0.0002670120447874,0.0010046620154753
5.583112548828125,-0.0114895997256971,0.0083008227549027,0.0383645097076892,-0.0019177054055035,-0.0010252138599753,0.0001412651618011
5.593093505859375,0.0007716054270043,0.0067996609443333,0.0506342086941003,0.0009877056581899,-0.0006540585309267,-0.0002711206325329
5.60307373046875,0.0039843934610486,0.0076737494982779,0.0440507386505603,-0.0011686558136716,-0.0023670038208365,-0.0012037596898153
5.613053466796875,0.0039038938370533,0.0029587858735118,0.0320803148716688,0.0001295431284233,-0.0019509643316268,0.0005628624930977
5.62303466796875,-0.002924381280411,-0.0073056925040204,0.0328273338466882,-0.003667059354484,0.0004077972844243,0.0001354251580778
5.6330146484375,-0.0003415982455946,0.0018983353014569,0.0331283626198768,0.0001555246999487,-6.09438866376e-05,0.0004867404932156
5.64299560546875,0.007744841973111,0.0015001571635715,0.0445002359837293,-0.0003795044030994,-0.0008116895332932,0.0011243013432249
5.6529755859375,0.0041417942461557,0.0012366930549498,0.0373170464813709,0.0008707356173545,0.002089524641633,0.0009535858989693
5.662955322265625,-0.0065390463799238,-0.0042073246298823,0.0308849676072597,-0.0018944245530292,-0.0012194532901048,0.0010185670107603
5.6729365234375,-0.0020577545137144,-0.0069187846788205,0.0455482837319374,0.001007208134979,0.0016295639798045,-0.0003077336587011
5.68291650390625,0.0042278650944121,-0.0043101730830036,0.0391132822483778,-0.0015763244591653,-0.0012210831046104,-0.0011780547210946
5.6928974609375,6.19410539977e-05,-0.0057258577003609,0.0470452442914247,0.0003799204714596,3.03853303194e-05,0.0007049856940284
5.702877685546875,0.0083160294571891,0.007391854683822,0.0368704717576503,-0.001989760203287,-0.0010013226419687,-0.0016708204057067
5.712857666015625,0.0054316331272944,0.005265811573714,0.0383680168390274,-0.0017043654806911,0.0009328676387667,0.0002854301710613
5.722838623046875,0.0068800418373197,-0.0034751561641227,0.0422568409711122,0.0025244678836315,0.0006188806146383,-0.0018533545080572
5.732818603515625,0.0009649908409453,-0.0012899119463749,0.0422539183616638,0.0023634047247469,0.0003749597817659,-0.0026331357657909
5.742799560546875,-0.0038296595570631,0.0026338008360005,0.0426975704759359,0.0015207807300612,-0.0002855043858289,-0.0001215085721923
5.752779541015625,0.0044638292747549,-0.0015103132314048,0.0394067122370004,0.0010338771389797,-0.0002499986439943,-0.0012424122542142
5.762759521484375,0.0055497248153202,0.0022798636986408,0.037760698595643,-0.0018886758480221,-0.0006739739328622,-0.0010426752269268
5.772740478515625,-0.0002871829109266,-0.0045245190865825,0.040157238343358,-0.0018884323071688,0.0005939975380897,-0.0004427657404448
5.782720703125,0.0051369610296562,-0.0002655738673172,0.0316314020603895,-0.0016447530360892,0.0006877407431602,-0.0001602043339516
5.79270166015625,0.0031044140224345,-0.0009366049966774,0.0471925438076257,0.0003173316363245,0.0018140319734811,0.0011098615359514
5.802681884765625,0.0012861856193281,0.0013667948411777,0.038808746343851,0.002789543941617,0.0007751332595944,-0.0005903004785068
5.812661865234375,0.0008941540944389,-0.0021858835385646,0.0491314029157161,-0.0005559268756769,-0.0009070616215467,0.0005622994503937
5.82264306640625,0.0009018807431682,0.0026818960277363,0.0444949752867221,0.0028004548512399,-0.0012649903073906,-0.0012579711619764
5.832623046875,0.0046245727944187,0.0004705857869703,0.0421013581484556,0.0010659713298082,-0.0012808926403522,-0.0003657425404526
5.84260400390625,0.0064326999286189,0.0012541830458678,0.0370136796206235,-8.18510306999e-05,-0.0006579784676432,-0.0013591016177088
5.852583740234375,-0.0018192330501042,-0.002566379889287,0.0364174672931432,-0.0017755032749846,-0.0008338103070855,-0.0001218947218148
5.86256396484375,0.007155662174616,-0.0013491952524054,0.0447983421474695,0.0006098900921642,0.0008301334455609,-0.0006180416094139
5.872544921875,0.0050933593499474,0.0043345586055889,0.0361199456512928,0.0004645527806133,0.0018128817901015,0.0019600756932049
5.88252490234375,-0.0005556245887652,0.0108939171211794,0.0410591556191444,-0.0025751790963113,-0.0007296381518244,-0.0032253651879727
5.8925048828125,-0.0009980711266398,0.0033117640296462,0.037018355795741,-0.0002850157907232,-0.0003426205366849,-0.0014248646330088
5.902486083984375,0.0040607648991979,0.0025854590490926,0.0412076241791248,0.0022705534938722,0.0017932346090674,-6.26577602815e-05
5.912466064453125,0.0021501089722849,-0.0018324213252402,0.0429997682929038,-0.0007595788338221,0.0012412536889314,0.0005216971039772
5.922447021484375,-0.0004499174582771,-0.0087017956380732,0.0453892937779426,0.0009387189056724,0.0013816021382808,0.0011848241556435
5.932427001953125,-0.0001494732069782,-0.0047179410331416,0.0507739094257354,0.0009506148053333,-0.0006837882101535,-0.0016253711655735
5.94240673828125,0.0058231349292211,-0.0013929795952048,0.0486813210606575,0.0005601954180747,-0.0010949801653623,0.0010977110359817
5.952387939453125,0.0005192929000593,-0.0001126209284644,0.0368593658417463,-0.000442745105829,0.0026309425011277,0.0007921141805127
5.962367919921875,-0.0007088423890992,0.005005534936022,0.0359621247410774,-0.0028576995246112,-0.0009158561006188,-0.0003796766686718
5.972348876953125,0.0027222280381247,-0.0044921055211685,0.044940965488553,0.0020929332822561,0.0007044048979878,-0.0009152111597359
5.982328857421875,0.003827193605341,0.0005965776536613,0.0437403575271368,0.0038045467808842,-0.0011246539652347,-0.0025573163293302
5.99230908203125,0.0070430686456151,0.002872587161092,0.0405944607168436,-0.0007550679147243,0.0024078041315078,0.0010012846905738
6.0022900390625,0.0018230689750052,0.0015031254387926,0.0504711270868778,0.0011706638615578,-0.0008231429383158,0.0004279061686247
6.01227001953125,0.008329875319451,-0.0075389898032415,0.0374532400816679,-0.0006765674334019,-0.0001582512632012,0.0011584527092054
6.022249755859375,-0.0047285811581648,0.0004376698980573,0.0474777904897928,-0.0021676714532077,-0.0009326981380581,0.0025677976664155
6.03223095703125,0.0019438275441527,0.0029097317005507,0.0359551104784011,0.0004991141613572,-0.001503650099039,-0.0001174139761133
6.0422109375,0.0006273563844151,0.0048346810142975,0.0355067821890115,-0.0014412649907171,-0.0009736809879541,-0.0002140867291018
6.05219189453125,0.0016760799860581,-0.0089577157610561,0.0473287374079227,-0.0005351919098757,-0.0008702399209141,0.0003592859138734
6.062171875,-0.0028040245700627,0.0005776354911737,0.0280260710448026,0.0001921174116432,-0.0004438683390617,0.0003728680312633
6.07215185546875,-0.0012953005075454,-0.0030219873028341,0.0358078109622001,0.0008526801830157,0.0006031030789017,-0.002387155778706
6.082133056640625,0.000628708091285,-0.0068322754391469,0.0416466001182794,-0.002690655644983,-0.0020885542035102,-0.0001815255964174
6.092113037109375,0.0048368090393021,-0.000716715168301,0.0349140769928693,0.0021061184816062,-0.0005781147629022,-0.0021037440747022
6.102093994140625,0.0030419249791651,0.0009852481776848,0.0355120428860187,0.0016746865585446,0.0016626697033643,0.00189312803559
6.112073974609375,-0.0013098222232423,0.0057805196302011,0.0376063848167657,-0.0002485366421751,-0.0008004261180758,-0.00131209671963
6.122053955078125,0.0011675276757217,0.0093557203690055,0.0501730209231376,0.0020076935179531,0.0003053182736039,0.0025468238163739
6.132034912109375,-0.0034866000067442,-0.0048898361344821,0.0328150588870048,-0.0012109352974221,-0.0010404102504253,-0.0008444364648312
6.142014892578125,-0.0020291129411198,0.0018581037557683,0.0331166721820831,-0.001594430534169,-0.0006270874291658,0.0011737069580703
6.151995849609375,0.0002140628757886,-0.0014244433125481,0.03506196103096,0.0015464983880519,-0.0015892181545495,-0.0010981009108945
6.161975830078125,0.0042047582134604,0.0056675151092465,0.0313221899807453,-0.0010652637574821,-0.000603849068284,-0.0002365682885283
6.1719560546875,0.0043334808933548,0.0027763237123843,0.0471837759792804,-0.0004961160593666,0.0005622105672955,-0.0015649423003196
6.18193701171875,0.0067909753143787,0.0012023432607762,0.0338636911571025,-0.0003051673993468,0.0014066994190216,-0.0026688224170356
6.1919169921875,-0.0022819186584092,0.0035231691574677,0.0500216297537088,-0.0005731720593757,-0.0012589367106556,-0.0001451072894269
6.201896728515625,-0.0001775667903013,0.003641964098392,0.0453816949933767,0.0019789352081716,0.0008404329419136,-0.0005813330644741
6.2118779296875,-0.0082845931393094,-0.003867744811438,0.0392465532392263,-0.0014575392706319,-0.0013754237443208,-0.0004298749845474
6.22185791015625,0.0037600283869542,-0.001535685134679,0.0395481665343046,0.0002021426334977,-0.0009274799376726,0.0028511392883956
6.2318388671875,-0.0009042005644179,-0.0019557006450369,0.0287730900198221,0.0026024468243122,-1.70962885022e-05,0.0011608842760324
6.24181884765625,-0.0015304427039809,0.0006501801375765,0.0435889663577079,-0.0004705745377577,-0.0011345585808157,-0.0015246473485603
6.251798828125,0.0027669622289948,0.0036970278870314,0.0438888260871171,0.0014888240257278,0.0006962697952985,0.0011486088624224
6.261780029296875,-0.0013911803637631,0.0059365139095112,0.0314659823656082,-2.0921928808e-05,-0.0004736566916108,-0.0006215943139977
6.271760009765625,-0.0045184272725135,-0.0021540544950403,0.0346089565664529,0.0015926606720313,-0.0008614100515842,0.0009148656390607
6.281740966796875,0.0017479579121805,-0.0003312777809798,0.0450830043077468,0.0001795873977243,0.000328223221004,3.30930633936e-05
6.291720947265625,-0.003742985920608,0.0055562367544975,0.052415831413865,-0.0004869669792242,-1.65496021509e-05,0.0004937457269988
6.301700927734375,0.0008497852297499,-0.0019836298315785,0.0434404977977275,-0.0007972252788022,-0.0027263155207037,0.001265263534151
6.311681884765625,0.0063076487768441,-0.0021824220729991,0.0419458753257989,-0.0027052015066146,-0.0012233294546604,0.0011151854414492
6.321661865234375,-0.0006422616926021,-0.0097299696420319,0.0417956532001495,0.0002615599660202,0.0003889482468366,-0.0016718126134946
6.33164208984375,-0.0089776351710781,0.0019904340317007,0.0341658889740705,0.0005471903132274,-0.000400903634727,-0.0004904273082502
6.341622802734375,-0.0032809578994289,-0.0032574765591416,0.0450900185704231,0.0018044685712084,0.0002896543592214,0.00065233517671
6.35160302734375,0.0034635113921016,-0.0082230174114927,0.0470341383755207,0.0014211835805326,0.0007816031575202,0.0012511039385572
6.361583984375,-0.0022155936902388,-0.003553052839078,0.0332674788296222,-0.0010699373669922,-0.0019465386867523,-4.69207079731e-05
6.37156396484375,-0.0013830883888527,-0.0002550433401484,0.0470370609849691,-0.0015027234330773,-0.001344752497971,-0.0007198913954198
6.381543701171875,-0.0028347119692713,0.0034422311420552,0.0492833786070346,-0.0032391045242547,-0.0006147800013422,0.0001831865229178
6.39152490234375,0.0044599385509267,0.0037757556790485,0.0341734877586364,0.0013147030258551,-0.0004384778439998,-0.0010706241009756
6.4015048828125,-0.0071610690020956,0.0008559135764371,0.038963644644618,-0.0037141442298889,0.0004976233467459,4.25771722802e-05
6.41148583984375,-0.001372092070803,-0.0002831369234714,0.0379208575934171,-0.0005914281937293,-0.0020644087344408,-0.0010051584104076
6.4214658203125,0.0027603498251177,-0.0025510270565282,0.0389706589072942,0.0002352170413359,-0.0001392094418406,-0.0001881005446193
6.431446044921875,0.0009431443353183,-0.002323419712577,0.0445031585931777,0.0009427574696019,0.0045965984463691,-0.002523916773498
6.4414267578125,0.0008780614761635,-0.0004493329363875,0.0389607220351696,0.000568849616684,0.0005243588238954,-0.0012229626299813
6.451406982421875,-0.0024451829287223,-0.0069150948843918,0.0283346986025571,-0.0003943052142858,-0.0003391494974493,-0.0002222411276306
6.461386962890625,2.4659517221e-06,0.0070814187614712,0.0298310746401548,-0.0004821895272471,-0.0001274282112717,-0.00151094479952
6.4713681640625,0.0017303309239447,0.0013887600778136,0.0419505515009164,-0.0012683541281148,0.0030386913567781,-0.0010363806504756
6.481347900390625,0.0001665339396335,-0.0004274224986787,0.0340203430235385,-0.0006627513212151,-5.19072636961e-05,-0.0007391718099825
6.491328857421875,0.0012820391671732,0.0002450151364784,0.0455412694692611,-0.0013290123315528,-0.0004621148109436,-0.0016089060809463
6.501308837890625,-0.0061663040773943,0.005494387032045,0.0328261648029089,0.0003895254340022,-0.0010083289816975,-0.0002203338808612
6.511288818359375,0.003151394969318,0.0011006729845888,0.038062896412611,0.0020242445170879,-0.0001081302762031,0.0003104947390966
6.521269775390625,-0.002629124660883,-0.0016606997538357,0.0437497098773717,0.0034375838004052,0.0001043900847434,0.0010162324178963
6.53125,0.0015414938209578,0.000808229376655,0.0415039767771959,0.0004559676162898,0.0006870999932289,0.0009474646067246
6.54122998046875,-0.0039306174471974,0.0011212043159641,0.0458411291986703,0.0003760728286579,0.001696172170341,0.0007037853938527
6.5512109375,-0.0062887248806655,0.0009011044250335,0.0429950921177864,-0.0008603131864219,0.0011230036616325,-0.0014826154801994
6.56119091796875,0.0074785191871225,-0.0052852560597006,0.0359627092629671,-0.0019114627502858,-0.0002157678827643,0.0017896106000989
6.571171875,-0.0047105888437479,0.0014024324101395,0.0314759192377328,-0.0020559937693178,-0.0005885539576411,2.66470888163e-05
6.58115185546875,-0.0022688582474365,0.0069912288605235,0.044795419538021,-0.0011878032237291,0.0011233258992433,0.0003957611916121
6.5911318359375,0.0039977826655842,0.0029587310745846,0.0422509957522153,-0.0011020398233085,0.0009899791330099,-0.0016008579405024
6.601113037109375,0.0050092795293778,0.0022543913306668,0.0361164385199546,-0.0012285399716347,-0.0024862447753548,-0.0002058941754512
6.611093017578125,-0.0001249598202295,0.0016913232209626,0.0510790298521518,0.0007233008509501,0.0006742151454091,0.0001040671486407
6.62107373046875,0.0037317704068496,-0.0004791892185341,0.0374573317348957,0.0011518035316839,0.0009429277852177,0.0006015456165187
6.631053955078125,0.000850844675675,-0.0006620532384607,0.045086511439085,0.0023114210925996,-0.0002939971163868,0.0009219435742124
6.641033935546875,0.0005908785652369,-0.0031923389010597,0.0373059405654668,-0.0004452171269804,7.45840370655e-05,0.0010870594996958
6.65101513671875,-0.0010256167206913,-0.003204403798189,0.0411988563507795,-0.0005256318836472,-0.0014674318954348,0.0022215454373508
6.660994873046875,0.0031448373643681,0.000791744032735,0.0368593658417463,-0.0021632097195833,-0.0013201590627431,0.0034740299452096
6.670974853515625,0.0089577979594469,0.0010182827976066,0.0347650239109992,0.0006401620339602,0.0015002777799963,0.0007272087968885
6.680955810546875,0.0023509835729375,0.0011352876402437,0.0431447297215461,-0.0013449582038447,-0.0014438461512327,0.0020180428400635
6.69093603515625,0.0017854769109748,-0.0012054759327787,0.045839960154891,0.0012686072150245,0.0010804459452629,0.0004427552921697
6.700916748046875,-0.0064710226450115,-0.0014558156983461,0.0331195947915315,0.0012949724914506,-0.0009699221700429,0.0013852480333298
6.71089697265625,0.0010912841017358,-0.0082726013074163,0.0443429995954036,-0.0006631902069784,-0.0010726433247327,0.0021375862415879
6.720876953125,0.0044222368890419,-0.0034169688366353,0.0423982952684164,0.0006635965546593,-0.00033441465348,0.0019876502919942
6.730858154296875,0.0043357824482955,0.0017999164282809,0.0389577994257211,-0.0021479874849319,-0.0001347810029983,-0.0006554373539984
6.740838134765625,0.0004540639104321,0.0036536180035676,0.0464408486574888,-0.0017977819079533,-0.000379791483283,-0.0013358750147745
6.75081884765625,0.0107729028237052,-0.0028292503428645,0.041653029859066,-0.0043357359245419,0.0006584506481885,0.0005972787039354
6.760798828125,0.0072673423881642,-0.0007980733088217,0.0431517439842224,0.0010411865077912,-0.0031267004087567,0.0011384329991415
6.77077880859375,0.0050870940059423,0.0032617326091509,0.0407587113678455,-0.0005057547241449,-0.0010791784152388,-0.0011053155176341
6.780760009765625,0.0046275867354124,0.0024090795688796,0.0349269364744424,-0.0004713999805971,-0.0041679125279188,0.0005295990267768
6.79073974609375,-0.0010736571134999,0.0069348042318597,0.0355278249770402,0.0010796862188726,0.0007850127294659,0.0012395337689667
6.80072021484375,0.0081274846151471,0.001377626762446,0.0385223306179046,0.0015915457624942,-0.0011798674240708,0.0003124873619526
6.810701416015625,0.0019593904394656,-0.0068065290765371,0.0425613768756389,-0.0001690918579697,0.0004984801635146,0.0001650125486776
6.820681396484375,0.0007037460888735,-0.0015498049915768,0.031041034951806,0.0013616932556033,-0.0011228527873754,0.0005892540793865
6.830662353515625,-0.0066799526879563,-0.0027512714695185,0.0304419000148773,-0.0011332761496305,0.0006209686398506,0.0010339603759348
6.84064208984375,0.0016600421667098,0.0003590243044309,0.0317880539268255,-0.0009210222633555,-0.001111950725317,-0.000395091890823
6.850622314453125,0.0081894256691448,0.0006743099318351,0.0436076710581779,-0.00058486207854,-0.0009560957551002,-0.0026476355269551
6.860603271484375,0.0065475584799423,-0.0015009608811698,0.0323877733856439,1.99418282136e-05,-0.0016796765848994,0.0002429593878332
6.870583251953125,0.0056384990773163,-0.0058921085122041,0.0331359614044427,-0.0013628021115437,0.0004011262208223,-0.0012427712790668
6.880563232421875,0.0062136320841498,0.0011743410089984,0.0365787953346967,-0.0003044618642888,0.0003012577071785,0.0005961415008641
6.890544189453125,0.000779441673588,0.0010736023145727,0.0484013350754976,0.0016485897358506,-0.0010466091334819,-0.0026904896367341
6.9005244140625,0.0105626576065085,0.0019649616637267,0.0395756390631198,-0.0005770138814114,-0.0007342202588915,-0.0018406749004498
6.91050537109375,-0.0038842758211307,-0.0048973161880392,0.0395721319317817,0.0031705508008599,0.0012383870780467,-0.0003431075019761
6.9204853515625,0.0026539120422676,-0.0049869398334063,0.0362771820396184,0.0028080944903194,0.0009526293724775,-0.001115956925787
6.930465087890625,0.0002746156902983,0.0006800912186503,0.0534860909938812,-0.0005586560582742,-0.0032187430188059,-0.0005666541401296
6.9404462890625,0.0025172435179352,0.0006387454281095,0.0448071099758148,-0.0017016847850754,-0.0011635813862085,-0.0004742424353025
6.95042626953125,0.0074649473194964,0.0025093342061154,0.0410673389256,0.0008330701384693,0.0016163634136319,5.4763513617e-06
6.96040625,0.0018097711020149,0.0088916921869851,0.0380710797190666,0.0007574362680315,-0.0009940676391124,-0.0002523176372051
6.970386962890625,0.0003266564047895,-0.0009662146836519,0.0379214421153068,0.0002727941609919,-0.0005717072635889,0.0010720166610553
6.980367431640625,-0.0006881649272516,0.0014003683172166,0.0443570281207561,-0.0013759689172729,0.0005702562630176,-0.0013394756242632
6.99034814453125,0.0097817911608144,-0.0029395423169247,0.0359773223102092,-0.0027893199585378,-0.000535525381565,0.0003892530803568
7.000328369140625,-0.0038772615584544,-0.0059348608085419,0.0305891995310783,0.0012624133378267,0.0010131020098924,-0.0013457962777465
7.01030810546875,0.0055817821877077,0.0034393267989158,0.0338823958575725,-0.000272134784609,-0.0006158910691738,0.0003300062089692
7.020289306640625,0.0024226423033513,0.0026393811934161,0.0290945770591497,-0.0001557546202093,0.0002688113600015,-0.0015837412793189
7.030269287109375,0.0073961563996039,-0.0006550755084026,0.0416647202968597,9.55914147198e-05,-0.0004821941256523,-0.0016332113882526
7.040250244140625,0.0066158196768723,-0.0040176107440609,0.0482470212966203,0.0033390554599463,-0.000231591053307,-0.0016686314484104
7.050230224609375,0.0104425931571051,-0.0045357619998045,0.0401677597373724,-0.0003229639842174,-0.0005408721044659,0.0002352373558096
7.060210205078125,0.0026154431954026,0.0025606351350899,0.0449561630576849,-2.0531006157e-06,0.002573162317276,0.0002379005018156
7.070191162109375,0.0074479596520774,0.0030364816190674,0.041212884876132,0.0018146175425499,-0.001072185114026,-0.0022403863258659
7.08017138671875,0.0058855691735632,-0.0045452056815847,0.0473456885427236,-0.0024003675207495,0.0008631339296698,2.01047223526e-05
7.0901513671875,0.0043686800708994,-0.0057695781110785,0.0389689053416252,-0.002397054573521,-0.0001201201230287,0.0003576634335331
7.10013232421875,0.0057320043133571,0.0053813733779359,0.0383715239703655,-0.0024473881348967,-0.0008966978639364,-4.76696732221e-05
7.1101123046875,-0.0010344028153456,0.0077653367718681,0.0410661698818206,-0.0005631448002532,-0.0002005845308303,0.0002306215901626
7.12009326171875,0.0028826062316074,-0.0007216562048997,0.0427121835231781,-0.0013535709585994,-0.0004860758781433,0.0001070509169949
7.1300732421875,0.0063818647905252,-0.0031561898754443,0.029994740769267,-0.0004892115830443,-0.0019764015451073,-0.0013197420630604
7.14005322265625,0.0026673743120394,-0.0010986088916659,0.0391238036423921,0.0013403800548985,0.0017594806849956,-0.0002294439473189
7.150034423828125,0.0173542539753951,-0.0009424593487288,0.0503437013149261,5.78225590288e-05,-0.0006851470097899,-0.0001975607738131
7.160014404296875,0.0059904360538348,-0.0045853002299554,0.0388221903473138,0.0011015153722837,0.0006107473745942,-0.0023603138979524
7.169994384765625,0.0045444384966045,-0.0032829763265792,0.0352326414227485,-0.0004154153284616,0.000225962139666,0.0001442387874703
7.179975341796875,0.0035333982905372,-0.0033849936626385,0.0418184495538473,-0.0019970666617155,0.0013104006648063,0.0005293318536132
7.189955078125,0.0015507183070294,0.0012893822234123,0.0349357043027877,-0.0015379313845187,0.0014214469119906,5.22547779837e-05
7.199936279296875,0.0014942571457475,-0.0061444758380763,0.0358335299253463,0.0003262812970206,-0.0011058934032917,0.0015982197364792
7.209916259765625,-0.0087264551552943,0.0009381484997924,0.0409194548875093,5.61444321647e-05,0.0010655233636498,0.0018297208007425
7.219896240234375,0.005593326495029,-0.0005103698080871,0.0403197354286909,0.0015238124178722,-0.0011353129521012,-0.0014598156558349
7.229877197265625,0.0004185176730155,0.006811716708308,0.0457061046421527,0.0004127067513763,-0.0007846234366297,0.0009520465973764
7.239857177734375,0.0039227081353776,0.0008037906635552,0.0494452911704778,-0.0023708292283117,0.0008028866723179,0.0023275692947208
7.24983740234375,0.0035583866013213,-0.0007424523977562,0.0525870963275432,-0.0003592859138734,-0.0001169312745332,0.0009067274513654
7.259818359375,-0.0017110599678941,-0.0071012377067934,0.0428588985174894,0.0005121004069224,3.24714928865e-05,4.41295560449e-05
7.26979833984375,0.0032680618852376,-0.0023994258245453,0.0552794041514396,-0.0018058234127238,0.0009695142507553,-0.0013805725611746
7.279779541015625,-0.0036427221502177,-0.0023523718124255,0.040765141108632,8.60862201079e-05,-0.0002214517444372,-0.0022753947414457
7.28975927734375,0.0047155207471922,-0.0024831129194702,0.0477975239634513,0.0012457562843337,-0.0018167346715927,-7.12623877916e-05
7.2997392578125,0.0023749672367237,-0.0066180207671131,0.0340314489394426,-9.96725866571e-05,-0.0020300531759858,0.00128215609584
7.30972021484375,-0.0009247684284113,-0.0033877062095329,0.0461556019753217,-0.0003687407006509,0.000116585753858,-0.0006429199129343
7.3197001953125,0.0030370478746481,-0.0095661299829836,0.045106969705224,0.000694925780408,0.0026865359395742,-5.62255154363e-05
7.32968017578125,0.0030798458367586,-0.0022257588912267,0.0296948810398578,-0.000330879818648,-0.0024533662945032,-0.0016849669627845
7.3396611328125,0.0002893200690858,0.00075934873363,0.0413724593520164,-0.0017767099197953,-0.0037902733311057,-0.0013494088780134
7.349641357421875,-0.0013146079962141,-0.0100857608097605,0.0243155260890722,-0.0001219352707266,-0.0003711944445967,0.0003001432633027
7.359622314453125,-0.0034614472991786,-0.0013763481208123,0.0386795670062303,0.0009569113608449,0.0012677144259214,0.0016703397268429
7.369602294921875,-0.0049967671076767,0.0023690398194361,0.0460106405466794,-0.0011694385902956,0.0001259660348296,-0.0005602510063908
7.379582275390625,0.0023159487921744,-0.0033316743065137,0.027754852887988,-0.0008855456253513,0.002141180448234,-0.0024143436457961
7.389563232421875,0.0039203335152007,-0.0016495390390045,0.0325432562083005,-0.001596605987288,-0.0001027565449476,0.0010232593631371
7.399543212890625,0.0016339944100007,0.0054665765765123,0.0410755222320556,-0.0004658277612179,-0.0007384531199932,0.0031292871572077
7.409523193359375,-0.0073329732365906,0.0057952970742247,0.04347323102355,0.0001426981762051,-0.002679350785911,-0.0002473755739629
7.419504150390625,-0.0064537061840295,-0.0013940755737479,0.0415308647841215,0.0020974585786461,0.0004839515313506,-0.0002636208664625
7.429484375,-0.00390241426602,0.0023014270764775,0.0407785851120948,-0.0005563835729844,0.0011645015329122,-0.0001110091034206
7.43946533203125,0.0002254975852556,-0.0019991744605824,0.0382359148919582,0.0033962801098823,-0.0006131585687398,-0.0016114340396597
7.4494453125,-0.0023796434118412,0.002651820549881,0.0312029475152492,0.0007928144186735,0.0004572942852973,-0.0003904025070369
7.459425048828125,-0.0004674165823496,-0.0007245605480391,0.0391325714707374,0.0011611296795308,0.0020400108769536,-0.0007408745004795
7.46940625,0.0009703246031887,0.0012817012404557,0.0436211150616407,0.0001849461114034,-0.0006216429173946,0.0005170321092009
7.47938623046875,0.0029116313966922,0.0029011556684505,0.0494575661301612,-0.0017791350837796,0.0005930243059992,-0.0001793844567146
7.4893662109375,0.0101364498173817,-0.0012917294441256,0.0415326183497905,0.0010822381591424,-0.000374904833734,0.0001090179721359
7.49934716796875,0.0095089473024941,-0.0071443005303852,0.0454226115256547,-0.0009436284890398,0.0020605558529496,0.0013889331603422
7.509327392578125,-0.002535875153169,-0.0016750753390602,0.0511111785560846,-0.0009634098387323,-0.0014647357165813,0.0014046289725229
7.51930810546875,0.01246273734048,-0.0006582812456414,0.0464735818833112,-0.0007120074587874,0.0020735403522849,-0.0011272382689639
7.529288330078125,0.0100103209533728,-0.0087584942613728,0.0547054036557674,-0.0009989328682422,-0.0006049899384379,-0.0001946402189787
7.539268310546875,0.0042109322259202,-0.0012635901950299,0.0416863476067781,0.0010082916123792,-8.16788524389e-05,-0.000614088086877
7.54924951171875,0.0049493477693758,-0.0088586301675997,0.0395908366322517,-0.0001815395662561,0.0010122340172529,-0.0006135166622698
7.559229248046875,0.0007730667317286,0.0067849839650094,0.046623219487071,-0.0014950105687603,-0.0004671523347496,-0.0005756997852586
7.569209228515625,0.0011819397935643,-0.001348857325688,0.0434784917205572,0.0023757147137075,0.0001121237874031,-0.0017544976435601
7.579190185546875,-0.0001596840737387,0.0115424806904047,0.0356944137156009,0.0031464335042983,0.0020884554833173,0.0010649909963831
7.589170166015625,0.0140908317326568,-0.0004927702193148,0.0368926835894584,-0.0022672777995467,-0.0001940978690981,-0.0009182975627481
7.599151123046875,0.0069826984941959,-0.0024795235897414,0.0454255341351032,-0.0004669810296036,0.0003382675349712,-0.0015007308684289
7.60913134765625,1.14895083941e-05,-0.0009683701081201,0.0451245053619146,0.0006298488005995,-0.0007546413689851,-0.0005752745200879
7.619111328125,0.0131706116151995,-0.0062344648096244,0.0485661702483892,-0.0003054533153772,0.001115963794291,-1.86738616321e-05
7.62909228515625,0.0016393647048622,-0.003291579758143,0.0455740026950836,0.0002224302152171,0.0006865393370389,0.0002010141761275
7.639072265625,0.0008717230669222,0.0002054320447612,0.0458750314682722,-0.0009147395612671,-0.0015678266063332,-0.0015396279050037
7.64905224609375,0.0035764702472835,-0.0010689718052279,0.0371972194939851,-0.0020222498569637,-0.0011456245556473,0.0002120864228345
7.659033203125,0.0077621584340929,-0.0021806045752484,0.0383949048459529,-0.0012107847724109,-0.0001019313931465,-0.0001804635103326
7.66901318359375,0.0038495881002396,0.0088535521336831,0.0333054727524518,0.0011870684102177,-0.0007009236142039,-0.0038224451709538
7.678994384765625,-0.0009684066407382,-0.0004789152238983,0.0416886856943368,0.0001857198076322,-0.0006793523207306,0.0001334143598796
7.68897412109375,0.0132319316146895,0.0003358260919339,0.0383954893678426,-0.0008008397417142,0.0001599807292222,-0.0004627844027709
7.698954345703125,0.0044450149764306,-0.0048733690568711,0.0343558585882186,-0.0005068267346359,-5.60013577342e-05,-0.0039563188329339
7.708935302734375,0.0042633200002834,0.0058957069750875,0.0451291815370321,0.0005349405109882,0.0012759342789649,0.0002648479421623
7.718915283203125,0.0032530835118144,-0.0015011070116423,0.0455798479139804,0.0001234820811077,-0.0002913363277912,-0.0004744455800391
7.728895263671875,0.0086676924390718,-0.0067082837332971,0.0449795439332723,0.0015918726567178,-0.0002537909895181,-0.0009582992643117
7.738876220703125,-0.0013295681033283,-0.0025878519355785,0.0482715712159872,0.0011905343271791,-0.0012679230421781,-0.0003066237841267
7.748856201171875,-0.0002041808025911,-0.0027867537748534,0.0466308182716369,0.0012964621419087,-0.0013999110087752,0.0008225310593843
7.758837158203125,-0.0021755174081772,-0.0055444458520039,0.0437877038002014,-0.0010018459288403,0.0004344740882515,-0.0017977531533688
7.7688173828125,0.0044248672375455,0.0016865374479908,0.0445323846876621,-0.0004263437003828,0.0010214010253548,-0.0005502063431777
7.77879736328125,0.0023670396585948,0.0023909593902993,0.0383989964991807,-0.0013107794802635,-0.0016598692163825,0.0003547358210198
7.7887783203125,0.0066718424467369,6.24433774966e-05,0.0440881480515003,-0.0003432414960116,-0.0006744069978594,-0.0013222189154475
7.798757080078125,-0.0033899712318554,0.0003644676645286,0.0372024801909923,-0.0003669436555355,0.000721089541912,-0.0002822544483933
7.80873681640625,0.0091091525962576,-0.0083656316194217,0.0388490783542394,0.0001229572808369,-0.0007109781727194,-0.0008797667687758
7.818718017578125,0.0075443509649485,0.0003836746884975,0.0404980146050453,-0.0002938273828476,-1.32303684949e-05,-0.0008070624899119
7.828697998046875,0.0013682013469748,-0.0004353592099621,0.0413958402276039,0.0006095819408074,-0.0021300511434674,-0.0012746262364089
7.838678955078125,-0.0064274574979208,-0.0019803144964855,0.0330190570265054,0.0004029206465929,-0.0012197829782962,0.0010516449110582
7.8486591796875,-0.0001323211427778,-0.0030928605819586,0.0324216756552457,-0.0012927210191264,-0.0008821729570627,-0.0016790924128144
7.858638916015625,0.0016027407552115,-0.0041702166230417,0.0487356815963983,-0.0017782151699066,-0.0017045568674802,0.0002301276836078
7.8686201171875,0.0097097305716015,-0.0057494943042751,0.0421533805966377,0.0010310737416148,-0.0013220645487308,-0.0013655931688845
7.87860009765625,0.008745397317782,-0.0013196403643582,0.0375169529676437,-0.0005369954160414,-0.0001228433102369,0.0002293739380547
7.888580078125,0.0029221162580884,-0.0062078599304892,0.0382692326396703,0.0011368169216439,-0.0028718942776322,-0.0012285688426345
7.898560791015625,-0.0053031479094177,-0.0064676890436094,0.0487438649028539,0.0015578627353534,0.0010818354785442,-0.0002040507388301
7.908541015625,0.0119943161111325,0.0017932674917858,0.0363221902251243,-0.0006668885471299,0.0006279526278376,0.00014676740102
7.918521240234375,0.0014781097285449,-0.0117869295713026,0.0393155268222093,-0.0013028513640165,0.0010093171149492,0.0001648768811719
7.928502197265625,0.0129933736184611,-0.0002839954399969,0.0366220499545335,-0.001189901609905,-0.0002168882638216,-0.0003018694114871
7.93848193359375,0.0174473938852548,0.0057683816678356,0.0451484707593917,0.0002644505584612,0.0014981878921389,-0.0004997422802262
7.948463134765625,-0.0001656023578718,-0.0022189090253319,0.0376601608306169,-0.0023237667046487,0.0011976677924394,-0.0007438515312969
7.958443115234375,0.0033057087481953,0.0028334333276376,0.0476852957606315,-2.35945917665e-05,0.0003683594986796,-0.0016405378701165
7.968423095703125,0.0062237150867469,-0.003277715629572,0.0402045846164226,-0.0008235611021518,-0.0018139099702239,0.0021373576018959
7.978404052734375,0.0008769106986932,-0.0021531685790512,0.0405085359990596,-4.08580526709e-05,-0.0016024550423026,0.0022225787397474
7.9883837890625,0.0037130839726887,0.0025324593533761,0.0536760606080293,0.0001510977745056,-0.0012085298076272,-0.0029455011244863
7.998363037109375,-0.0017714118530042,-0.00200510187787,0.0303343479871749,0.0008086322341114,-0.0006529949605464,-0.0042544449679553
8.00834423828125,-0.0085705704738385,-0.0026336090397555,0.0366179583013057,0.0003737523220479,0.0026709558442234,-0.0004902277141809
8.018323974609375,-0.0046744946170598,-0.0095208021370694,0.0445475822567939,-0.000892847077921,-0.0006476091220974,-0.0014814562164247
8.028303955078124,-0.0038438707455061,-0.0030453225126489,0.0469447065263986,-0.001474761404097,-0.0017088940367102,-0.0002606047783046
8.038284912109376,0.0040257483847439,0.0075695858709048,0.042906244790554,0.0007069001439958,-0.0014692097902297,0.0009239693172276
8.04826513671875,0.0051860426020808,-0.0025053430175874,0.0478472083240747,0.0003492663381621,0.0002809884026646,-0.0028418030124157
8.05824609375,0.0075842263176105,0.0060292428274173,0.0360258376270532,-0.0010097447084262,0.0009702146053314,-0.002179208677262
8.068225830078125,0.003667783526238,0.0048641993697267,0.0436561863750219,0.0013188616139814,-0.0010688649490475,-0.0001522700622444
8.0782060546875,-0.0005907141684554,-0.0044131402671337,0.0479974304497241,-0.0010273832594975,-0.0004028091207146,-0.0007911623688414
8.088187255859374,0.0006192644095048,-0.000920667642029,0.0451543159782886,0.00223478092812,0.0010384041815996,-0.0008814828470349
8.098167236328125,0.0060785709950141,0.0033018271575216,0.0292921454578638,0.0011202478781342,-0.0003056935966014,-0.0005352719454094
8.10814697265625,0.002955927196145,0.005747201882489,0.0481494061410427,-0.0011033352930098,-0.0024581160396337,0.0020821127109229
8.1181279296875,0.0035372342154383,-0.0078974752515554,0.045459436404705,-0.0007286284817382,-0.0017209528014063,0.0019391010282561
8.12810791015625,0.0142887106586247,0.0015443068325519,0.0385784447193145,-0.0008061657426878,1.74175947904e-05,0.0004492449515964
8.138089111328124,0.0035091406321153,-0.0009935136825311,0.0396241543799638,-0.0001550228334963,0.0003630965948104,-0.0007592975161969
8.148069091796875,0.0081889507451094,-0.0048620074126403,0.0493511831462383,0.0020358567126095,-0.0016052275896072,-0.0002068740286631
8.158049072265625,0.0022545009285211,-0.0080467749285977,0.039325463694334,0.0012203966034576,0.0003101173788309,-0.0018143580527976
8.168030029296874,3.35369434207e-05,-0.0066185687563847,0.0402197821855545,0.0008184331236407,0.0019814930856227,0.0009856895776465
8.17801025390625,0.0115348088406026,-0.0037990543562453,0.0462052863359451,0.0002170914085581,0.0015780236572027,0.0004639763210434
8.187990234375,0.0050923729692585,-0.0033992139842361,0.0460556487321853,0.0013603263068944,-0.0014958195388317,-0.0015787297161296
8.19797119140625,0.0012300349853001,-0.0027638478233013,0.0456038133114576,0.00087616359815,0.0001345677301287,0.0003478009894024
8.207950927734375,0.0026866635343991,-0.0057768024363089,0.0435065487712621,-0.0001450943527743,-0.0007143961265683,0.0007981713861227
8.21793212890625,0.0004667772615328,-0.0015449004875961,0.0324339506149291,-0.0004327157512307,0.0001527294516563,0.000545703805983
8.227912109375,0.0053961051561869,0.0010032496252562,0.0354261181682348,-0.0029564392752945,-0.0025037284940481,0.0016993698664009
8.237892333984375,-0.0032316571312956,0.0027407683418132,0.039767362242937,-0.0008085999870672,0.0009727617725729,0.0003454187826719
8.247872802734374,0.0091127327928319,-0.0026256083963904,0.0411123471111059,-0.0002613749238662,6.3180923461e-06,0.0002495303633622
8.25785302734375,0.0019320823074318,-0.0046255683082621,0.0505383471041917,0.0018089663935825,-0.0018198117613792,0.0002540577552281
8.2678330078125,0.002396905073896,0.0022630221616942,0.0310860431373119,-0.001072607235983,-0.0013967538252472,-0.0010347224306315
8.277814208984376,0.0027348317913711,0.0006701726128347,0.0370715472877025,-0.0002997578703798,-9.07396897673e-05,-0.0010951762087643
8.2877939453125,0.0098489198465831,0.0015878171807155,0.0376683441370725,0.0009387178579345,0.0012665893882513,-0.0009069665102288
8.29777392578125,0.0081906677781604,0.0020752353714779,0.048441667085886,0.0033518080599606,-0.0009912382811307,0.0015458047855645
8.3077548828125,0.0011188479620963,0.0031759083560667,0.0433510659486055,0.0002698876196518,0.0027224691584706,0.0003607075195759
8.317735107421875,0.001045965388976,-0.0070995572063606,0.0426011243641376,0.0006240879883989,-0.000180909410119,0.0004078454803675
8.327716064453124,0.0104728786975145,0.0147389843099284,0.0421522115528583,-0.0030179396271705,-0.0006816601380705,0.001350954407826
8.337696044921875,-0.0062122255783528,-0.0002748257528524,0.0288362183839082,-0.0002900639083236,0.0012094499543309,-0.0012909013312309
8.347676025390625,0.003786295339372,0.0036019243489485,0.0354167658179998,-0.0017579819541424,0.0002688625827431,-0.0031999996863305
8.3576572265625,0.010941263394244,0.0004356971366796,0.0408037195533514,-0.0017111103516072,0.0006808536127209,-0.001829536864534
8.36763720703125,0.0119441020275466,-0.0071955649267416,0.0325754049122333,0.000252366065979,-0.0027845725417137,-6.81205565342e-05
8.377616943359374,0.0051165575624443,-0.0050888475716114,0.0415548301815986,0.001298721996136,0.0042099533602595,-0.0010652081109583
8.387597900390626,0.0052446226552128,0.0066208794444799,0.0467880546599626,-0.0006362517597153,-0.000933545641601,-0.0003276618372183
8.397577880859375,0.0057432015608064,-0.0029082703958265,0.0461871661573648,-0.0004024262307211,0.0008888551965355,-0.0006648180424235
8.407558349609374,-0.0026085933295078,0.0005348466622177,0.041401100924611,-0.0013168785953894,-0.0010515004396438,-0.0023088636808097
8.4175390625,-0.0014752419180236,0.0104828064364846,0.0418523518234491,-0.001112614176236,-0.000114600174129,0.0015487251803278
8.42751904296875,-0.0026214345447719,0.0030110092510934,0.0309282222270965,0.0009835173841565,0.0013354877009987,0.0006415870739147
8.4375,0.0113194673231802,0.006111989207426,0.0382581267237663,0.0006745908176526,-0.0005606822669506,-0.0001914497697725
8.447480224609375,0.0092162479662336,-0.0001184204815886,0.0364618909567594,0.0020082341507077,-0.00219979416579,0.0009859335841611
8.457460205078124,0.0097086163267493,-0.0066864280945155,0.0440939932703971,0.0008423022227361,0.0001104976981878,-0.0026029422879219
8.46744091796875,0.0018294804494827,-0.0043132144234608,0.046037528553605,-0.00106675515417,0.000495315529406,-0.0007662899442948
8.4774208984375,0.0043457741193473,0.0076482405976857,0.0499275217294692,-0.0007594263297505,-0.0007145581766963,-0.0005122243892401
8.48740087890625,0.0026257453937083,0.0017379571079742,0.0421504579871892,-0.0025912802666425,-0.0005018347874283,-0.0009818968828767
8.497382080078125,0.00092363591725,-0.0052787623868323,0.034071780949831,0.0002708190586417,-0.0014975909143686,4.42190212197e-05
8.507362060546875,0.0124081758753396,-0.0062205458821263,0.0435018725961446,-0.0022084128577262,-0.0018287627026438,0.0011896456126123
8.517343017578124,0.0068065382096916,-0.000923982977122,0.036772272080183,-0.002726397709921,-0.0014300867915153,-0.0017033462645485
8.527322998046875,0.0042076260239817,-0.0106613230748567,0.0406622652560472,3.80491837859e-05,0.0003883941099047,-0.0002572587982285
8.53730322265625,0.0115080121652223,-0.0070620747401844,0.0424585010230541,-0.0025907570961862,0.0009551150724291,-0.0014447623398154
8.5472841796875,0.0095811540221795,-0.0010899232617113,0.0488917489409446,0.0022234548814594,-0.0011070081964135,-0.0002213876141468
8.557263916015625,0.0042996882216073,-0.0086056417872197,0.0512871196448802,0.0006878762505948,-0.0003293650224804,0.0015354997012764
8.567243896484374,0.0067995787459425,-0.0006927223713602,0.0455985526144504,0.0009738483931869,0.00160863250494,0.0015608626417815
8.57722509765625,0.0082250632381066,-0.0033211072467267,0.0349754517912864,0.0014699953608214,-0.0016817022114992,0.0034043027553707
8.587205322265625,0.0086757844139821,-0.0043409609469119,0.039316111344099,0.0034657744690775,-0.0019426057115197,-0.0001762516913004
8.59718505859375,-0.0014807948759756,-0.0014845029367133,0.0420084191679954,-0.0003745038993656,0.0009357389062643,0.0022488227114081
8.607166015625,-0.0043410614116117,-0.0028833825497422,0.0357218862444162,0.0006338766543194,-0.0010776687413454,0.0018370079342275
8.61714599609375,0.0061491154805757,0.0003309215879533,0.0402110143572092,0.0004650321789085,0.0009708348661661,0.0017331446288153
8.627127197265626,0.0028047917550429,-0.0028370043910574,0.0551736056894063,0.0006805508164688,-0.0005635637789964,0.0001534376788185
8.63710888671875,0.0003768704883754,5.19128503277e-05,0.0435007035523653,-0.0009149489924311,0.0001328531652688,0.0008224237244576
8.647089111328125,0.0011296433507464,-0.001415054429695,0.0414040235340595,-0.000672772352118,0.001913946121931,0.0019368855282664
8.657069091796876,-0.0043243842714466,-0.0013724573969841,0.0472346293836832,-3.76084353774e-05,0.0001072576269507,-0.0024432153441011
8.667050048828125,-0.0087071476666256,0.00480262364191,0.0396054496794939,-0.0023556388914585,-0.0018318211659789,0.0021401867270469
8.677030029296875,0.00520032685576,-0.0015139482269063,0.0478401940613985,-0.0005521461716853,-0.0002909153699874,0.000236292835325
8.687010009765626,-0.000542070987448,0.0056946314450353,0.048736266118288,0.0011234721168875,-0.0005349516868591,0.0003282264224253
8.6969912109375,-0.0096930168988183,-0.0002377360123209,0.0409545262008905,0.000701094744727,-8.72742384672e-05,5.33881902811e-05
8.706970947265624,0.0038712519427761,-0.0082292553560342,0.0434995345085859,0.0004702776204794,-0.0006105937063694,0.0006166209932416
8.716951904296875,0.0012362089977599,-0.0087404106154106,0.0354173503398895,0.0022814935073256,0.0002501402050256,-0.0018342861440032
8.72693212890625,-0.0012729242789559,0.005589855896309,0.0440945777922868,0.0004551967140287,0.0017241071909666,0.000382311118301
8.736912109375,0.004421232242044,-0.0020230576596688,0.041401100924611,0.0012552103726193,-0.0013864655047655,0.0025898055173456
8.74689306640625,0.0067580046265386,-0.0011712905353866,0.0309241305738687,-0.0007017561001703,0.0009038252755999,-0.0001776329736458
8.756873046875,0.0008364873567596,0.0086861688106786,0.036458968347311,-0.0015622234204784,0.001838594675064,-6.65791594656e-05
8.76685302734375,0.0082163867413066,0.0061309587693773,0.0467851320505142,-0.0010278039844706,-0.0003479784354567,0.0004218401445541
8.776833984375,0.0135695660712197,0.0008542787417769,0.0457405914336442,0.0004648978356271,6.295740604400635e-07,0.0004261012072674
8.78681396484375,0.0086115235387347,-0.0009340659797191,0.046485272321105,-0.0002495751250535,0.0018546599894762,-1.79885118996e-05
8.796794189453125,0.0038176403257064,0.0011884334664326,0.0451379493653774,0.0002404465340077,-0.0027699200436472,-0.0006036176346242
8.806775146484375,-0.0040899361947551,-0.0054769061742816,0.0466390015780925,0.0012042091693729,-0.0008664159104228,-0.0005819363286718
8.81675537109375,0.0041049693671055,-0.0105185353369917,0.0339215588241815,0.0005320272175595,-0.0018033161759376,-0.0004399898170959
8.826736328125,0.0075624346109107,0.0046987248760182,0.0399076474964618,-0.0004174316418357,0.000912070274353,-0.0003510984242893
8.83671630859375,-0.0028760120940394,-0.0022862660399638,0.0378115520000457,9.94879519566e-05,0.0030061146244406,0.0008649009396322
8.8466962890625,-0.0001842522594146,0.001500321560353,0.03526712821424,0.0005540943238884,0.0001195780932903,-0.0014309672405943
8.85667724609375,0.0085744794639758,0.0033679146636743,0.0418535208672285,-0.0010296875843778,-0.0014721937477588,-0.0016799727454781
8.8666572265625,0.0088260613385587,-0.0036366303361486,0.0391635511308908,-0.0027144709601998,-0.002161213196814,0.0002920473634731
8.876636962890625,0.0020824505635537,0.0018134152306709,0.0485918892115354,-0.0007107087294571,0.0019661542028188,0.0023480076342821
8.8866181640625,0.002123458427377,-0.0053197702506557,0.0433563266456127,-0.0012804059078916,0.0008113151416182,-0.0001930878206621
8.896598388671874,0.0028334150613285,-0.0019568422893527,0.054575639796257,-0.0024577893782407,0.0029703397303819,-0.0005491524352692
8.906578369140625,0.0004221892011351,-0.0066340403201524,0.0476911409795284,0.0023544973228126,-0.0004139943048357,-0.0009833469521254
8.916559326171875,0.0073091174369677,0.0050462688052095,0.0451473017156124,-0.0016162757528945,-0.0008283825591206,0.0024523972533643
8.926539306640626,0.0110759043582715,-0.0009444595095701,0.0415565837472677,0.0005887867882847,0.0021810587495565,0.001609151950106
8.936519287109375,0.0058622430969029,0.0024364881656132,0.0417027142196893,-0.0001385225914418,0.0008100634440779,4.02838486479e-05
8.946500244140625,0.0037403190394863,0.0030400161498691,0.0339209743022918,-0.0008146485779434,-0.0001154402270913,-0.002172176958993
8.956480224609376,0.0039232926572673,-0.0039699630768969,0.0466401706218719,0.0009536904981359,-0.0006771003827452,0.0011794113088399
8.96646142578125,0.0042811661842279,-0.0091390362778678,0.0428986460059881,0.0010551093146204,-0.0019997926428914,-4.16206494264e-05
8.976441162109374,0.0075221939320676,0.0009990940399467,0.0439437711447477,0.0021507337223738,0.0006127683445811,0.0024534948170185
8.98642138671875,0.0129005442358553,-0.0035611722134519,0.0376578227430582,-6.31375005468e-05,-0.0022650109604001,-0.0007965660770423
8.99640234375,-0.0034111236177384,-0.0041727647731546,0.0402016620069742,-0.001236792653799,-0.0006857570260763,-2.9575676308e-05
9.00638232421875,-0.0032864012595266,0.0029837193853687,0.0455886157423257,-0.0035450439900159,-0.0006069205701351,-0.0005013610934838
9.0163623046875,0.0133087597105652,0.0005073923997115,0.0503776035845279,-0.0018147884402424,-0.0009563276544213,-0.0036620006430894
9.02634326171875,0.011655220349878,0.0060549069916363,0.0381067355543375,0.0002035934012383,0.0005650287494063,0.0013740513240918
9.0363232421875,-0.0001631729387678,-0.0011397902854252,0.0434942738115787,0.0004360873717814,0.0006816750392317,-0.0006089383969083
9.04630419921875,0.0077705792025662,0.0014988693887833,0.0421481198996305,0.0002018811646848,0.0006467988714575,-0.0010155270574614
9.0562841796875,0.01040374071775,0.0027986908078193,0.0301730199456214,0.0023071100004017,-0.0007857158780097,0.0030804146081209
9.066264404296875,0.0022880013393238,-0.0041073805199004,0.0400502708375453,0.0009732578182592,-0.0009840168058872,0.0001834185386542
9.076245361328125,0.002628083481267,-0.0044282191052567,0.0463344656735658,0.001154086436145,0.0014527756720781,0.0007834286661818
