seconds_elapsed,ax,ay,az,gx,gy,gz
0.0738818359375,-0.0055468387384898,-0.0021425649866461,0.0555108748197555,3.25769651681e-05,-0.0011794893071055,0.0016818484291434
0.083861083984375,-0.0076643058164976,-0.0063968979628756,0.0456359620153903,1.9664352294e-05,0.0005607912316918,0.0005496260127983
0.09383984375,0.0024464250377379,0.0018653920130804,0.0427916785001754,-0.0017654525581747,0.0001016622409224,-6.02378604526e-05
0.103819091796875,-0.0045318530096672,0.0076484323939308,0.039051322928071,5.02206967212e-05,0.0002579521387815,-0.0007097441703081
0.1137978515625,0.0038028628816828,0.0064688124216161,0.0474368739575147,0.0024284233804792,-4.24524769186e-05,-0.0004098722711205
0.123776123046875,0.0002618110076524,0.0101871753576211,0.0484878443151712,0.0005040520918555,0.0001678224653005,-0.0009479064610786
0.1337548828125,0.0097410755579359,-0.0010490341288968,0.046397594037652,-0.0001401664922013,-0.0007136836647987,0.000697394425515
0.143734130859375,0.0118989842441864,0.0051065476250834,0.0461035795271396,-0.0023198127746582,-0.0020219236612319,0.0005256014992482
0.153712890625,0.0044093408748507,-0.004482570507843,0.0411684612125158,-0.0003442798624746,0.0002593398094177,7.89893747423e-05
0.163692138671875,-0.0010886720195412,-0.0023522804808802,0.0441629668533802,-0.0001973028411157,0.000945390202105,0.0013064229860901
0.1736708984375,0.0165547558944672,0.0095784140758216,0.0510416204512119,-0.002893753349781,0.0011179633438587,0.0009937678696587
0.183650146484375,0.0090522165109403,0.000700092827063,0.0567301874816417,0.001719560008496,-0.0013561518862843,-0.0016242115525528
0.19362890625,-0.0014384353052824,-0.0022240875239484,0.0434106871813535,-0.0043473872356116,3.72137874364e-05,-0.0008420411613769
0.203607177734375,-0.0012354783453978,9.04547624289e-05,0.0461000723958015,5.31373079866e-05,-0.0009793536737561,0.0022486108355224
0.213586181640625,-0.0067157181210815,0.0028254326842725,0.0496902058422565,0.0009122730116359,0.0007365215569734,0.0010896031744778
0.22356494140625,-0.0014973076193593,-0.0016627273141406,0.0589636456221342,0.0002553440281189,0.0008088266476988,-0.0013129659928381
0.2335439453125,-0.0027502850888296,0.0015981741779483,0.0465478161633014,-0.0015271096490323,-0.0003427239134907,-4.26381775469e-05
0.24352294921875,-5.7173547334e-06,-0.0014522263686172,0.0414607221573591,0.0013408276718109,0.0014335270971059,-0.0025114468298852
0.253501953125,0.0109085301684215,-0.004421908095479,0.0447492423087358,-0.0009409686899743,0.0010098181664943,-0.0013636243529617
0.26348095703125,0.0050773215305991,-0.0003908807474188,0.0378659125357866,-4.8461894039e-05,0.0001267520710825,-0.0013027297100052
0.2734599609375,-0.0003498180846683,-0.0058973874755203,0.0371183090388774,0.0006641999934799,-0.001434126868844,0.0034755137749016
0.283438232421875,-0.0079652432581409,-0.0042785175694152,0.0477425789058208,0.0005509238108061,0.0005667638033628,9.71698173088e-05
0.2934169921875,-0.0082861092429608,0.0010217990620993,0.0519330163329839,0.0007719661225564,0.0003835391253232,0.0002268657553941
0.303396240234375,-0.0015513758941553,-0.0004936470021493,0.0429570981949567,0.0015265613328665,-0.0001848554238677,-0.0004131955793127
0.313375,-0.0082342877241782,-0.0029707959717139,0.0366746569246053,0.0014938046224415,-0.002848282456398,0.0009556692675687
0.323354248046875,-0.0002746339566074,-0.0021911899013444,0.0459533574014902,-0.0007636125083081,0.0004170946776866,0.0001474247110309
0.3333330078125,-0.0032243506076745,0.0010489975962787,0.0502858336478471,0.000622296531219,0.0018711807206273,0.0025008600205183
0.343312255859375,-0.0031149354164488,-0.0013134024198167,0.044150107371807,-0.0002332954318262,-0.0006300220265984,-0.0010286590550094
0.353291015625,0.0063026986070908,0.002658204624895,0.0556768790364265,-0.0030173640698194,-0.0003722282126545,5.3649633628e-05
0.363269287109375,0.0008188969011418,-0.0030063787417486,0.0486468342691659,-0.002020236570388,-9.08458605408e-05,-0.0006289581069722
0.373247802734375,0.003964099591691,-0.004813537761569,0.0630149668395519,0.0006178907933644,-0.0012860726565122,-0.0013397558359429
0.38322705078125,0.0060717393954284,-0.0033866102309897,0.0507464368969202,0.0002319788909517,-1.1826865375e-05,0.0003486156056169
0.3932060546875,0.0063178779099136,-0.0045853184962645,0.0399748675137758,0.0001353060943074,-0.001805200241506,0.0021244115196168
0.40318505859375,-0.0084265771595761,0.0012438991138711,0.038327684828639,-0.0024360879324376,-0.0003045266494154,0.000957409502007
0.4131640625,0.0009466514666564,0.0081037018807604,0.0386252064704895,0.0003447847557254,0.0004728492349386,0.0001917507324833
0.42314306640625,-0.0032511107504367,-0.0046208282010629,0.0499941572248935,0.0002591729280538,0.0027370695024728,-0.0032838338520377
0.4331220703125,-0.0022456600349396,0.0051864261945709,0.0525391655325889,0.0004874057485722,-0.0020281244069337,-0.0007927129627205
0.443099853515625,0.0005849602811038,0.0166401691555976,0.0522381367594003,-0.0009298038785345,0.0018513984978199,0.0002787084667943
0.4530791015625,-0.0004597812651656,-0.003771737091057,0.0407119496166706,-0.0004693433002103,0.0005752118304371,-0.0012004111194983
0.46305810546875,0.0003844875392504,-0.0004073934908024,0.0487923802196979,-0.0002022282569669,-0.0002064267173409,0.000904978136532
0.473037109375,-0.001558189227432,0.0002340644842013,0.0492395394653081,-0.0002461703843437,0.0005483133718371,0.0027734518516808
0.48301611328125,-0.0074158840133808,-0.0058949763227254,0.0460994878739118,0.0018787863664329,-0.0001028506085276,0.0010589418234303
0.4929951171875,0.0054250024571083,-0.0106668486333452,0.0520844075024127,4.78629954159e-05,-0.0012520039454102,0.0024499108549207
0.50297412109375,0.0107150534229353,-0.0035310602029785,0.0534340685456991,-0.0003998069732915,-0.0001470567658543,0.0022791477385908
0.512953125,0.0059076348748989,-0.0136911466242745,0.0465513232946395,0.0011757190804928,-0.0017588017508387,0.0003526168293319
0.522930908203125,-0.0002884798188693,-0.0107952059870585,0.0484971966654062,0.0015327257569879,0.0014763101935386,0.0010792075190693
0.532909912109375,-0.008402282968536,-0.0015615684946067,0.0389186364591121,-0.0046567269600927,0.0017876336351037,-0.0005780776846222
0.542888916015625,-0.0073164604932069,0.0012777283182367,0.0463952559500932,-0.0024181962944567,-0.0008449768647551,-0.0008007264113985
0.5528681640625,-0.0129043253618292,0.0023447364952415,0.0547743772387504,0.0012095617130398,0.0002463869750499,0.00148612994235
0.562847412109375,-0.009211535258498,0.0095353055864572,0.0583680178165435,-0.0021580499596893,-0.0018370999023318,0.0001385133218718
0.572826171875,-0.0046801571728661,0.0041218109040521,0.0480401005476713,-0.0027657833416014,0.0008196691051125,-0.0013328831410035
0.582805419921875,0.0029096221026964,0.005832450746838,0.0496837761014699,0.0008177435956895,-0.0009057829156517,-0.0013361397432163
0.592783203125,0.0044544403919018,0.0017518486360087,0.0516354946911334,0.0016222846461459,-0.0033915773965418,0.0002335273602511
0.60276220703125,-0.0021044249333441,-0.0065202320815995,0.0520896681994199,0.0017400113865733,0.002333658747375,0.0001517000782769
0.6127412109375,0.0097377510896883,-0.0032246246023103,0.0420616106599569,-0.0006786715239286,4.94653359055e-05,0.0007200186373665
0.62272021484375,0.008123648690246,-0.0059450077432207,0.0484966121435165,-0.0003883991157636,-0.0013285195454955,-0.0026816462632268
0.63269921875,0.0026518114167265,-0.0034282208830118,0.0526870495706796,0.0019959288183599,-0.0017839195206761,-0.0007838775054551
0.64267822265625,0.000834551128,-0.0010127937717363,0.0377209511071443,-0.0014054133789613,0.000827751122415,-0.0022553603630512
0.6526572265625,-0.0013676168250851,0.0012175042972899,0.0544780246406793,-0.0002293614670634,-0.0006814617663621,-0.0021083538886159
0.66263623046875,0.0026326500585302,0.0032531017781235,0.0523848517537117,0.0009157498716376,-0.0011941408738493,-0.0008483189158141
0.6726142578125,0.0042856596962548,-0.0021276414121501,0.0407142877042293,-0.0029319853056222,-0.0027845809236168,-0.0003228772548027
0.682593017578125,-0.0010718122162856,-0.0025385237679816,0.0449029715657234,-0.0012915490660816,0.0014705816283822,0.0020668776705861
0.692572265625,-0.0067940988532267,-0.0009956234412267,0.0463958404719829,-0.0005527881439775,0.000199188478291,0.0011603377060964
0.702551025390625,-0.004884593703784,-0.0008381678571924,0.0408580800890922,-5.14965504407e-05,0.000670263543725,-0.0014452266041189
0.7125302734375,-0.010624872655142,0.0010295622434467,0.0546224015474319,-0.0015151698607951,0.0008026221767067,0.0002639901358634
0.722509033203125,-0.0053506768455728,-0.0021643018944188,0.045644145321846,-0.0016939423512667,-0.0018401509150862,0.0021182673517614
0.73248828125,-0.0097426464605145,-0.0039933074198663,0.0525081858724355,-0.0005469189491122,0.0195769891142845,-0.0018634248990565
0.742467041015625,-0.011726276292093,-0.0044130672018975,0.1008206736207008,-0.0012498752912506,-0.0087058907374739,-4.56049820058e-05
0.7524453125,0.0141569557714276,-0.0032889585427939,-0.0128957219302654,-5.19854947924e-05,0.0040945932269096,0.0009371014311909
0.76242431640625,0.0012564298018813,-0.0043075427345,0.0641769963562488,4.930188879370689e-07,-0.0106655824929475,-8.5378109361e-05
0.7724033203125,0.0150275828598067,-0.0011706512145698,0.0276794495642185,-0.0009414670639671,-1.82650983333e-05,0.0012624476803466
0.78238232421875,0.0051239371513016,-0.0027266667512245,0.0695797321826219,9.69808897934e-05,-0.0017078528180718,0.0021418370306491
0.792361328125,0.005783953696303,-0.0009600954701192,0.055066053661704,0.0010373431723564,-0.000494516454637,0.000970046094153
0.80234033203125,-0.0055045887656509,0.0029279797432944,0.0635971506416797,-0.0010199518874287,-1.2595206499e-05,0.0003199138736817
0.8123193359375,0.0009972491427324,-0.0002868175847455,0.0522241082340478,0.0008866051211953,-0.000583310611546,-0.001168526825495
0.82229833984375,-0.0010548428151756,0.0047488019622862,0.0483364531457424,0.0015664407983422,0.0011440431699156,0.000503652030602
0.8322763671875,-0.008815065020509,-0.000652965749707,0.0549228457987308,0.0021166498772799,-0.001024036668241,0.0024845111183822
0.842255126953125,-0.0128249765153042,0.0019481749257072,0.0642021307975053,0.0004051806172356,-0.0001545911654829,0.0001829583052312
0.852234375,-0.0006469744003377,0.0013647672808729,0.0516284804284572,-0.0036180568858981,-0.0005181124433875,3.16907680826e-05
0.862213134765625,0.0037599918543361,-0.0047786673775874,0.0487841969132423,0.0004356848658062,-0.0008871434256434,0.0011355800088495
0.8721923828125,0.0051366322360932,0.0022294212861917,0.0321744228959083,0.0021883111912757,-0.0019207159057259,0.0002175884146708
0.882171142578125,0.0058228426682762,0.0007595313967205,0.0401075539827346,-0.000537421554327,-0.0018789693713188,-0.0045203370973467
0.892150390625,0.0010135609567165,-0.0036798392902128,0.0431008905798196,0.0018562276381999,-0.0008584465831518,-0.0011130889179185
0.902129150390625,0.0014104695861227,0.0014210275127552,0.0529758033841848,-0.0014261233154684,-2.14278697967e-05,-0.0010969487484544
0.912107421875,-0.0079536806845106,0.0021670235744677,0.0474409656107425,-4.15458925999e-05,-7.52238556742e-05,0.0013488983968272
0.922086181640625,-0.0077344119106419,0.0002922609448432,0.0463964249938726,-0.0006076912977732,0.0011072354391217,-0.0005644554039463
0.9320654296875,-0.0093341021922416,0.0070806607096455,0.0471428594470024,0.0010240274714305,0.0018662363290786,-0.0002448760496918
0.942044189453125,0.0032472382929176,0.0096959760408848,0.0493856699377298,0.0010554966283962,-3.63020226359e-05,-0.0016188449226319
0.9520234375,0.0038044885831885,0.0007986395644024,0.0496890367984771,-0.0001754163531586,0.0005394732579588,-0.0014731700066477
0.962002197265625,0.0045762766732834,0.0013475238851271,0.0392138200134038,-0.0007781090680509,-0.0017393911257386,-0.0017861169762909
0.9719814453125,-0.0007985482328571,0.0010165566314011,0.043553310522437,-0.0006771752377972,0.0001506535336375,0.0004874235892202
0.981959228515625,-0.0015386442767456,0.0062078964631073,0.0468447532832622,-2.66260467469e-05,-0.0001299101859331,-0.001595948007889
0.991938232421875,0.0026202289683744,0.0036816659211181,0.0495347230195999,-0.0006559310131706,0.0005579842254519,0.0004272554651834
1.001917236328125,0.0036682767165824,-0.0003928352424874,0.0517816251635551,0.0003299067029729,0.000949596054852,0.0016298301052302
1.011896240234375,0.0055857825093902,-0.0026945911125279,0.0435498033910989,0.0008737241150811,0.0013727722689509,0.0001618957612663
1.021875244140625,0.0056316674777306,-0.0044740401415154,0.0419014516621828,-5.14580169692e-05,-0.0011100927367806,-0.0006234704633243
1.031854248046875,0.0020716551749035,-0.0066959539746865,0.0438455714672803,7.9678720794e-06,0.000519523397088,-0.0009463244350627
1.041833251953125,0.0081466277070343,-0.006674271865841,0.0543166965991258,-0.0017206101911142,0.0010308539494872,0.0016858923481777
1.051812255859375,0.0037683760901913,-0.0163628865841776,0.0441384169340133,0.0003950049285776,0.0001450860872864,0.0017226439667865
1.061790283203125,-0.0077534271383658,-0.0013005977371707,0.0396510423868894,0.0032791821286082,0.0007841512560844,-3.0104551115e-05
1.071769287109375,-0.0097804577202536,0.0038111375196836,0.0377075071036815,-0.0002047654124908,-0.001543185673654,-0.0004836408770643
1.081748291015625,0.0015569288521073,0.0024289624462835,0.0501268436938524,-0.0012594891013577,-0.0013919351622462,8.82812018971e-05
1.0917275390625,-0.0019517916548997,0.0073623819941654,0.0493804092407226,-0.002256043953821,0.0006656236946582,-0.0026079029776155
1.101706298828125,-0.0021925416082143,0.0047854441782459,0.0395019893050193,-0.0015235963510349,-0.0009204605594277,-0.0013675275258719
1.111685546875,0.0025765907560475,0.0051060727010481,0.0475847579956054,-7.53693748265e-05,-7.7037140727e-05,-0.001124380971305
1.121664306640625,-0.0104533702794462,-0.0033009047089144,0.0513274516552686,-0.0011220136657357,0.0001137526705861,0.0014470042660832
1.1316435546875,-0.0124427357320673,-0.008146171049308,0.0499812977433204,0.0003581712371669,-0.0003610895946621,-0.0006627519614994
1.141621337890625,-0.0001998699536547,-0.0035641770212911,0.0499824667870998,0.001234556431882,0.0009900322183966,-0.0023395293392241
1.15160009765625,0.004686696511507,-0.0104471414680592,0.0393605350077152,0.000481414492242,-0.0025892565026879,0.0001406725496053
1.161579345703125,0.0057892143933102,-0.0032611206877976,0.0535772764086723,-0.0015449472703039,0.0009688017889857,9.43180348258e-05
1.17155810546875,0.0101623697099275,-0.0040080300649628,0.0471375987499952,0.0005448352312669,0.0010886443778872,-0.0012745467247441
1.181537353515625,0.0018862338717095,0.0008886559354141,0.0553659133911132,0.0004298969870433,-0.0016032960265874,-0.0004281535511836
1.19151611328125,0.002612484053336,-0.0003161715433932,0.0564186373144388,0.0034565795212984,-0.0011122096329927,-0.0020604049786925
1.201495361328125,0.0060721229879185,-0.0029478900201618,0.0426543158560991,-0.0011026577558368,-0.0020472649484872,-0.0015134698478505
1.21147412109375,0.0080906232034787,-0.0013564195776358,0.0513344659179449,0.0004337198915891,-0.0010983804240822,0.001147827017121
1.221452392578125,0.0007669475181959,0.0006160860717296,0.0478933855533599,-0.0024212934076786,-0.0008027208968997,0.0004450147680472
1.23143115234375,0.0020094583925791,-0.0031206162385642,0.0450485175162553,0.000807523028925,-0.0018946174532175,-0.0008330362616106
1.241410400390625,0.0052534818151034,0.005803352516517,0.0454991838932037,0.0005636060377582,0.0004690252244472,-0.0022078768815845
1.25138916015625,-0.0023499241270124,-0.0044976767454296,0.0520803158491849,0.0004328448558226,0.000659973360598,0.0014646222116425
1.261368408203125,0.0040595410564914,-0.0101079543752595,0.047436289435625,-0.0011798485647886,0.0006270892918109,0.0005493608769029
1.27134716796875,0.0011510879975743,-0.003028371377848,0.0498334137052297,0.0048641958273947,-0.0026984000578522,-0.0001835410803323
1.281326416015625,0.0071973641581833,-0.0052165838708169,0.0416056835860013,-0.0008475342183373,-0.0004232684150338,0.0001927299017552
1.29130517578125,-0.0018926636124961,-0.0034851569683291,0.0510293454915285,-0.0020438260398805,0.0015336219221353,-0.0015271394513547
1.301283203125,0.0014501257430762,0.0028233868576586,0.0481844774544239,-0.0004025711095891,0.0009074192494153,0.00115422392264
1.31126220703125,-0.0052460108947008,0.0001862067544832,0.0544680877685546,-0.0011338751064613,0.0005926340818405,0.0005022821715101
1.3212412109375,-0.0002352700605988,0.001663220504485,0.0559662173718214,-0.0006908774375915,-0.0028826212510466,-0.0005773765733465
1.33122021484375,0.0028680845159105,-0.002903247160837,0.0546229860693216,0.0001573393819853,-0.0017662243917584,-0.0005488807801157
1.34119921875,0.0082162588771432,-0.0075966291414573,0.0431026441454887,-0.0013774617109447,-0.0019959928467869,-0.0004563424154184
1.35117822265625,0.0084691376596689,-0.0075522602767683,0.0537274985343217,0.0011293718125671,-0.0021714949980378,-0.001189244328998
1.3611572265625,0.0041073257209733,-0.0050549087693914,0.0534270542830228,-0.0016890631522983,-0.00041816662997,-0.0011750265257433
1.37113623046875,0.0106361612341366,-0.0022408742619678,0.0422018959134817,-0.0001699959975667,0.0036799060180783,-9.37832082854e-05
1.381114501953125,0.003826170692034,-0.0005036934721283,0.0496750082731246,-0.0003343662829138,0.0015282584354281,-0.000365636893548
1.39109326171875,0.0070823777426965,0.003904825418815,0.0477273813366889,0.0018475616816431,-0.0004083923995494,-0.0026913753245025
1.401072509765625,-0.0019305296711623,-0.0006014182255603,0.0402443321049213,-9.65856015682e-05,-0.0003656586632132,0.000122622703202
1.41105126953125,-0.004398709882982,0.0048988962237723,0.0368067588716745,0.0010770695516839,-0.0001771068200469,-2.22532544285e-05
1.421030517578125,-0.0010430975784547,-0.0059753846151754,0.0465320340722799,-0.0002868357114493,0.0002343636006116,-0.000672769267112
1.43100927734375,0.0001475369782187,-0.004104457910452,0.0510194086194038,-0.0023332086857408,-5.3790397942e-05,0.001193573931232
1.440988525390625,-0.0011361644230782,-0.0077814659227617,0.0486252069592475,0.0015077721327543,0.0022788541391491,0.0006121195619925
1.450967041015625,-0.0009914769890718,0.00323215032164,0.0466781645447015,-0.0018520718440413,0.0004199678078293,0.0004382151528261
1.4609453125,-0.001743610530626,-0.0108493107944726,0.0433832146525383,-0.0034256782382726,-0.0003679832443594,-0.0013596194330602
1.470924072265625,0.0118301019927486,-0.0045585766198113,0.053704702180624,3.74965602532e-05,1.92401930689e-05,0.0005227028159424
1.4809033203125,0.0121208285676315,0.0022932985689491,0.0513069933891296,-0.0043202899396419,0.0004406878724694,0.0011550821363925
1.490882080078125,0.0029988712887279,-0.0026678675023838,0.049508419534564,-0.0032664770260453,0.0002899533137679,0.0020773347932845
1.500861328125,0.0026814759026281,-0.0005758636591956,0.0460661701261997,-0.0024138356093317,0.0008632652461528,0.0012911934172734
1.510840087890625,0.0010256715196184,-1.5964754112e-05,0.0562403581380844,-0.0013171460013836,0.0005862964317202,0.0007295327377505
1.5208193359375,0.0018823614141903,0.0017050320859067,0.0499532406926155,-0.0002057396341115,4.83710318803e-05,-0.0005876665818504
1.53079736328125,0.0044595914910547,0.0015271365020424,0.0409755689889192,0.0014736496377736,-0.0027580680325627,0.0005231379182077
1.5407763671875,-0.0060938964283093,0.0016691387886181,0.0554945082068443,0.0008290379773825,0.0017952108755707,-0.0005293447757139
1.550755126953125,0.0018065744979307,-0.001929725953564,0.046212885120511,0.000554466038011,-0.0004442417994141,-0.0010758254211395
1.560734130859375,-0.0107920641819015,0.0019697291703894,0.0536941807866096,0.0027073551900684,0.0020873164758086,0.0004360031452961
1.570713134765625,-0.0099312278351746,0.0013592143229208,0.0536965188741683,-0.0012999033788219,-0.0031220922246575,-0.0010569649748504
1.580692138671875,0.0011392696956172,-0.0010050123240798,0.0517523990690708,-0.0014462366234511,0.0004781782627105,-0.0016062632203102
1.5906708984375,-0.0056849685675464,-0.0036759120337665,0.0433709396928548,-0.0003207848058082,-0.0002832198515534,-0.0005244871717877
1.60064990234375,0.0053093584544956,-0.0050807007977738,0.0417290177047252,0.0019687921740114,-0.0006586723029613,-0.0005681655602529
1.6106279296875,-0.0012896562180481,-0.0071521915758959,0.0499555787801742,0.0015365611761808,0.0012731850147247,0.0007034938316792
1.62060693359375,0.0092803809773176,-0.0090555044465698,0.0480102899312973,0.002009798772633,-0.0001006536185741,0.0013457183958962
1.6305859375,0.0031497510015033,-0.0014803747508674,0.0478624058932065,0.0008774227462708,0.0031811594963073,-0.0014460732927545
1.64056494140625,0.0088807324015535,-0.0030183797067962,0.0429208578377962,-0.000763346790336,-6.79409131407e-05,-0.0004215542867314
1.6505439453125,0.002964256633073,-0.0140187711434438,0.0460638320386409,-0.0016349994111806,0.001446065492928,9.37673758016e-05
1.660523193359375,0.0003734912212006,-0.0029582470173947,0.0342407077759504,0.0008710580295883,-0.001649560406804,0.0002855752827599
1.670501953125,-0.0020965156215243,-0.0035995771282352,0.0474099859505891,-0.0017399049829691,0.0009552780538797,-0.002493433188647
1.680481201171875,0.0011599654237739,-0.0043877683638595,0.0518938533663749,-0.0011446072021499,0.0007894169539213,0.0012604269431903
1.6904599609375,-0.0086208028237335,-0.0050059915937483,0.0575818358749151,-0.0016902888892218,0.0002748938277363,0.0011312635615468
1.70043798828125,-0.0021007351389154,-0.000391282606218,0.0336357276201248,-0.0034909984096884,-0.0016401298344135,-0.0007405064534395
1.710417236328125,-6.09181406907e-05,-0.0090959277885034,0.0412689989775419,-0.0005732391728088,-0.0027970066294074,-0.001069673220627
1.72039599609375,0.0041358028967864,-0.0059459210586734,0.0593751490324735,-0.0004803379415534,0.0020909570157527,0.0010739301797002
1.730375244140625,0.0039011721570044,0.0048909321130253,0.0498012650012969,-0.0028987545520067,-0.0007146829739212,0.0005634022527374
1.740353759765625,0.0007536313788965,-0.0056445452256128,0.048902270334959,0.0003805212327279,-4.87361103296e-05,-0.0026670733932405
1.7503330078125,0.0053324836017563,-0.0017643793240189,0.0502507623344659,0.0008532322826795,-0.0016543567180633,-0.0016673227073624
1.760311767578125,8.3550097607e-05,0.0007168247661553,0.0548848518759012,-0.0025001442991197,0.0008234689012169,6.51074515189e-05
1.7702900390625,0.0056065695690922,0.0007377396900206,0.0444072970032691,-0.0002463111304678,-3.16724181175e-05,-0.0007399661699309
1.780268798828125,0.0049094541504047,-2.5317104347e-05,0.0500911878585815,-0.0001938547939062,0.0002777380868792,0.0013377690920606
1.790248046875,0.007535163011495,-0.0069001165109686,0.0535346063107252,-0.0006170311244204,0.0004479140043258,0.0013082079822197
1.800226806640625,0.0035873204348608,-0.0103871914417482,0.0500911878585815,-0.0002100872807204,0.0007742047309875,0.0003574127331376
1.8102060546875,0.0101037713904865,-0.0115405992605723,0.0509890134811401,-0.0014103739522397,0.0002029566094279,-0.0004764230106957
1.820184814453125,-0.0052217167036607,-0.0039257038100622,0.042613399323821,0.0005529735935851,-0.0006628828123211,0.0005634977715089
1.8301640625,-0.0119336719650775,-0.0008961816547438,0.0497971733480691,0.0017615162068977,0.0004860050976276,-0.0011132284998893
1.840142822265625,-0.0023584544933401,0.0020123810020275,0.0451595766752958,-0.0042930394411087,-0.0009730430319905,-0.0009001243161037
1.85012109375,-0.0035186939117498,-0.0003216331698,0.0469482136577367,-0.0002849819138646,0.000677584670484,0.0005789953283965
1.86010009765625,-0.0105097035765647,-0.0035505138221196,0.0445534274756908,-0.0026397986803203,6.90938904881e-05,-0.0019164637196809
1.8700791015625,-2.37096691504e-05,0.0005565379042178,0.0457493592619895,-0.0001500094076618,-0.0017551714554429,-0.0005457345978356
1.88005810546875,-0.0062927617349661,-0.0016581972694955,0.0466541991472244,-0.0005568078486248,0.000509182922542,0.001123100053519
1.890036865234375,0.0039703101367689,-0.0039145978941582,0.0456079049646854,0.0004911459982395,0.0018322421237826,-0.0036527467891573
1.900015869140625,0.0132429279327392,-0.0038332580199465,0.0421650710344314,-0.0006697667995467,-0.0002370364964008,-0.0003464093606453
1.909994873046875,2.40749953314e-05,-0.0025843539373949,0.0511404046505689,-0.001927311415784,0.0003805505111813,-0.0013991569867357
1.919973876953125,-0.0008281396535225,-0.0046894181915558,0.0506920763611793,3.7244753912e-06,0.0009301519021391,0.0009329974418506
1.9299521484375,-0.0016876973586156,-0.0094141999574378,0.0482972901791334,-0.0017757997848093,-0.001755379140377,-0.002460136078298
1.939930908203125,0.0020457900812849,-0.0051745713599957,0.0364765040040016,-0.0012212293222546,0.0006974320858716,-0.0004794606356881
1.94991015625,0.0020192308679223,-0.000768719350174,0.0409638785511255,9.03774634934e-05,0.0018947888165712,-0.0003359162365086
1.959888916015625,-0.0043369332257658,-0.0024828297916799,0.0602677139580249,0.0015767586883157,-0.0009125964716076,-0.0013613190967589
1.9698681640625,0.0038436515497975,0.001914473585505,0.0613151771843433,0.0001114875776693,0.0011710608378052,-0.0009762259433045
1.979846923828125,0.0017987565176561,0.0055649771833792,0.055025137129426,0.0010737143456935,0.0009709848091006,-0.0016663291025906
1.989826171875,0.0083557769456878,0.0040211452748626,0.0530810173243284,0.0036639049649238,0.0002250326797366,-0.0010079956846311
1.999804931640625,-0.0032285335924476,0.0104495343545451,0.0496405214816331,0.0005222952459007,0.000865975394845,-5.75561425648e-05
2.009783203125,0.0022245441816747,-0.005573233555071,0.0634054274618625,-0.0012689469149336,0.0018313713371753,-0.0014599767746403
2.019761962890625,-0.0039444815757684,0.0009518390984274,0.0532306549280881,0.0013766027987003,0.0009501604363322,0.0017581747379153
2.0297412109375,-0.0013485467984341,-0.0031572219219058,0.0493394927084445,0.0016442504711449,0.0005259187892079,-0.0007305492763407
2.039719970703125,0.0070199069657362,-0.0019892923873849,0.0466448467969894,-0.0044385455548763,0.0008310731500387,0.000942428887356
2.049698974609375,0.0045373694350011,-0.0034996056187897,0.0509819992184638,0.0014795311726629,0.0017911428585648,0.0008577403496019
2.059677978515625,0.0027175518630072,-0.0077095879966393,0.0503764345407485,-0.0039442181587219,0.0019982773810625,-0.0021264676470309
2.069656982421875,0.0048328817828558,-0.0132989141699858,0.0515723663270473,0.0012295050546526,-0.0008752737194299,-0.0009131314582191
2.079635986328125,0.016333240364585,-0.0112135957959108,0.0442430463522672,-0.0019425654318183,-0.0036199302412569,0.0003236554039176
2.08961376953125,0.0071753897883929,-0.0037194589145481,0.0416956999570131,-0.0006133816204965,0.0005620317533612,0.0009247309062629
2.099593017578125,-0.0062684310113079,-0.0091473474484868,0.0385498031467199,-0.0009821843123063,0.0030219089239835,0.0007564049446955
2.109572021484375,-0.0089421619988977,-0.0060261466880328,0.0526122307687997,-0.0009345136932097,-0.0015685819089412,-0.0002215078420704
2.119551025390625,0.0010296535749919,-0.0007272548286244,0.0464805961459875,0.001424839021638,-0.0004264395684003,-0.0001776672434061
2.129530029296875,-0.0015627558046951,0.0052508697329089,0.0409428357630968,-0.0002164670731872,0.0016721310093998,7.16046342859e-05
2.139509033203125,0.0069067289148457,0.0023613223038613,0.0533604187875986,0.0016326615586876,0.0016067856922745,-0.0012762863188982
2.149488037109375,0.0016326975020579,0.0075656494813039,0.042438042756915,9.7615586128e-05,-0.002986367791891,-0.0003140862390864
2.159467041015625,-0.00169995405199,0.0089725206045433,0.0469306780010461,0.0012910357909277,-0.001315601170063,0.0015503650065511
2.169445068359375,-0.0017506065269932,-0.0011114135743118,0.0484276385605335,0.0009584069484844,-0.0008053397759795,0.0010800508316606
2.179424072265625,0.0022255853612907,-0.0052804063546471,0.051123453515768,0.0003576069138944,-0.0007269214838743,-0.0010107469279319
2.18940283203125,-0.0055060866029933,-0.0144972023101523,0.0485819523394107,-0.0001641063136048,0.0002360772341489,-0.0014965075533837
2.1993818359375,0.0005932897180318,-0.0011756379169411,0.0517260955840349,0.0035000015050172,0.0011033788323402,0.0006724695558659
2.20936083984375,0.0056034642965532,-0.0033603067459538,0.0509744004338979,0.0004035441670566,0.0019108494743704,-9.53197813942e-05
2.21933984375,0.0009543781153857,-0.0060673189486376,0.0562117165654897,-0.0014414347242563,-0.0020587993785738,-0.0006835955427959
2.229319091796875,0.0086948544406332,-0.0038679640071466,0.0469324315667152,-0.0005607274360954,0.0016813436523079,-0.0027624589856714
2.2392978515625,-0.0032951873541809,0.0061346302974969,0.0369055430710315,-5.40476758033e-05,-9.88254323601e-05,0.0011621591402217
2.24927587890625,-0.0087416892570443,0.0051624242644757,0.0351098918259143,-0.0006404757150448,0.0004593729972839,-0.0010882120113819
2.259255126953125,-0.0137439179911278,0.0078296341797336,0.0505231495350599,-0.0011813197052106,-0.0002743015065789,-0.0013808663934469
2.26923388671875,-0.0094658388131298,0.0072115753466263,0.0584556960999965,0.0015153972199186,-0.0009150579571723,-0.0005225296481512
2.279213134765625,0.0001799962094053,-0.0004670877887867,0.0455874466985464,-0.0007076886831782,-0.0001825261861085,-0.0004192279302515
2.28919189453125,0.0040056371784768,-0.0038011641149409,0.0481295323967933,-0.0021383387502282,0.0001314599066972,-0.0006101765902712
2.299171142578125,-0.0039686479026451,-0.0062700019138865,0.0418424149513244,-3.20449471473e-05,-0.0027351155877113,-0.0001249276974704
2.30914990234375,0.0053191674624569,-0.0015843465819954,0.0481254407435655,5.61056658625e-05,-0.000921769067645,-0.002115906914696
2.319129150390625,0.0061743960523046,-0.0030978929501026,0.0538163458615541,0.001183689571917,-0.0016234647482633,0.0007336274720728
2.32910693359375,-0.0029139329516328,-0.0015621712828055,0.0508224247425794,0.0017424207180738,0.000855672173202,-0.0024267458356916
2.339086181640625,0.005780117771402,0.0065585913306102,0.0521679941326379,0.0012439105194061,-0.0018521035090088,0.0006235768669284
2.34906494140625,-0.0022868688281625,0.0043191966396756,0.0463321275860071,-0.0003622419317252,0.001891235820949,-0.0003338295209687
2.3590439453125,-0.0001055062010884,0.0010145473374053,0.0565092382073402,0.0020231907255947,-0.0019398108124732,0.0008291833801195
2.36902294921875,0.0065966217860579,-0.0058436845269054,0.043795887106657,0.0016625985736027,-0.0010407278314232,0.0006973568815737
2.379001953125,0.0007171170271001,0.0009328604033216,0.046339726370573,0.0017374377930536,0.0016267606988549,-0.0003471160889603
2.38898095703125,0.0025363683435134,-0.0026574374399147,0.0521726703077554,-0.0013608838198706,4.24459576606e-05,-0.0013838846934959
2.3989599609375,0.0103723774651065,-0.0096358798841014,0.0467851320505142,-0.0016675114165991,-0.0016342606395483,0.0002907228772528
2.40893798828125,-0.012385781380441,0.0004388298086822,0.0502250433713197,-0.0025705893058329,0.0026225363835692,-0.0003143473295494
2.4189169921875,4.79673275724e-05,-0.0059095711036585,0.0457289009958505,-0.0014189627254381,0.0007988521829247,-0.0012482528109103
2.42889599609375,-0.0036381738392636,-0.0032906025106087,0.0541050996750593,-0.0006213459419086,-0.0002666786313056,4.39129362348e-05
2.438875,0.0088876188000664,0.0053032209746539,0.0490174211472272,0.0021496871486306,-4.47202473878e-05,6.432266673e-06
2.44885400390625,0.0021095029672607,0.005172580332309,0.0512637387692928,0.001539556775242,0.0020455941557884,-0.0006955770077183
2.4588330078125,0.0081480342128314,0.0048372108981013,0.0530564674049615,-0.0017515220679342,0.0007925182580947,-0.0008751816349104
2.46881201171875,0.0101434275474399,-0.0038196678860113,0.0484159481227397,-0.0007163513218984,-0.0009814137592911,-0.0034459310118108
2.478791015625,-0.004118669098895,-0.0017814217903651,0.0484165326446294,0.0005118927219882,-0.000353735871613,-0.0013454519212245
2.48876904296875,-0.0102050032752566,-0.0092863357940688,0.0464718283176422,0.0008264121133834,0.0009807748720049,-0.0015960553428158
2.498748046875,-0.0089724658056162,-0.0120468682822771,0.0401893870472907,4.8023997806e-05,-0.0011125383898615,-0.000806896132417
2.508726806640625,-0.0133039374049752,-0.0082869312268681,0.039139001211524,-0.0006507894722744,0.0009386288002133,-0.0019680343102663
2.5187060546875,-0.0140175107681192,-0.0032425803841091,0.0434784917205572,0.0007609276217408,-0.000163153745234,-0.002315831836313
2.528684814453125,-9.83823405578e-05,0.0032861820638179,0.0526058010280132,0.00146986101754,-0.0014981962740421,0.0031638883519917
2.5386640625,0.0046705673606134,0.001912409492582,0.0575455955177545,0.0027298771310597,-0.0002504615113139,-0.0013546019326895
2.54864404296875,0.0046598998361267,-0.0044186566924676,0.0560480504363775,-0.0008174534304998,-0.0020638080313801,-0.0004342135216575
2.558623046875,0.0025514745811,0.0006517967059276,0.0526093081593513,0.0014819338684901,-0.0026091197505593,-0.0003692539175972
2.56860107421875,0.0011022256208583,-0.000473426198028,0.0466261420965194,0.0005852475296705,0.0004897350445389,-0.0002070674090646
2.578580322265625,-0.0053938584001734,0.0005775441596284,0.0469236637383699,-0.0026084796991199,0.0005452595651149,0.0032369245309382
2.58855908203125,-0.0065912149585783,-0.0025291896840557,0.0470773929953575,0.0011369899148121,-6.54030591249e-05,0.0009513997938483
2.598538330078125,0.0046057219634763,-0.0046746407475322,0.0425906029701232,-0.0026634386740624,-0.0001831948757171,-0.0001456501049688
2.60851708984375,-0.0024092165661975,-0.0035356450465507,0.0506704490512609,-0.0014604886528104,-0.0004551038146018,-0.0003608335391618
2.618496337890625,0.0026635201208293,-0.0082313285821117,0.0475263058066368,-0.0010079874191433,-0.0008365772664546,0.0003929256054107
2.628474853515625,0.0033899529655463,-0.0022209091861732,0.0479787257492542,0.0007062893710099,-0.0013689426705241,-0.0004837870365008
2.6384541015625,-0.0011726422422565,0.0013598901763558,0.0532142883151769,-0.0025154047179967,0.0007739625871181,0.0001529384026071
2.64843212890625,-0.0046807051621377,0.005687251856178,0.0509679706931114,0.0015072999522089,2.98749655485e-05,-0.0001080513684428
2.6584111328125,3.36648075841e-05,0.0053331229225732,0.0484241314291954,0.0006052203825674,-0.0014543542638421,-0.0002518419350963
2.66839013671875,-0.0054505935560911,0.0023097565134055,0.0476765279322862,0.0011359883937984,-0.0013856440782546,0.0002307228569407
2.678369140625,-0.0015403065108694,-0.0016872954998165,0.0392979911655187,-0.0006695730844512,0.0001977365463972,0.0004455217276699
2.68834814453125,-0.004249328007549,-0.0020317067570053,0.0451326886683702,-0.0009553302661515,-2.27726995944e-05,0.0008202285389415
2.6983271484375,-0.0077442574512213,-0.0105927604838274,0.0458785385996103,0.0019118289928883,0.0015890570357441,0.0021405341103672
2.70830615234375,0.0020495529409497,-0.0064315856837667,0.047973465052247,0.0007560171070508,0.00151102617383,-0.0022161311935633
2.71828515625,0.0012632979340851,-0.0146895648107863,0.0521621489137411,-0.0009049758082255,6.17885962128e-05,-0.0003339184622745
2.72826416015625,0.0123189266893081,-0.0149158661136403,0.0529144285857677,0.0038745994679629,-0.0020791264250874,-0.0015840062405914
2.7382421875,-0.000124083037395,-0.0150910948163829,0.0506692800074815,-0.0024381289258599,-0.0005419375374913,0.0006955596618354
2.74822119140625,0.0003703128834255,0.0073754424051381,0.0529085833668708,-0.0004234474326949,0.0003933645784854,0.0014755995944142
2.7582001953125,-0.00389547306858,0.0114226354367099,0.0478232429265975,0.0010326930787414,-0.0002532824873924,0.0002642180188558
2.76817919921875,0.0038915092795155,0.0100669647777453,0.0440823028326034,0.0004947346169501,0.002806156873703,0.0005675520515069
2.778158203125,-0.0009787088390439,0.0068754935263656,0.0494686720460653,0.0010634043719619,-0.0006998311728239,-0.0007359136361628
2.788136962890625,-0.003514949318394,0.0051012503954581,0.0502203671962022,0.0013619447126984,-0.0012569641694426,-0.0013710776111111
2.7981162109375,0.0015653130879625,0.0043198907594196,0.03825111246109,0.0006219102069735,-0.0011853892356157,-0.0007410063408315
2.808094970703125,0.0041274369272403,-0.0041674949429929,0.0467781177878379,-0.0009395011002197,0.0008045248687267,7.81820199335e-05
2.8180732421875,0.0008927293223328,-0.004661050613597,0.0500701450705528,0.0027301406953483,0.0027241930365562,-0.0020993864163756
2.828052001953125,-0.0015489099424332,-0.00273967236327,0.0436363126307725,0.0003721779212355,-0.0005467012524604,-0.0005188004579395
2.83803125,-0.0093253343638963,-0.0063178048446774,0.0445323846876621,-0.0032820221967995,-0.0005148323252797,0.0010168140288442
2.848010009765625,0.0016643347493372,-0.0030018304307945,0.0490203437566757,0.0005289613618515,0.0004987670108675,0.0001060129288816
2.8579892578125,0.0020879669888876,-0.0052330600815825,0.0461772292852401,-0.0011260958854109,0.0013259127736091,-0.0018738351063802
2.867968017578125,-0.0054912360937334,0.0022276859868317,0.0512654923349618,0.0011423847172409,7.02319666743e-05,-0.0006117630982771
2.877947265625,0.0029466661774553,0.001604640451353,0.0451315196245908,0.000707586586941,-0.0005637863650918,0.0001793106930563
2.887926025390625,0.004422602215223,-0.0088915643228217,0.0520171874850988,5.56447776034e-05,-0.0009321011602878,-0.0017315073637291
2.897904296875,-0.0005637165636755,-0.0051357371869497,0.0581517447173595,0.0029810625128448,0.0019302554428577,-0.000513186038006
2.90788330078125,-0.0076771835643798,0.0012867336085997,0.0571019434034824,-4.37558628618e-05,2.6263296604156494e-07,0.0011110759805887
2.9178623046875,0.0081871606468223,-0.0043071226093918,0.0452799881845712,-0.0041333911940455,0.0019213017076253,-0.0015648839762434
2.927841064453125,0.0060153147667646,-0.0015024769848212,0.045274727487564,-0.0025267063174396,0.0016792211681604,-0.000349150999682
2.937820068359375,0.003405789855495,-0.012396174910292,0.0521545501291751,-0.0007112812600098,0.0006870822980999,0.0013807323994114
2.947799072265625,0.004662110059522,-0.0099540424551814,0.0563438185125589,-0.0007669413462281,-0.0005257213488221,-0.0010544620454311
2.957778076171875,0.0014734335534274,-0.0032587095350027,0.0428746806085109,-0.0009957847651094,0.0003255782648921,0.0007245654705911
2.967757080078125,0.0021453414656221,-0.0146413417548872,0.0355400999367237,-0.000569412659388,-0.0009356951341032,-0.0009116806904785
2.9777353515625,-0.009759798524715,-0.0075542878370732,0.0404810634702444,-0.000519142486155,-0.0006483681499958,-0.0006500231102108
2.987714111328125,-0.0093788729157298,-0.0010067293571308,0.0473679003745317,-0.0014030456077307,-0.0013857977464795,-0.0010012941202148
2.997693359375,-0.0152638027684763,-0.0032100663539953,0.0500561165452003,-0.0005600505974143,0.0023091165348887,-0.0015765184070914
3.007672119140625,-0.0051156077143736,-0.0018699037914164,0.0463140074074268,0.002558244857937,0.0011612940579652,0.0004277766274753
3.0176513671875,0.0036493528204038,0.0063378977846354,0.0572357989162206,-0.0008325353264808,0.0009775087237358,0.0004675383970607
3.027630126953125,-0.0040743732994422,-0.0014544000593945,0.0554378095835447,-0.0012216231552883,0.0015524849295616,0.0018055104883387
3.037609375,0.0028579832470044,-0.0115204697879962,0.038974750560522,-0.0004101595259271,0.0020213741809129,-0.0001725246838759
3.047588134765625,0.0008954692686907,-0.0078790080131031,0.0415197588682174,-0.000514289131388,-0.0021259663626551,-0.0005123440641909
3.057566162109375,-0.0038483094586059,-0.0109996059853583,0.0499006337225437,-0.0020437971688807,-3.66037711501e-05,-0.0011505517177283
3.067545166015625,-0.0023182686134241,-0.0051562867846339,0.0503507155776023,0.0012984700733795,-0.0008328892290592,-0.0002232389815617
3.07752392578125,0.0028376163124106,-0.0043600401067174,0.0569371082305908,0.0011953501962125,-0.001565127633512,-0.0016943012597039
3.0875029296875,0.0093186488947831,-0.0051028212980367,0.0406277784645557,0.0005676432047039,0.0005326448008418,0.00137126352638
3.09748193359375,0.0002779401585459,-0.0097899196683429,0.0466109445273876,-0.0003249755245633,0.0010527521371841,-0.001995419152081
3.1074609375,0.0073451203321106,-0.003553052839078,0.043316579157114,-0.0029615052044391,0.0006362339481711,-0.0010963361710309
3.117440185546875,0.0048193647141568,0.0014009711054153,0.0546831918239593,-2.66434508375e-05,-0.0002643279731273,0.0010719288839027
3.1274189453125,-0.0044056510804221,-0.0079159607563167,0.0494464602142572,-0.0020959195680916,-5.34048303961e-05,0.0014383798697963
3.13739697265625,-0.0066880446628667,-0.0014290098898112,0.0558820462197065,-9.32069960981e-05,-0.0010064532980322,-0.0005021193646825
3.147376220703125,0.0009819967746734,0.0028620749002322,0.0448088635414838,-0.0003102546324953,-0.0016064634546637,0.0011551657225936
3.15735498046875,-0.0017889475096948,0.0007151625320315,0.051543140232563,-0.0014339756453409,0.0011177733540534,-0.0002584941685199
3.167334228515625,-0.0073614504124037,-0.0087761943148449,0.040617841592431,-0.0014262525364756,-0.0002156710252165,0.0012134349672123
3.17731298828125,0.0076781334124505,-0.0050912769907154,0.0501917256236076,0.002243070397526,0.002057553268969,-0.0013398749288171
3.187292236328125,2.2887685243e-05,-0.0062439724234864,0.0588736292511224,-0.0011221000459045,-0.0005637956783175,0.0011973185464739
3.19727099609375,-0.0062582932097837,-0.0114534324337728,0.0446580568939447,0.0036753541789948,0.0017153238877654,0.0014549240004271
3.207250244140625,-0.000145564216841,-0.003101838472858,0.0350824192970991,-0.0028014534618705,-0.0003387723118066,0.0015398788964375
3.21722900390625,0.0044757754408754,0.0060706434168852,0.0388186832159757,-0.0008657284197397,0.0008219396695494,9.40920581342e-05
3.22720703125,-0.0020138240404427,0.0093993494481779,0.0521294156879186,-0.0018817244563251,0.0013316692784428,0.0010975711047649
3.23718603515625,-0.0030705117528326,0.0096076219039969,0.0569189880520105,-0.0005998299457132,0.0002960674464702,0.0016143056564033
3.2471650390625,-0.0022432306158356,0.0060989013969898,0.0486883353233337,0.0004995229537598,-0.0004229852929711,0.0007067004335112
3.25714404296875,-0.0034569537871517,-0.0034921894973143,0.0503372715741395,0.0010025275405496,1.9522383809e-05,-0.0014359881170094
3.267123046875,-0.0064829505448229,-0.0107726105627603,0.0507861843854188,0.0027671381831169,-0.0011083260178565,-0.0009395749657414
3.27710205078125,-0.0018703604491427,-0.0190653504759073,0.0452513466119766,0.0007383170304819,-0.0028866697102785,-4.95193016831e-05
3.2870810546875,-0.003894084829092,-0.0084659045229665,0.0513917490631341,-0.0008864775300025,-0.0001902198418974,-0.0022381050512194
3.29706005859375,0.0035806532320566,-0.0106070812701247,0.0430073670774698,0.0003554713330231,0.0009426120668649,-0.0011965681333094
3.3070380859375,0.0017776406643912,-0.0084899247193709,0.045401568737626,-0.0002807579003274,1.42334029078e-05,0.0002703009813558
3.31701708984375,0.0084084569809958,-0.0066249162987805,0.0510877976804971,-0.0022059385664761,-0.0004414841532707,4.7308276407420646e-07
3.326996337890625,0.0009018807431682,-0.0007596044619567,0.0439022700905799,-8.15350795164e-05,0.0015737302601337,0.00108278170228
3.33697509765625,0.0031030623155646,-0.0029444194214418,0.0391103596389293,0.0001194153446704,0.0021586492657661,0.0006606574752368
3.346954345703125,-2.70889363251e-05,-0.0003575082007795,0.0537760138511657,0.0006019801367074,0.0020438665524125,-0.001478393562138
3.35693310546875,-0.0061752545688301,-0.0059396191820502,0.0486900888890027,-0.0006096612196415,-0.0010644262656569,0.0026045728009194
3.366912353515625,-0.007482501242496,-0.0034781792382709,0.0391126977264881,-0.0008906247094273,-0.0018412703648209,-0.0004857591993641
3.37689111328125,-0.0031558336824178,-0.0070081617290154,0.0536316369444131,7.86678283475e-05,-0.0006873421370983,-0.0004312764503993
3.386869140625,0.0001482493642717,-0.0031418782223016,0.0494417840391397,-0.0009562365594319,0.0008905809372663,0.0003666066331788
3.396847900390625,-0.0062428764449432,-0.0011619381851516,0.0488473252773284,0.0005788565031252,-0.0028584161773324,-0.0001283721794607
3.4068271484375,-0.0003851633926853,-0.0090401424806565,0.0593207884967327,-0.0018137274309992,-0.0002168267965316,0.0011076008668169
3.416805908203125,-0.0011754552538506,-0.0137121894123032,0.0473509492397308,0.0019458238966763,-0.0010513011366128,-0.0013705315068364
3.42678515625,0.0031356311446055,-0.0087358805707655,0.0374783745229244,-0.0012230713618919,-0.00099643971771,-0.0003436165279708
3.436763916015625,0.0005176489322446,-0.0107932149593718,0.0463069931447505,-0.0013908373657613,-0.0006482815369963,0.0008271755650639
3.4467431640625,0.0036326574139297,-0.0069367221943102,0.0573819293886423,0.0015828482573851,-0.0021098237484693,0.0009976178407669
3.456721923828125,-0.0045467765841633,-0.0100025395057164,0.0457137034267187,-0.00080574239837,0.0006731981411576,1.26623199321e-05
3.466701171875,0.0009822890356183,-0.0070764229259453,0.0512491257220506,-0.000371913483832,-0.0019822400063276,0.0004861723573412
3.47667919921875,0.0018857406813651,-0.0004594890042208,0.0455640658229589,0.0003978698514401,0.0003150766715407,-0.0007524140528403
3.486658203125,0.0110276082371361,-0.0010212693391367,0.0527443327158689,0.0001270263455808,0.0020064497366547,-0.0016901131020858
3.49663720703125,0.0080868420775048,0.0006303337927907,0.0458586648553609,0.0019197189249098,-5.20171597599e-05,-0.0019744557794183
3.5066162109375,0.0093058259458281,-0.0030117855692282,0.0413683676987886,0.0023282477632164,0.0017357626929879,-0.0019187957514077
3.51659521484375,-0.0008793583841063,-0.0049051798340864,0.0501981553643941,0.0023500798270106,-0.0009872773662209,-0.0015870102215558
3.52657421875,-0.0016983466167934,-0.0048916627653874,0.0548386746466159,0.0014137123944237,-2.02832743525e-05,-0.0026030060835182
3.53655322265625,-0.0018580124242231,-0.0034414274244569,0.0409241310626268,0.0009624337544664,0.0006995098665356,-0.0007486453978344
3.5465322265625,-0.0141203318217769,-0.0015352832758799,0.0515507390171289,0.0012007865589112,0.0004339925944805,-0.0003382522263564
3.556509033203125,0.0062426024503074,-0.0083403784471564,0.0558913985699415,-0.0029842152725905,-0.0013114856556057,0.0003965514188166
3.566488037109375,0.0076905362362973,-0.0095434706266038,0.049157706400752,-0.0007359745795838,-0.0018278723582625,0.0007273159571923
3.576467041015625,0.003704517073743,-0.0076723064598627,0.0409241310626268,-0.0008680673781782,0.0010510040447115,0.0009430319769307
3.586446044921875,0.0040439233622513,-0.0075904368626885,0.0487011948049068,0.0021745292469859,0.0006225723773241,-0.0003036006528418
3.596425048828125,0.0013691146624274,0.0031120128070004,0.0451081387490034,-0.0008403466199524,0.0015663905069231,0.0015530440723523
3.606404052734375,-0.002684215848986,-0.0035543680133298,0.053784781679511,0.0023948615416884,0.00045798253268,0.0001700645079836
3.616383056640625,0.0011621573808602,-0.0007207702889107,0.0564794275909662,0.0005865171551704,-0.0001735668629407,-0.000458572700154
3.626362060546875,-0.0142304046001285,-0.0031811690530739,0.0449532404482364,0.0011694831773638,0.0023271413519978,0.0024360171519219
3.63634033203125,-0.0098105423312634,-0.0016493929085321,0.0522843139886856,0.0008922815904952,-0.0010917373001575,0.000845895439852
3.646319091796875,-0.0041948944065719,-0.0154699563324451,0.0475000023216009,0.0025287941098213,-0.0005428595468401,0.0008999576093629
3.65629833984375,0.0055710781306028,-0.0102305395753122,0.0516869326174259,-0.0024666553363204,0.000627975910902,-0.0012736652279272
3.666277099609375,0.0087151117773726,-0.0059451356073841,0.0596136339634656,0.0001491014845669,0.0003446154296398,0.0023426411207765
3.67625634765625,0.0033417664422653,-0.0083766736032441,0.045547114688158,0.0016100126085802,-0.0019323993474245,-0.0007479456253349
3.686235107421875,0.0043846082923933,-0.0049279396551661,0.037320553612709,0.0009418255649507,-0.0005787145346403,0.0005953528452664
3.69621435546875,-0.0092069321486167,-0.0134815407278947,0.0485433738946914,-0.0014415446203202,0.0018019638955593,0.0013732352526858
3.706193115234375,-0.0032017551833763,-0.0045630701318383,0.0516816719204187,-0.0010311515070497,-0.0013634692877531,-0.0003727331059053
3.71617236328125,-0.0067056716511026,-0.0055237318575382,0.0486924269765615,0.0031441277824342,0.0016061617061495,0.0013828709488734
3.726150146484375,-0.0046280981920659,-0.0033553017772734,0.0304378083616495,0.0004221109556965,-0.0001115771010518,-0.0009971961844712
3.736129150390625,0.0039988969104364,-0.0003696735626086,0.0440524922162294,-0.0009390182094648,0.000193172134459,-0.0008289785473607
3.746108154296875,-0.0005335588874295,0.0042051052733324,0.0482405915558338,-0.0021507565397769,0.0002320539206266,-0.0015211340505629
3.756087158203125,-0.0098092088907025,0.0136631443724967,0.0479389782607555,-0.00016806734493,-0.0012025404721498,0.0024512135423719
3.766066162109375,-0.0067143481479026,0.0218529719004407,0.0531803860455751,0.0003150300472043,-0.0001729624345898,0.0003976498264819
3.776045166015625,0.0190039574111811,0.0170652261672541,0.0458481434613466,-0.0005680547328665,0.0008386708796024,0.0021989489905536
3.786024169921875,0.0047392669489607,0.0021132110279984,0.0515332033604383,0.0005025360151194,0.0006810119375586,0.0024695263709872
3.796003173828125,0.0026642507731914,-0.0017319383591413,0.0512327591091394,-0.0018849298357963,-5.33452257513e-05,0.0011371223954483
3.805981201171875,0.0136068293416872,-0.0121742940542288,0.0521311692535877,4.63945325464e-05,0.0017858333885669,-0.000942007463891
3.815960205078125,0.0115937907525338,-0.0271788613646291,0.0497346295058727,0.0011459193192422,-0.0003810003399848,-0.0016075761523097
3.825939208984375,0.0114512952756136,-0.0239675529016181,0.0452472549587488,0.0020388772245496,0.0014757551252841,0.0011210987577214
3.835918212890625,-0.0012190386672504,-0.0258813688999973,0.0507855998635292,0.0010459150653332,-0.001373772509396,0.0011547883041203
3.845897216796875,-0.0042346236287616,-0.0111593448580242,0.0437538015305995,0.0007154167979024,0.0010766014456748,0.0003947221557609
3.855876220703125,-0.0062542015565559,-0.0077432528042234,0.0462953027069568,0.0004582520923577,-0.0003441721200942,0.0003488590591587
3.865855224609375,-0.0030766674989834,0.0022098398028872,0.0456961677700281,0.0002499928814359,-5.73499128222e-05,-0.0005068145692348
3.875834228515625,-0.0100912772350944,0.006173482736852,0.0525812511086463,0.0032733909320086,-0.0003800187259912,-0.0007645521545782
3.88581298828125,-0.0188630693694576,0.0010119717878289,0.0584200402647256,-0.0007341339369304,-0.0002300823107361,-0.0004409780958667
3.895791259765625,-0.0267790118594653,0.0065573126889765,0.0594680880129337,0.0011952731292694,0.0001398315653204,-0.0012782961130142
3.90577001953125,-0.0219640310594812,0.0063399070786312,0.0359767377883195,0.0002850049058906,-0.0007030591368675,-0.0002583054592832
3.915749267578125,-0.0234942728340625,-0.0057741081557236,0.0419651645481586,-0.0033459467813372,0.0002608448266983,0.0021974644623696
3.92572802734375,-0.0153229125445708,-0.0090943568859249,0.0443611197739839,-0.0006191361462697,0.0014118626713752,-0.0005245525971986
3.935707275390625,-0.0046761933838017,-0.0124063857770524,0.0510948119431734,0.0006862377631478,0.0006004879251122,-0.0004974456969648
3.94568603515625,0.0059860156070441,-0.0166927578593604,0.0463058241009712,-0.0031074350699782,-0.0001459959894418,0.0004791354294866
3.955665283203125,0.0165663915333338,-0.0120192313566803,0.0373304904848337,-0.0011000951053574,-0.0014318376779556,2.16334374272e-05
3.96564404296875,0.0199452203166671,-0.005824833695963,0.0449660999298095,-0.0006209923885762,-0.0003822855651378,0.0003840896533802
3.975622314453125,0.0119090307141654,0.0013393405786715,0.0478097989231348,-0.0004175196809228,0.0027104774489998,-0.0010836781002581
3.985601318359375,0.0132140306318178,0.0124737701911479,0.0569376927524805,0.0007982132956385,0.0002670269459486,0.0004993048496544
3.995580322265625,0.0144027837586589,0.0129244731007143,0.050955695733428,-0.001306097023189,-0.0024941023439168,-0.0029308698140084
4.005559326171875,0.005132029126212,0.0156092186726629,0.0499117396384477,0.0017884962726384,-0.0004914049059152,-0.002209685742855
4.015538330078125,0.0036090573426336,0.0146019961251877,0.0527583612412214,0.0006014581304043,-0.0018742997199296,-0.0028978907503187
4.02551708984375,-0.0091507267156615,0.0089986048938706,0.0359995341420173,-0.0002422312973067,0.001226152293384,-0.0003178202023264
4.03549609375,0.0054669419026933,-0.0026316636778414,0.0524596705555915,-0.0001093866303563,-0.002023696899414,-0.0003309590392746
4.04547509765625,0.0065852601418271,-0.0037775457773357,0.0496194786936044,-0.000177563575562,-0.0024274317547678,0.0003577343886718
4.055453369140625,-0.0039511122459545,-0.0032674042981117,0.0457289009958505,0.0026109179016202,-0.0003649899736046,0.0007173903868533
4.06543212890625,0.0019013949082233,-0.0139662372386083,0.0478220738828182,0.0002287203678861,-0.0002861600369215,-0.0023819964844733
4.075411376953125,0.0078015040637925,-0.0088224811419844,0.0536544332981109,0.0003949748352169,-0.0006526987999677,0.002270862692967
4.08539013671875,-0.0013493139834143,-0.0038875454904511,0.0527560231536626,0.0015076434938237,3.59946861863e-05,0.0007869492983445
4.095369384765625,-0.0144287036512047,-0.0122013099253177,0.0443792399525642,-0.0012966663343831,-0.0021008597686886,0.0002456728834658
4.10534814453125,-0.0027025369569659,-0.009090922819823,0.0482704021722078,0.0005680790636688,0.00083420984447,0.0003042624448426
4.115327392578125,-0.0094580208328552,-8.40980868786e-05,0.0484200397759675,0.0005271289264783,-0.0006126202642917,0.0004386011860333
4.12530615234375,-0.0006233012638054,-0.0021910803034901,0.05964286005795,-0.0006838103872723,-0.0016203606501221,0.0013826917856931
4.135285400390625,-0.0013360161104239,-0.001414360309951,0.0544043748825788,-0.0005423756083473,0.0018150387331843,-0.0009159697219729
4.14526318359375,-0.0085295260773971,-9.5167470164e-06,0.064876084536314,0.0007854765281081,0.0015657674521207,0.0002646095235832
4.1552421875,0.003444587495923,-0.0016457579130306,0.0455699110418558,0.0004148490843363,0.0005137817934155,0.0004350119270384
4.16522119140625,-0.001233469051402,-0.0037277883514761,0.0473643932431936,0.0005280334153212,-0.0006995536386966,-0.001506698783487
4.175199951171875,0.0018543408961035,-0.0066807198729366,0.049010406884551,-0.0011081107659265,0.0022378899157047,0.0005418806686066
4.185178955078125,-0.0021162432353012,-0.0134273811215534,0.0484095183819532,0.002928708679974,-4.60371375083e-05,0.0003304256824776
4.195157958984375,-0.0004915281102992,-0.0051315907347947,0.0497568413376808,0.0013984318356961,0.0002362569794058,0.0019276968669146
4.205136962890625,0.0019148571779951,-0.0057741629546508,0.0545510898768901,0.0019678156822919,-0.0030191913247108,0.0011436622589826
4.2151162109375,0.0018834573927335,-0.0011567688196897,0.048570261901617,-0.0002264942741021,-5.37736341357e-05,-0.0001587644801475
4.22509423828125,0.0007708930409513,-0.0105012097428552,0.0395896675884723,-0.0008563318988308,-0.0004409980028867,0.0007621566182933
4.235072998046875,-0.0017691650969907,-0.0107280042360536,0.0521580572605133,0.0010555468033999,-0.0009127473458647,-0.001517959521152
4.24505224609375,-0.0031747393122874,-0.0011980141455307,0.0412356812298297,-0.0003231717273592,0.0007562553510069,-0.000781062815804
4.255031005859375,0.0033959443149156,-0.0131803475579246,0.0511111785560846,0.0015259168576449,-0.0003056628629565,-0.00140955473762
4.26501025390625,-0.0113612058393657,-0.0114826950608752,0.0500683915048837,0.0005834240582771,-0.0006103292107582,0.0004341516469139
4.274989013671875,-0.0007768478577025,-0.009185195240844,0.0500683915048837,0.0006078211008571,0.0030043991282582,-0.0007232790230773
4.28496826171875,0.0113327469298616,-0.005374295183178,0.0463256978452205,-0.0021501486189663,0.0010256702080368,0.0002724768710322
4.294947021484375,0.0128327579629607,-0.0054847880866378,0.0509662171274423,-0.0009152048733085,-0.0004346957430243,-0.0005012494511902
4.30492626953125,0.0019365940857678,0.0036809718013741,0.044383331605792,-0.0021469169296324,0.0016481624916195,-0.0001704848546069
4.314904296875,0.0028909174022264,0.004468030525837,0.0527653755038976,-0.0013402174226939,0.000216363929212,0.0004777897847816
4.32488330078125,0.0012121705350466,-0.0035983350192196,0.053363341397047,-0.0003774847718887,0.001548477448523,-0.001297473325394
4.334862060546875,-0.0023813421785831,-0.0003788615160621,0.054262336063385,0.0005641274619847,-0.0013090800493955,0.0011985065648332
4.344841064453125,-0.017693185339868,-0.0134966104328632,0.0485761071205139,-0.000149866042193,0.0008488791063427,0.0010160800302401
4.354820068359375,-0.0127217536028474,-0.0068450983881019,0.045880876687169,-0.0020895977504551,0.0005262549966573,-0.0006244878750294
4.364799072265625,-0.0092194445703178,-0.0023964118835516,0.0527618683725595,0.0014050022000446,0.0002205241471529,0.000654628383927
4.374778076171875,-0.0014401523383334,-0.0044986996587365,0.0562029487371444,8.9521636255e-05,0.0006716856732964,-0.0007530843140557
4.384757080078125,-0.0041329350862652,-0.0077951473882421,0.0533598342657089,-0.0008785374229773,0.0007670270279049,0.0019263221183791
4.394735107421875,0.0086522026089951,-0.0029001601546071,0.0469260018259286,0.0013613291084766,-0.000434810295701,-0.0020017300266772
4.40471435546875,0.0060226212903857,-0.0086720398206263,0.0467763642221689,6.75654155202e-05,-0.0013645198196172,0.0023365593515336
4.414693115234375,0.0090872330253943,-0.0063323448266834,0.0467740261346101,0.0010874620638787,0.000925987958908,0.0006964354543015
4.42467236328125,0.009383074166812,-0.0003441372625529,0.0449783748894929,0.0004658802063204,0.0005936250090599,0.0006967018125578
4.434651123046875,0.0063130373380146,-0.0023562442699447,0.0455763407826423,-0.000468764337711,0.0007331976667046,-0.0005037686787545
4.44463037109375,0.0031443624403327,-0.0020316519580781,0.0518611201405525,-4.42564487457e-05,-0.0015872148796916,0.0010443269275128
4.454609130859375,0.0010042268727906,0.0028723588322289,0.0448322444170713,0.0008029659511521,0.0003577778115868,-0.0002056831144727
4.46458837890625,-0.0035386589875444,-0.000696969288215,0.0469265863478183,2.58554937317e-05,0.0009410101920366,-0.0009801303967833
4.474567138671875,0.0118407512509264,0.0073786024766042,0.0371983885377645,0.0007726359181106,0.000190021470189,-0.0005222365143708
4.484545166015625,-0.0041518772487528,-0.0057062670839019,0.0461783983290195,0.0024392423219978,0.0002344958484172,-0.0016769832000136
4.49452392578125,-0.0040354660611599,-0.0040893516728654,0.0479758031398057,-5.78396720811e-05,0.0002578338608145,0.0002121736324625
4.504503173828125,-0.0046022148321382,-0.0072157400650903,0.050819502133131,-0.0002426630817353,-0.0009147552773356,-0.0015353925991803
4.51448193359375,-0.0006291282163932,-0.0024848756182938,0.0442366166114807,-0.0023780215997248,-0.0018204329535365,-0.0004530468722805
4.524461181640625,0.0004302081108093,-0.0011353059065528,0.0434948583334684,0.002114730887115,-0.0009626289829611,0.0005459048552438
4.53443994140625,0.0017747545875608,-0.001729764668364,0.0538227756023406,6.04143715463e-05,0.0003032861277461,-0.0004687669570557
4.544419189453125,0.01038503601728,-0.0011300086769275,0.0425982017546892,0.0009752101614139,-0.0010160440579056,-0.0023199301213026
4.554398193359375,0.0126427152835763,-0.0023025047887116,0.0414046080559492,0.0015137575101107,-7.44331628084e-05,0.0003065332421101
4.564376220703125,0.0104147735684178,0.0019190766953863,0.0515805496335029,-0.0016362293390557,0.000174306333065,-0.0007680522394366
4.574355224609375,0.0018891382148489,0.0051818778836168,0.0532265632748603,0.0033294460736215,-0.0010637734085321,-0.001429944881238
4.584334228515625,-0.0024240670754574,0.0049203591369092,0.0511351439535617,0.0030354328919202,-0.0011492613703012,-0.0006131534464657
4.594313232421875,-0.0036623401661403,0.0082984938004985,0.0417085594385862,-0.0024279067292809,0.0011301506310701,-0.0014791145222261
4.604292236328125,-0.0146795366071164,0.0057736332316882,0.0429074138343334,0.0022651157341897,-0.002053658477962,0.0022314675152301
4.614271240234375,-0.0259730475051328,-0.0027435265544801,0.0459025039970874,-0.0009023270686157,-0.0006985887885093,-0.0008085006847977
4.624250244140625,-0.0262150030348449,-0.0092913407627493,0.0580225653797388,-0.000560110900551,-0.0007952619343996,-0.0010649630567058
4.634229248046875,-0.0275604445607401,-0.0017269333904609,0.046496378237009,-0.0023324706126004,-0.0009334478527307,-0.0004891900462098
4.644208251953125,-0.0125103028092533,-0.0101462588253431,0.0447018960356712,-0.0021873284131288,-0.0022101672366261,0.0012775510549545
4.654186279296875,0.0033074623138643,-0.0090235566720366,0.0602688830018043,-0.0021013938821852,-0.0025359569117426,0.0009043622994795
4.66416552734375,0.0067590092735365,-0.0010217625294812,0.04545008405447,-0.0008129563648253,0.0043674893677234,0.0010505698155611
4.674144287109375,0.0108535303118638,0.0005353307194076,0.0376677596151828,0.0015197173925116,0.0011433595791459,0.0013461188646033
4.68412353515625,0.0068231422846205,0.000459580335766,0.0448556252926588,0.0012954791309311,-0.0007448215037584,-0.0004208885075058
4.694102294921875,0.0097249464070424,0.0070104815502651,0.0463502477645874,-0.0020577143877744,-0.0010976791381835,0.0009074620902538
4.70408154296875,0.0047774618011899,0.0065065140835009,0.0463514168083667,0.0022712538484483,0.0003135297447443,0.0014459531521424
4.714060302734375,-0.0003114771019667,0.0188033202725462,0.0444067124813795,-0.0024246214888989,-0.0001832349225878,-0.0005445769638754
4.72403955078125,-0.0019951376062817,0.0139388743076473,0.0412649073243141,0.0028103543445467,0.001752084121108,-0.0005823938408866
4.734018310546875,0.0090130718106403,0.0102987825059331,0.052787002813816,0.0013246037997305,0.0024109734222292,-0.0002605137997306
4.743996337890625,0.0065992521345615,0.0059169689588248,0.0453103833228349,0.0012660142965614,-0.0013885581865906,-0.0026043618563562
4.75397509765625,0.0024550284693017,-0.0063307373914867,0.0506985061019659,-0.0009355239453725,-2.30753794312e-05,0.0006420875433832
4.763954345703125,0.0036028467975556,-0.0037569413807243,0.0478524690210819,0.0002738175098784,-7.52732157707e-05,-0.0002074608637485
4.77393310546875,-0.0065656786585226,-0.0038471769474446,0.0508498972713947,0.000798231747467,-0.0020372550934553,-0.0009480927838012
4.783912353515625,0.0076229874254204,-0.0149895158717408,0.0533978281885385,0.0019905290100723,-4.81400638818e-05,-0.0012016256805509
4.79389111328125,0.0026879239097237,-0.0022100041996687,0.039629415076971,-0.0001470934366807,-0.0006227390840649,0.0015740615781396
4.803869140625,-0.0034251156104728,-0.0067736405870877,0.0438221905916929,0.0003019155119545,-0.0012304726988077,0.0001311608502874
4.813847412109375,0.0065506089535541,-0.010296663614083,0.0563923338294029,-0.0001495584729127,9.3393959105e-05,-0.0024574007838964
4.823826416015625,0.0025238741881214,-0.0118515283732675,0.0489063619881868,0.0011314221192151,0.0027624145150184,-0.0003953151463065
4.833805419921875,0.0028913375273346,-0.0126241201809607,0.0524953263908624,-0.0013688340550288,-0.0008785258978605,-0.000408130697906
4.843784423828125,0.0063899567654356,-0.0190157209142111,0.0504027380257844,0.0014144356828182,-0.0006947675719857,0.0008299728506244
4.853763427734375,0.0027973938998766,-0.0113302809781394,0.0504068296790123,-0.0013749203644692,-0.0006132265552878,-0.0013634354108944
4.8637421875,-0.0114018483770079,0.0005234576185233,0.0442728569686412,-1.11155677586e-05,0.0001934450119733,0.0001332611282123
4.87372119140625,-0.0123965767690911,-0.0004268471099436,0.0403816947489976,0.0026493929326534,-0.0007968284189701,-0.0044704335741698
4.8837001953125,-0.0124901550703682,-0.0012756459590047,0.0493681342810392,-0.0008603870519436,-0.0031326878815889,-0.0013388224178925
4.89367919921875,-0.0061560201453976,0.0039417233631014,0.0456283632308244,-0.0010988460853695,0.000438361428678,0.0005536205717362
4.9036572265625,0.0048553128103725,-0.0062073667401447,0.0436819053381681,0.0002244786010123,-0.0007062656804919,-0.0013880901969969
4.91363623046875,0.0098473672103136,-0.0096413963094353,0.0378472078353166,-5.0768139772e-06,-0.0018569659441709,0.0006921628373675
4.923615234375,0.0098328272283077,-0.0050356560796499,0.0486228688716888,0.00028653931804,-0.0001797070726752,0.0016149481525644
4.93359423828125,0.0069482665016315,-0.0047522725610062,0.0658329468697309,0.0041255787946283,0.0025666141882538,-0.0013802695320919
4.9435732421875,0.0152752374779433,-0.0046424189783632,0.0487748445630073,0.0006469577201642,-0.0009162677451968,-0.0012649546843022
4.95355224609375,0.01779438069202,-0.001527355697751,0.0454816482365131,0.0006476297276094,-1.00275501608e-05,0.0021251244470477
4.96353125,0.0021635529757477,-0.0050136999761685,0.0493733949780464,-0.0005284222424961,-0.001591145992279,0.0026289944071322
4.973510498046875,0.0092385511295869,0.0027271234089508,0.0435445426940917,0.0006524005439132,-0.0038916300982236,-0.0015073484973981
4.9834892578125,-0.0017219101554714,0.0063659913679584,0.0356137496948242,-8.50287033244e-05,0.0018104640766978,1.3322896847e-06
4.993467529296875,-0.0018785437555983,-0.008735003787931,0.0475812508642673,-0.0010462531354278,0.0004364997148513,0.0007015874143689
5.0034462890625,-0.0034253896051086,-0.0045494799979031,0.0472808066129684,0.0005010433378629,-0.0003126477822661,-0.0013525086687877
5.01342529296875,-0.0136398913610726,0.003363156290166,0.0576046322286128,-0.0010730508947744,0.0001556724309921,0.0004557551583275
5.023404052734375,-0.0056904667265713,0.0007729571338742,0.0469827004492282,0.0016329871723428,0.00039136223495,0.0005718689644709
5.03338330078125,-0.0052669440848752,-0.0063075026463717,0.0439887793302536,0.0002858405932784,-0.0016996646299958,0.0013340984005481
5.043362060546875,0.0029773718429729,-0.0106574962831102,0.04623334338665,-0.0009986020158976,-0.0005811369046568,-0.0003157298779115
5.05334130859375,0.0026171784947626,-0.0128198254161514,0.0562561402291059,-0.0012155261356383,-0.00132242962718,0.0001648699690122
5.063320068359375,-0.0025644801931455,0.0011441833327524,0.04727788400352,0.0004907611291855,-0.0014539891853928,-6.57597774988e-05
5.07329931640625,-0.0010336721629835,-0.0002247121339663,0.0466793335884809,-0.0005787223926745,-0.0003397157415747,0.0006246928824111
5.08327734375,0.0005809599594213,-0.0081386635962873,0.0480284101098775,0.0007603149861097,0.00016282312572,-0.0027039921842515
5.09325634765625,-0.0032189255138859,0.0056719812218099,0.0415963312357664,0.0002345359534956,-0.0003629876300692,-0.0015141748590394
5.1032353515625,0.0069121357423253,-0.0016366612911224,0.0447352137833833,-0.0007961074006743,0.0007741823792457,-0.0008060403051786
5.11321435546875,0.0068036338665522,-0.0073069985451176,0.0541600447326898,0.0001686270115897,-0.0003262907266616,-0.0017915067728608
5.123193359375,-0.0022219868984073,-0.0048802645885385,0.0517652585506439,0.0014291011029854,-0.0012797024101018,-0.0019422416808083
5.13317236328125,0.0084643518866971,-0.0044026371394284,0.0477273813366889,0.0026281289756298,0.0012635635212063,-6.09336311754e-05
5.1431513671875,-0.0014000760562717,-0.0111119255197234,0.0559580340653657,-0.0010728659108281,0.0021410752087831,0.0022200637031346
5.15313037109375,0.0011508322692476,-0.0053636824576184,0.0575952798783779,-0.0007809620001353,0.0017103841528296,-0.0017246885690838
5.163108154296875,0.0146944601816125,-0.000704933398962,0.0575941108345985,-0.000226491887588,0.000902647152543,0.0009682999225333
5.17308740234375,-0.0035412162708118,-0.0045678011058829,0.0532557893693447,0.0017346309032291,-0.0002344520762562,-0.001337255584076
5.183066162109375,-0.006227916337829,-0.0078437357703223,0.0390408015340566,0.0006781548145227,0.0019810311496257,-0.0015180842019617
5.19304541015625,0.0057559697108343,-0.0039052090113051,0.0490612602889537,-0.0018925487529486,0.0001432569697499,0.0018157550366595
5.203024169921875,0.0053203365062363,0.0001390614108182,0.0510071336597204,0.0005402487586252,-0.0013116272166371,0.0002450225874781
5.21300341796875,-0.0035694559846073,0.0003682487905025,0.0501098925590515,0.0010317986598238,0.0007542027160525,0.0025033368729054
5.222982177734375,-0.0055530858161859,-0.000984974183049,0.0505605589359998,0.0006959741003811,0.0008516740053892,-0.0021654507145285
5.23296142578125,-0.0025537213371135,0.0018793657395057,0.0490618448108434,-0.0020614045206457,-0.0004854341968894,0.0024792477488517
5.242940185546875,-0.0028487770272418,0.0006128529350273,0.0456190108805894,0.0003277172800153,-0.000353074632585,0.0008944007568061
5.25291845703125,0.0009204575794748,0.0059464690479449,0.0508563270121812,-0.0001419499167241,0.0005427822470664,0.0025290113408118
5.262897216796875,0.0032380686057731,-0.0010288133247755,0.0492120669364929,0.0004098570207133,-0.0011230250820517,0.0021617615129798
5.27287646484375,0.0006009067689068,-0.0091146324889734,0.0459188706099987,-3.27502493746e-05,-0.0020258678123354,-0.0007607256993651
5.282855224609375,-0.0070271586904302,0.0040584268116392,0.0480196422815322,0.0001560678938403,-0.0005395570769906,0.000544755894225
5.29283447265625,0.00144349507289,-0.003637625849992,0.0568459228157997,-0.0005179510335437,-0.0003139311447739,-0.0003071979735977
5.302813232421875,0.0065172364069148,-0.0102017153396271,0.0477191980302333,0.0010868697427213,-0.0015562959015369,0.0001290278160013
5.31279248046875,0.0032594036547467,0.0059229420418851,0.0504126748979091,0.0001735960249789,-0.0009736893698573,-0.0010414820862933
5.322771240234375,-0.0062645037548616,0.0054492601155303,0.0490641828984022,-0.0006863386370241,-0.0003153551369905,-0.0009911484085023
5.33275048828125,-0.0038275041325949,0.0027482575285248,0.0499625930428504,0.0016166269779205,-0.0010314146056771,0.0016522018704563
5.342728271484375,-0.0099894608284346,-0.0056603455829434,0.0465232662439346,-0.0002230848767794,-0.0005278112366795,0.0009768243180587
5.35270703125,-0.0006923296457156,-0.006843070827797,0.0448778371244668,0.0007302935118786,0.000388354063034,0.0008494143839925
5.362686279296875,-0.0164481902474537,-0.0011920045298524,0.0463753822058439,-5.00126043334e-05,-0.0005035391077399,-0.0014824493555352
5.3726650390625,-0.0045504481122829,-0.0049125228903256,0.0513157612174749,-0.0009232677402906,-0.0007466673851013,-0.0011128165060654
5.382644287109375,0.0054980494270101,-0.0058901540171355,0.0439852721989154,0.0005353455198928,-0.0006177704781293,-0.000587907503359
5.392623046875,0.0087993377284146,-0.0067901898630894,0.0415910705387592,0.0004520920920185,0.0006262240931391,0.0007121157832443
5.402602294921875,0.0125477304765023,-0.00355339989895,0.0499725299149751,0.0023426702246069,0.0005820151418447,-0.0006455637048929
5.412581298828125,0.0016981274210847,0.0068270147421397,0.0484790764868259,-0.0010583773255348,-8.350238204e-06,-0.0009220628999173
5.422559326171875,0.0055428018841892,0.0087665131710469,0.0438426488578319,-0.0013057849137112,-0.0015868060290813,-0.0003020790463779
5.432538330078125,0.0045604945822618,0.0029227007799781,0.0405547132283449,-0.000426188315032,-0.0029865279793739,0.0008816042682155
5.442517333984375,0.0054012927879579,0.0006304981895722,0.0499830513089895,0.000178349262569,0.0010247249156236,-0.0006260112859308
5.452496337890625,0.0062543294207192,0.0036160350726917,0.0471387677937746,0.0005198617582209,-0.0008313227444887,-0.0009102773037739
5.462475341796875,0.0017673019334673,0.0022195940119214,0.0499818822652101,-0.0006793597131036,-0.001389255747199,0.0027379870880395
5.472454345703125,0.0011606412772089,-0.0042311895626597,0.0544704258561134,0.0012598293833434,-0.0006436882540583,3.01650270557e-05
5.482433349609375,0.0021737821088172,-0.001940119483415,0.0472854827880859,-0.0011047912994399,0.0005070641636848,0.0033665732480585
5.49241259765625,0.0040199579647742,0.004479812295176,0.0432435139209032,-0.0022597373463213,-0.0012738956138491,0.0003721637476701
5.502391357421875,-0.0009350888930261,-0.0106636337629519,0.050125674650073,0.000529657350853,0.0010326681658625,0.0003181015781592
5.512369140625,-0.0057335386833176,0.0012226371301338,0.0531195957690477,-0.0008173518581315,-0.0027941185981035,-0.0012458157725632
5.522348388671875,0.0015948862423188,-0.0053182724133133,0.0501309353470802,-0.000100428937003,-0.0015613418072462,0.0012764640850946
5.5323271484375,-0.0034631277996115,-0.0023437318482436,0.0472878208756446,0.0015438885893672,-0.0017634313553571,0.0009549183305352
5.542306396484375,-0.002960786034353,0.003801894767303,0.0466945311576127,-0.0012593547580763,-0.0014070998877286,-0.0013875982258468
5.55228515625,0.0006150631584227,0.0007310542209073,0.0486380664408206,-0.000172292755451,0.0020068697631359,0.0018478797283023
5.562267333984375,-0.0041345607877708,0.0008996522534638,0.044745150655508,-7.7093718573e-06,-0.0018888022750616,0.003173601347953
5.572246337890625,-0.000788483496569,-0.0119745154321193,0.0513274516552686,-0.0008242701878771,0.0003852546215057,-0.0014782737707719
5.5822255859375,0.002075271904096,-0.0079265734818764,0.053725160446763,0.0005925315781496,0.0022840881720185,-0.0011315301526337
5.592203369140625,-0.0127101544965989,-0.0045753633578307,0.0392085593163967,-4.17636474594e-05,0.0004721330478787,-0.0011883445549756
5.602182373046875,-0.0051153337197378,0.0067400853773579,0.0474427191764116,-0.001022073207423,-0.0009465320035815,-0.0019942172802984
5.612161376953125,0.0017709186626598,-0.0062149107257835,0.0543248799055814,-0.0015530539676547,-0.0016634091734886,0.000255367369391
5.622140380859375,0.0046361536343581,-0.0047049445542506,0.0495370611071586,-1.32142449729e-05,-0.0001043947413563,0.0008372680749744
5.63211962890625,0.0033425701598636,0.0007094999762251,0.0428051225036382,-0.0001223661820404,0.000116410665214,-0.0007336677517741
5.642098388671875,0.0100468535714782,-0.0105679183035157,0.0452004932075738,0.0022339988499879,0.0006213458254933,-0.0008431237074546
5.652077392578125,0.002113393691089,-0.0046175037328153,0.0532826773762702,-0.0003589235711842,0.0009591793641448,0.0003602342621888
5.66205615234375,-0.0014830416319891,0.0062641932276077,0.052982817646861,-0.0006896881968714,-0.0007662829011678,0.0018537349533289
5.672035400390625,0.0035408326783217,0.003138900813926,0.040714872226119,-0.0022858709562569,7.69840553402e-05,-5.8154619182e-06
5.68201318359375,-0.0001957052351906,0.0020030834507197,0.0374187532901763,-0.0002738528128247,0.0001454269513487,0.0006999222096055
5.691992431640625,0.0034445144306868,0.001121514843218,0.0510369442760944,0.0026540232356637,-0.0015636971220374,0.0010050621349364
5.70197119140625,0.0027952202090993,-0.0039202969825826,0.0511889199674129,0.0019296433310955,0.0008539203554391,0.0014679195592179
5.711950439453125,0.0075249704110436,0.005616561240144,0.043258711490035,0.0001809239620342,0.0007263384759426,0.0013483797665685
5.72192919921875,0.0059159643118269,-0.0053544945041649,0.0452063384264707,7.22669647075e-05,-0.0017410796135663,-0.0003416621766518
5.731908447265625,0.0013379340728744,-0.0040730398588813,0.0540378796577453,0.0025775823742151,0.0009882217273116,0.0006265845731832
5.74188720703125,-0.001099357810337,-0.0089773429101333,0.0509013351976871,0.0039714812301099,-0.0006887707859277,0.000688369909767
5.751866455078125,-0.0067313540816307,-0.0123584549820981,0.0504547604739665,-6.18583289906e-05,0.0002854634076356,0.0005129183991812
5.76184521484375,0.0025890118462033,0.0039783838453702,0.0534480970710515,-9.3940179795e-06,0.0012737624347209,-0.0011832489399239
5.771823486328125,0.0026017069309949,-0.0004359254655428,0.0440191744685173,-0.0002331343130208,-8.97450372576e-05,-0.0004873865691479
5.781802490234375,0.0116998266765847,-0.0025833310240879,0.043122517889738,-0.0002104974118992,-0.0003070589154958,-4.39702562289e-05
5.791781494140625,0.0019896211809478,0.0045159613207913,0.0378805255830287,-0.0028733606450259,0.0008271308615803,0.0012990991817787
5.80176025390625,-0.0045104631617665,0.002978467821516,0.0482031821548938,0.0006002003210596,-0.0013547977432608,-0.0007528663845732
5.8117392578125,-0.0063216225032694,0.0105906963909044,0.0468617044180631,0.0019283022265881,-0.0005546584725379,-0.0009200928616337
5.82171826171875,-0.0071973093592561,0.0036011845634318,0.0402794034183025,-0.0011918572708964,0.0017670858651399,-0.0001168834569398
5.831697265625,0.0018700864545069,-0.000761431092862,0.035638299614191,-0.0009538519661873,3.2009556889e-06,-3.95306342397e-05
5.84167626953125,0.0049524895745329,0.0027412249995395,0.0434194550096988,0.0009055670816451,-0.0010783085599541,-0.0006200997740961
5.8516552734375,0.0045870903282426,-0.0041081111722625,0.0507540356814861,0.0025274225044995,-0.0015288023278117,-0.0003153458237648
5.86163330078125,0.0090980466803535,-0.0094665511991828,0.0521019431591033,0.0010355197591707,-0.0002225218340754,-0.0009409223566763
5.871612548828125,0.0128660939769819,-0.0067498761190101,0.0498573791027069,0.0036823027767241,0.0013962127268314,0.0028904362116008
5.88159130859375,0.0040995260070078,-0.0053960686235688,0.042673020556569,-0.0012730410089716,0.0019336380064487,-0.0039416369982063
5.891570556640625,0.0025613383879885,-0.0043125477031804,0.0432721554934978,-0.0001134035992436,-0.0003066295757889,-0.0015812318306416
5.90154931640625,-0.0112235874669626,0.0099984295861795,0.0407271471858024,-0.0018391319317743,0.0004337290301918,0.000153284985572
5.911528564453125,0.0028329949362203,0.0016189064387232,0.0396767613500356,-0.0002840015513356,-0.0021029151976108,-0.0021341792307794
5.92150732421875,0.0030799371683038,0.0038576070099137,0.0393792397081851,-0.0002304720110259,-0.0009870501235127,0.0006919672014191
5.931486572265625,0.0023064685777761,0.0143217544117011,0.0477548538655042,-0.0008193700923584,-0.0001588482409715,0.0001291006628889
5.94146533203125,0.002583696350269,0.0048549657505005,0.049549336066842,-0.001692886929959,0.0002459520474076,0.0005490811890922
5.951443359375,-0.0007381050162017,0.0059934865274466,0.0507446833312511,-0.0007439755136147,-0.0001041376963257,0.0014170896029099
5.96142236328125,-0.0043013321894221,-0.0002299545646645,0.0420668713569641,0.0006866746698506,0.0002934727817773,0.0011853945907205
5.9714013671875,-0.0020267383209429,-2.2102233953e-06,0.0488023170918226,-0.0003336489608045,-0.0004442892968654,-0.0013620055979117
5.98138037109375,0.0022888050569221,-0.007497059490811,0.049998833400011,-0.0010236740345135,0.0007176483049988,1.88434860319e-05
5.991359375,0.0019815292060375,-0.0066429816784337,0.041468320941925,0.0037071742117404,0.0012886496260762,-0.0001560189994052
6.00133837890625,0.0067632105246186,0.0014226349479518,0.0414729971170425,0.0003273562178947,-0.0021689319983124,0.0004453227738849
6.0113173828125,0.0032617782749235,0.0006771868755109,0.0553916323542594,-1.6179983504e-06,-2.06502154469e-05,0.0002314752782694
6.02129638671875,0.0022887319916859,-0.0060839960888028,0.0630237346678972,-2.9495568014e-06,0.0005484670400619,-0.0009658819762989
6.0312744140625,0.0014093188086524,-0.001438965028245,0.0410275914371013,0.0002883082488551,0.0007441146299242,0.0007551550515927
6.04125341796875,0.007822839112766,0.0017509718531742,0.0497065724551677,0.0003389082849025,-0.0017086565494537,0.0008478330564685
6.051232421875,-0.0029285277325659,-0.0036908538745716,0.0272609318912029,0.0001195395016111,0.000291533768177,-0.0024603721685707
6.06121142578125,-0.0008646722716279,-0.0067478668250143,0.0440209280341863,-2.13417224586e-05,0.0008193720132112,-7.65766963013e-05
6.0711904296875,0.0055427836178801,-0.0001269508479163,0.0495575193732976,0.0013729203492403,-0.001355143263936,0.0016032351413741
6.08116943359375,-0.0001771831978112,-0.0084234901533462,0.0546457824230194,0.0007143206312321,-6.16461038589e-05,-0.0013536725891754
6.0911484375,-0.0048565549193881,-0.0038669593601487,0.0510556489765644,-0.0008681015460751,-0.0009886585175991,-0.0008680950268171
6.10112744140625,-0.0010150953266769,0.0025886282537132,0.0495610265046358,0.002749802544713,0.0020404206588864,-0.0002459805982653
6.1111064453125,-0.0044923247168771,0.0027360191014595,0.0438765511274337,0.0007443676004186,-0.0031137950718402,0.0013493271544575
6.121084228515625,0.0080412493701092,0.0052272696616128,0.0456798011571168,-0.0005081170238554,-0.0025255028158426,-0.0004400507896207
6.1310634765625,0.0120610977370291,0.0081625924611464,0.0431406380683183,-1.19701726362e-05,-0.0009278720244765,-0.0009047723724506
6.141042236328125,0.012300879575964,0.0081359601825475,0.0405979678481817,-0.0009895412949845,-0.002102374099195,0.0003956801956519
6.151021484375,0.0013529672452248,-0.0103235698873177,0.048081601601839,-0.0009188319090753,-0.0003460459411144,-0.0006763868150301
6.161000244140625,0.0091549462330527,0.0008939896976575,0.0428448699921369,0.0017286166548728,-0.0008136974647641,0.0002866122522391
6.1709794921875,-0.0002407499533146,0.002586491095554,0.0443424150735139,0.0003189276903867,-0.0015891911461949,0.0007133453618735
6.180958251953125,0.0041507630039006,-0.0011136055313982,0.0383592490106821,-0.000666974519845,-2.7455389499e-06,-0.0022044139914214
6.1909375,-0.0017020729438401,3.65691507235e-05,0.0512269138902425,0.0003513747942633,0.0023131966590881,0.0003038001595996
6.20091552734375,9.75786229595e-05,0.0050135538456961,0.0506289479970932,0.000531138095539,-0.0005140146240592,0.0024356604553759
6.210894287109375,0.0044975306149572,0.0055900933583267,0.043892917740345,0.0012230104766786,-0.0004950538277626,0.0005288142128847
6.22087353515625,-0.0103746607537381,0.0049679428719915,0.0545189411729574,-0.0009946038480848,-0.0009632380679249,-0.0007388504454866
6.230852294921875,0.0002844064319506,0.0053662032082676,0.050175943532586,0.0009361470583826,-0.0023344317451119,0.0010650272015482
6.24083154296875,-0.0076559033143334,-0.0042754305631853,0.048531098935008,0.0003822095459327,-0.0011575808748602,0.0014360055793076
6.250810546875,-0.0006585917728953,0.0005265811573714,0.0564671526312828,0.0032798182219266,-0.0025857780128717,-0.0009724768460728
6.26078955078125,0.0058592474222183,-0.0003055222852155,0.0480903694301843,0.0009855050593614,-0.0019570058211684,0.0004299437568988
6.2707685546875,0.0085722509742714,-0.001195347264409,0.05182838691473,6.01880601607e-05,0.0017142882570624,0.0020214077085256
6.28074755859375,0.0122085433837026,-0.004221599750407,0.0491319874376058,0.0013526200782507,-0.0004021264612674,-0.0011371013242751
6.29072509765625,0.0044664413569495,0.0005509301473386,0.058410103392601,0.000853004225064,-0.0031041344627738,8.58471612446e-05
6.300704345703125,0.0047627756887115,-0.0099546269770711,0.0431499904185533,3.16853984259e-05,0.0018746452406048,5.30902761965e-05
6.31068310546875,-0.0026496194596402,0.0027938137033022,0.0421036962360143,-0.0002549041819293,0.0005691722035408,0.0011269617825746
6.320662353515625,-0.0063063336025923,0.0047569304698146,0.0489887795746326,0.0015861389692872,0.0009055295959115,-0.0006392465438693
6.33064111328125,-0.0026387875383719,0.0062020147115923,0.0509375755548477,-0.0024648131802678,-0.0018959380686283,0.0003829594061244
6.340620361328125,-0.0017783713167533,0.0041839528874494,0.0455512063413858,0.0007629379397258,-0.0010357368737459,-0.0009515506098978
6.350599609375,-0.0028324469469487,-8.04630913771e-05,0.0371761767059564,0.0006504927878268,-0.0011071618646383,0.0001694651000434
6.360578369140625,-0.0012945698551833,0.0051069494838826,0.0433101494163274,0.0002712585846893,0.0010995334014296,-0.0010630458127707
6.3705576171875,-0.0048392384584061,-0.0001135799096897,0.0564800121128559,0.0010098823113366,-0.0031170910224318,0.000363088940503
6.380535400390625,0.0011435074793174,0.0007591843368485,0.0557335776597261,0.0002926930319517,0.0002640588209033,-0.0019362842431291
6.390514404296875,-0.0090782825339585,0.0060036973942071,0.0497445663779973,-0.0013204592978581,-0.0010909596458077,0.001486710854806
6.400493408203125,-0.0011971190963871,0.0013991627408191,0.0515408021450042,3.05622816085e-05,-3.958120942115784e-07,-0.0001029300328809
6.410472412109375,-0.0011979593466036,-0.0001433174608275,0.0412181455731391,0.0012837718240916,-0.0022117113694548,-0.0014997911639511
6.420451416015625,0.0125914052214473,0.0072293301990255,0.0534872600376606,0.0003388822078704,0.0003108344972133,-0.0010739517165347
6.430430419921875,0.0088898838223889,0.004899827805534,0.0600730681687593,0.0045552616938948,0.0025771223008632,0.0010373373515903
6.440409423828125,0.0041946386782452,0.003843487153016,0.0367272638946771,3.26815061271e-05,0.0008703023195266,0.0003800692502409
6.450388427734375,0.0013820472092367,0.0022002499906346,0.0484001660317182,0.0017757616005837,-0.0010304879397153,0.0007207964663393
6.4603671875,0.0099193364679813,0.00618354747314,0.0484019195973873,0.0013669661711901,0.0015692897140979,-0.0008057274972088
6.47034521484375,0.000905607070215,0.0069284840889275,0.0509445898175239,-0.0014372596051543,-0.0008497145026922,-0.0005069547332823
6.480324462890625,0.0044474261292256,-0.0018007658116519,0.0518441690057516,0.0016975471517071,-0.0011940607801079,0.0005220907041803
6.49030322265625,-0.0007604447121731,-0.0053514988294802,0.0475058475404977,-0.0006519970484077,-0.0007537556812167,0.0023139144759625
6.500282470703125,-0.0015201222393661,-0.0039372481173835,0.0528945548415184,-0.0027084900066256,-0.0001998180523514,-0.0011750926496461
6.51026123046875,0.0025519129725173,-0.0057861821860074,0.0515478164076805,-0.0007310946239158,-3.13511118292e-05,0.0024464267771691
6.520240478515625,-0.0009513276417739,-0.0013630319815129,0.0578296731561422,-0.0019921013154089,0.0001737121492624,0.0005633057444356
6.53021923828125,0.0057819078696891,-0.002835333023779,0.0552864184141159,0.0004279679269529,0.0008714962750673,-9.23855986911e-05
6.540198486328125,-0.0037579825603403,0.0003956665203906,0.044961423754692,-0.0013901721686124,-0.0007114866748452,-0.0003930564853362
6.550176513671875,0.0047799825518392,0.0084380118690431,0.0543880082696676,-0.000310662202537,0.0007566744461655,0.0003167977847624
6.560152587890625,0.0012760295514948,0.0069343658404424,0.0570797315716743,-0.0012140064500272,0.0005516102537512,0.0020856694318354
6.570131591796875,0.0013830153236165,-0.0037343642227351,0.0528857870131731,-0.0001850840053521,-0.0001427205279469,0.0001415790175087
6.580110595703125,0.0067698411948047,0.0020170206445269,0.0479424853920936,-8.4416475147e-05,0.0045745372772216,0.0024388215970247
6.590089599609375,0.0075814133060164,0.0021338884898461,0.0486848281919956,-0.0020841595251113,0.0008765133097767,-0.0003124427166767
6.600068603515625,0.012645382164698,3.92725644633e-05,0.0501806197077035,0.0020099182147532,-0.0001256335526704,0.0006295173661783
6.610047607421875,0.0053767794012092,-0.0040332375714555,0.0491331564813852,0.0015058778226375,-0.000720327720046,0.001569825108163
6.620026611328125,0.003636602936685,-0.0093492266961373,0.0536246226817369,-0.001730928197503,-0.0027256878092885,-0.0005250174435786
6.630005615234375,-0.0010956497495993,-0.001917597124353,0.0608113193154335,-0.0007174880011007,-0.0018684957176446,0.0006180502241477
6.6399833984375,-0.001529090997111,-0.0045970819992944,0.0473445194989442,0.0049478542059659,0.0015645856037735,0.0011964888544753
6.649962646484375,-0.0026399200495332,-0.0020403649874962,0.0515332033604383,-0.0021964500192552,-0.0015149172395467,-0.0007519116625189
6.65994140625,0.0013126900337636,-0.0047945590664632,0.0539279895424842,-0.0004960216465406,-7.14836642146e-05,-0.0003417849075049
6.669920654296875,-0.001919314157404,-0.0034391258695162,0.0474888964056968,-0.0004870651464443,0.0005789883434772,0.0023645015899091
6.6798994140625,0.0001007204281166,-0.0018932116017676,0.0504839865684509,-0.0003789408074226,-0.0010431427508592,0.0002297114406246
6.689878662109375,-0.0012262355930171,0.0017369433278217,0.0536275452911853,-0.0026178481057286,-0.0003928672522306,-0.0011969017796218
6.699857421875,3.21304376237e-05,0.0063275773200206,0.0455441920787096,-0.0020537907257676,0.0020817425101995,0.0008193774265237
6.709836669921875,0.0047361982090398,0.0027300460183992,0.0464408486574888,-0.0004891528515145,-0.0011108173057436,-0.0025186161510646
6.7198154296875,-0.0071048635691404,0.0006284888955764,0.0533271010398864,-0.0007248425972647,-0.0003909645602107,0.0013104770332574
6.729794677734375,0.0119683048870414,0.0098203148066066,0.0516775802671909,0.0001134189078584,-0.001172543503344,0.0009331412729807
6.739772705078125,-0.0070465392443351,0.0004128551172092,0.0465939933925867,-0.000449839659268,-0.0005709351971745,0.0009110370301641
6.749751708984375,0.0085138353179208,-0.0122892256707884,0.0503349334865808,0.0023915991187095,0.0012154318392276,-0.0012722818646579
6.759730712890625,0.0079962594509124,-0.0036600020785816,0.0600613777309656,0.0023276833817362,-0.000289786607027,0.0010348146315664
6.769709716796875,0.0063902490263804,-0.0016166231500916,0.0567722730576992,0.0015741607639938,-0.0011241864413022,0.0025102540384978
6.779688720703125,-0.0005258139723911,0.0008221117715351,0.048100306302309,0.0001024979283101,-0.0034049181267619,0.0006377854151651
6.78966748046875,0.0092372907542623,-0.0087516078628599,0.0501958172768354,0.0016968098934739,0.0014343401417136,-0.0015083996113389
6.799646484375,-0.0033796690335497,0.002695979352016,0.0433101494163274,-0.0016944593517109,-0.0008141668513417,0.0015845956513658
6.80962548828125,-0.0040164690997451,0.0028131577245891,0.0446563033282756,-0.0015623620711266,-0.0012276088818907,-1.41003765747e-05
6.819603515625,-0.0005165894863195,-0.0024970044475048,0.053335284346342,-0.0001551476889289,0.0005931938067078,-0.0004726967017631
6.82958251953125,0.0038515425953082,-0.0029663389923051,0.0534855064719915,0.0002474479260854,-0.0009403340518474,4.00765929953e-05
6.8395615234375,-0.0040671581073664,-0.0030053375621326,0.0573778377354145,-0.0003200716746505,-0.0022831000387668,0.0015796499792486
6.849540771484375,0.0064042044864967,0.0047703927395865,0.0522936663389205,-0.0019134167814627,-0.0010685874149203,0.000587269954849
6.85951953125,0.0029452779379673,-0.0004548858943395,0.0469102197349071,0.0009500139858573,9.9930912256e-06,-0.0018777518998831
6.869498779296875,-0.0026607984407804,-0.0013188823125325,0.0464601378798484,6.63649407215e-05,-0.0008255923166871,-0.0010771912056952
6.8794775390625,0.0062028184291906,0.0013505743587389,0.0524462265521287,-0.0009475004626438,0.0019158655777573,-0.0014135483652353
6.889456787109375,0.0055043330373242,0.0052871466226875,0.049754503250122,-0.0007235289667733,-0.0001483932137489,-0.0024923554155975
6.899435546875,-0.0051884902874939,-0.0032152174531482,0.0539431871116161,0.0004759588045999,-0.0009848913177847,-0.0001932483282871
6.90941357421875,-0.0045050563342869,0.0029606216375716,0.0490016390562057,-0.0002753532317001,-0.0016589509323239,-0.0005434165359474
6.919392578125,0.0004978482532314,-0.0006796893598511,0.0461620317161083,0.000600826810114,0.0008129952475428,-0.0016358451684936
6.929371826171875,0.0064478792314417,0.002328278550785,0.0419721788108348,0.0028694067150354,0.000244103372097,-0.0004086007538717
6.939350341796875,0.0034336277104914,-0.0034791108200326,0.0433154101133346,-0.0013570297742262,0.0010339971631765,4.2006096919e-05
6.94932958984375,0.0044214879703707,0.0004171476998366,0.047953006786108,0.0011732508428394,0.001823304221034,-0.0016283800359815
6.959308349609375,0.0023053360666148,0.0026881796380504,0.0451093077927827,0.000721578777302,0.0003508431836962,-0.0013578028883785
6.96928759765625,0.002273516156245,0.0067892034824006,0.0475070165842771,-0.0006715033086948,-0.0010711932554841,0.0001720107393339
6.979266357421875,0.0077723327682353,0.0100754768777638,0.0400245518743991,0.0017969806212931,0.0005927504971623,0.0006348681636154
6.98924560546875,0.0061181906193494,0.0050223216740414,0.0600759907782077,-0.0001922112423926,-0.0005244640633463,-0.0018601733027026
6.9992236328125,0.0127758766765706,-0.0054993646012619,0.0392798709869384,0.0008882331312634,-0.0004171384498476,0.001368643133901
7.009202392578125,0.0083646909045055,-0.0001707717233337,0.0548398436903953,0.0014666948700323,-0.0008970843628048,0.0013998072827234
7.019181640625,0.0119185109285637,-0.0010164105009287,0.0470621954262256,0.0010504426900297,0.0009937593713402,-0.0007102153613232
7.029160400390625,0.0167481595747172,-0.0012382913569919,0.0449631773203611,-0.0022834446281194,0.0007205987349152,0.0005660929600708
7.0391396484375,0.0032757702676579,0.0015599062604829,0.0446656556785106,0.0034897560253739,0.0004992904141545,0.0006587709649465
7.049118408203125,0.007972184455581,-0.0037712621670216,0.047357963502407,-0.0022670929320156,-0.00050216820091,0.0015392999630421
7.05909765625,0.0005620177969336,-0.0024608006229624,0.0439139605283737,-0.0007544173859059,-0.0011711539700627,-0.0012029570061713
7.06907666015625,-0.0022049626983702,-0.0129638004641048,0.0368850848048925,0.0008623054018244,0.0005176216363906,0.0004899051273241
7.0790556640625,-0.0097977376486174,0.0017612375188618,0.0443652114272117,0.0001549698063172,0.001851599663496,0.0002848417207133
7.089033447265625,-0.010053703437373,0.0014247538398019,0.0455593896478414,-0.0003063752956222,-8.22413712739e-05,-0.0001560995006002
7.099012451171875,0.0049803274295292,0.0097195030469447,0.0518465070933103,-0.0004121027886867,-0.0003887712955474,0.0005272676353342
7.108991455078125,0.0067287967983633,0.0023520064862444,0.0576806200742721,3.2076495699e-06,0.0011280206963419,-0.000645182270091
7.118970458984375,0.0033647271927446,0.001846559448447,0.0379261182904243,0.0017004400724545,-0.0001992983743548,0.0015631108544766
7.128949462890625,-0.0003803593534044,-0.0042271709746681,0.0549883122503757,0.0017887272406369,-0.0007571000605821,-0.0014499943936243
7.138928466796875,0.0008658047827892,-0.0087276607316918,0.0514040240228176,0.0026007250417023,-0.0021320898085832,0.0003353887295816
7.148907470703125,-0.0020900493481196,-0.0042982999821193,0.0469184030413627,0.0007070145802572,-0.0018837675452232,0.00018791880575
7.158886474609375,0.0054059506967663,-0.0091764091461896,0.0596387684047222,0.0012782627018168,0.0019772835075855,0.000936000724323
7.168865478515625,-0.000840816472005,-0.0038060229531489,0.0588935029953718,0.002290423028171,-0.0021693976595997,-0.0004033123259432
7.178843505859375,-0.0023348178894259,-0.0014115838309749,0.0433346993356943,-0.0022049928084015,-0.0012412862852215,-0.0009114433778449
7.188822509765625,0.0074806746115908,0.0017240473136305,0.0410889662355184,0.0001894311280921,-0.0002717478200793,-0.0009209953714162
7.198801513671875,0.005995696750842,0.0119209038150496,0.0431844772100448,0.0009428394259884,-0.0007127672433853,0.0014367010444402
7.208780517578125,0.0080458342136815,0.0034328605255112,0.0481248562216758,0.0015093735419213,-0.0015178397297859,0.001272963010706
7.218759521484375,0.0113908155263401,0.0016516761971637,0.0461836590260267,0.0029240446165204,-0.0011692317202687,-8.97764766705e-05
7.228738525390625,0.004066354389768,0.0067895505422726,0.0476835421949625,0.0011805112008005,0.0035129152238368,-0.0001560885575599
7.238717529296875,-0.0033670287476852,0.0014990794513374,0.0569604891061782,-0.0008645301568321,0.0001064660027623,0.0013368795625865
7.248696533203125,0.0007545446943491,-0.0015040113547816,0.0424462260633707,-0.0012211973080411,-0.000154404900968,0.0003460881998762
7.258675537109375,0.0047266083967871,-0.0059279287442564,0.043795887106657,-0.0001024033408612,-0.0014910455793142,-0.0011418199865147
7.2686533203125,0.0009842252643778,-0.0034981077814474,0.0566653055518865,-0.0014374029124155,0.0012143114581704,0.0014057240914553
7.278632568359375,0.0059600409155711,-0.0029103892876766,0.0460422047287225,-0.0007015715236775,-0.0012429878115653,0.0026243866886943
7.288611328125,0.0055311479790136,0.0051287594568915,0.0485854594707488,0.0009974950226023,-0.0004557659849524,-0.0009302984108217
7.298590576171875,0.0029586671425029,0.0013744118920527,0.0472381365150213,0.0014845872065052,-0.0010547116398811,0.0003557420277502
7.3085693359375,-0.0047437787272967,0.0018969744614325,0.0463420644581317,0.0011121071875095,0.0010421508923172,0.0017955555813387
7.318548583984375,-0.0113108638916164,0.0053661849419586,0.0384124405026435,-0.0011691565159708,1.73663720488e-05,0.0013076644390821
7.32852734375,-0.0106703557646833,0.0035295988982543,0.0454419007480144,0.0008624522015452,0.0005865786224603,-0.001249217428267
7.338506591796875,-0.0010982435654848,0.0052995677128434,0.0554705428093671,-0.0008254593703895,-0.002939180471003,0.0006115332944318
7.3484853515625,0.0029113939346745,0.0043046383913606,0.0529243654578924,0.0003030663938261,0.0029183160513639,0.001617903704755
7.358463623046875,0.0067975329193286,-0.0011695004370994,0.0548673162192106,0.0009699218790046,0.0012035071849822,-0.0010929279960691
7.368442626953125,-0.0004365830526687,-0.0069686699688434,0.0529191047608852,-0.0005398780340328,-0.0009122835472226,-0.0003138951724395
7.378421630859375,0.0038194304239936,0.003933960181754,0.0527671290695667,0.0001884965458884,0.0019737835973501,-0.0003711531753651
7.388400634765625,0.0121285004174336,0.0005495784404687,0.0437853657126426,0.0008801447693258,-0.0009341742843389,-0.0009491410455666
7.398379638671875,0.008092815160565,0.0053217247457243,0.0494715946555137,0.0006809403421357,7.1701593697e-05,0.0014825913822278
7.408358642578125,-0.0063356144960038,0.0025156908816657,0.0461789828509092,-5.65513619221e-05,-0.0002154912799596,-0.0008694464340806
7.418337646484375,5.25521711446e-05,-0.0029724947384558,0.0515653520643711,0.0012918070424348,-0.0011012582108378,-0.0013855670113116
7.428316650390625,0.0086017875960096,-0.0003231127408333,0.0464800116240978,-0.0017683457117527,0.0020082918927073,-0.0005897495429962
7.43829541015625,-0.0054171114115975,0.002735836438369,0.050067806982994,1.06458901427e-05,-2.34339386224e-05,0.0011391745647415
7.4482734375,-0.0045269759051501,0.0001393171391449,0.0547077417433261,0.000855199759826,-0.0006515979766845,-0.0012196584139019
7.458252685546875,-0.0033089418848976,0.0015194463859312,0.0445335537314414,-0.000520056579262,0.0004442930221557,-0.0011679930612444
7.4682314453125,0.0014788951798342,-0.002478336279653,0.0461801518946886,-0.000691169523634,-0.0003917114809155,-0.0009447091142646
7.478210693359375,0.0034080731441266,0.0029306466244161,0.0472252770334482,0.0001964620314538,-0.0001541571691632,0.0016779720317572
7.488189453125,0.0038142427922226,0.0093559852304868,0.0493190344423055,0.0006686706328764,0.0006317682564258,-0.0019140773219987
7.498168701171875,-0.0035440110160969,0.0036478915156796,0.0407885219842195,0.0018993173725903,0.0006107296794652,-0.0023479061201214
7.5081474609375,0.0063069546571001,0.0016564254375174,0.0488701216310262,-0.0004915473400615,-0.0008368911221623,-0.0005500518018379
7.518126708984375,0.0023430559948086,-0.001107997774519,0.0395931747198104,-0.0001570542808622,-0.0002781599760055,0.0003338513488415
7.52810546875,0.0019548786611296,0.0015950323727913,0.0406423915117979,0.002743313089013,-0.0006344383582472,-0.0012626573443412
7.538083740234375,-0.0019254151046276,0.0074536587405018,0.0442401237428188,-0.0002386282139923,-0.0005851695314049,0.002799462294206
7.5480625,0.005153528571967,0.0018799685277044,0.0620475831121206,0.0005397351924329,-7.91857019066e-05,0.0016273899236693
7.55804052734375,-0.0084382858636789,0.0032363698390312,0.0409492655038833,0.0003493191907182,0.0012025935575366,-0.0014003579271957
7.568019775390625,-0.0037027635080739,0.0120355797032825,0.0530716649740934,0.0001557533978484,-0.0026654815301299,-0.0015774688217788
7.57799853515625,-0.00729326228071,0.0075468169166706,0.0487321744650602,0.0016106383409351,0.0011204686015844,0.0022505589295178
7.587977783203125,-0.0062679926198907,0.0037974925868213,0.0535194087415933,0.0008841400849632,0.0016916580498218,-0.000577044673264
7.597956787109375,0.0073387088576331,0.0051737128434702,0.0425923565357923,-0.0030751812737435,-0.0003560464829206,0.0001683741575106
7.607935791015625,0.0040805107792839,-0.0027173509336076,0.0590513239055871,-0.0011547403410077,4.05451282858e-05,0.0010480069322511
7.617914794921875,0.0079516165915876,0.002721625249926,0.0494756863087415,0.0007267829496413,-0.002697717398405,0.0018549447413533
7.627892822265625,0.0085822061127051,0.0029855734157375,0.0391547833025455,-0.0005780170904472,0.00058398488909,-0.0008259430178441
7.637871826171875,0.0013648951450362,-0.0036295704076997,0.0470867453455925,0.001186859793961,0.0013877274468541,0.0005559712881222
7.647850830078125,0.0100548176822252,-0.005160451503098,0.0514250668108463,0.0002398709766566,0.0006209276616573,0.0003737813385669
7.657829833984375,0.0083302954445593,-0.0042304223776794,0.0536713844329118,0.0004297543200664,-0.0018563447520136,0.0005309078260324
7.667808837890625,0.0051429341127164,0.0060443764644674,0.0490343722820281,0.0001275725080631,0.0004883846268057,0.0027552326209843
7.6777880859375,0.0015771496562287,0.0072210555610246,0.0542746110230684,-0.0010756436968222,-0.0019233739003539,8.00872439867e-05
7.687766845703125,-0.0110911932589486,0.0091417762242257,0.0458954897344112,-0.0012849634513258,-0.0007576886564493,-0.0003215772449038
7.69774609375,-0.0027241460005752,0.0097655524120666,0.0472422281682491,0.0034943453501909,0.0008489964529871,0.0002057286328636
7.7077236328125,-0.0038134573409333,0.0018521489390172,0.0384095178931951,0.0001145281130447,0.0015932451933622,-0.0012664410751312
7.71770263671875,-0.000826934077125,-0.0075872585249133,0.044245384439826,0.0003981547197327,-0.0006416803225874,-0.0020581986755132
7.727681640625,0.0054083618495613,-0.002898735382501,0.0479886626213788,0.0020670918747782,-0.000819306820631,-0.0004453214060049
7.73766064453125,0.0057383427225984,0.0029903043897822,0.0565220976889133,0.0027579157613217,-0.0006983987987041,0.0012836027890443
7.7476396484375,-0.0075277286237105,0.0007033442300744,0.05203355409801,0.0006987580563873,-0.0008990429341793,-0.0001417120365658
7.75761865234375,-0.0053444663004949,-0.005379154021386,0.0512847815573215,0.0004825093783438,0.0017220405861735,-0.000888728769496
7.76759765625,0.0029865780627354,-0.001133643672429,0.0503840333253145,0.0016758921556174,-0.0005174949765205,0.0002246072835987
7.77757666015625,0.0122672330346889,0.007326196435932,0.0436520947217941,-0.0007393286796286,0.0005392469465732,-0.0006798022077418
7.7875556640625,-0.0020186463460326,0.002080843128357,0.0539753358155488,0.001166311558336,0.0002246210351586,-0.0009442166774533
7.79753466796875,0.0027427228368818,0.0040269904937595,0.0467944844007492,0.0005149023490957,0.000871236436069,-0.0008328965050168
7.807512939453125,0.0022127624123357,0.0096136497859843,0.0556254411101341,0.0009818841936066,-0.00018688198179,-0.0021501400042325
7.81749169921875,0.0038329657590016,0.0024540238223038,0.0568260490715503,0.0001491137081757,-0.0022036945447325,0.0020472682081162
7.827470947265625,0.0085459292229264,0.0057499052962288,0.0409662166386842,-0.0018583262572064,0.0013428144156932,-0.0008244079072028
7.83744970703125,-0.006837189076282,0.0094573632457293,0.0538315434306859,0.0004013659199699,0.0003220252692699,-0.0022087190300226
7.847428955078125,0.0018132964996621,-0.0018439656325615,0.0587666617453098,-0.000575142679736,0.0009680185467004,0.0015886834589764
7.85740771484375,0.0010865531276911,-0.005012476133462,0.0545762243181467,0.002321577630937,0.0017302148044109,-0.0010268070036545
7.867386962890625,-0.0018065196990035,0.0023392931351438,0.0550239680856466,-0.0006402782164514,-0.0005428344011306,-0.0009553852141834
7.87736572265625,0.0013674889609217,0.0052175337188877,0.0464876104086637,0.0006284517003223,0.0004084464162588,-0.0001899927447084
7.887344970703125,-0.0011066643339581,0.0061880044525489,0.0535170706540346,0.0016807904466986,0.0003219535574316,-0.001446021720767
7.89732275390625,0.0003467858773656,0.0040835612528957,0.0502238743275403,0.0017907789442688,-0.0005848528817296,0.0008573462837375
7.9073017578125,0.0010852014208212,0.0048384530071169,0.0488771358937025,0.0009290687157772,0.0019009672105312,-0.0004117167263757
7.91728076171875,0.004604571186006,0.007969773302786,0.0455856931328773,0.0028622571844607,-0.0005099922418594,0.0015528971562162
7.927259765625,0.0042633930655196,0.0093219368304125,0.0431932450383901,0.0003866878687404,-0.0003481553867459,0.0005599328433163
7.93723876953125,0.0034553828845731,0.0072556336840614,0.0563607696473598,-0.0012522214092314,0.0010071275755763,-2.46310155489e-05
7.9472177734375,-0.0012909348596818,0.0054504291593097,0.0554600214153528,-0.0001147387083619,-8.61091539263e-05,0.0016989124706014
7.95719677734375,-0.0078168660297058,0.0059667446509934,0.0517179122775793,0.0001600995310582,0.0029693357646465,-0.0001330760132987
7.96717578125,-0.0032319493922404,0.0011088745573535,0.049773207950592,-3.88643238693e-05,-0.0005206884816288,6.15409662714e-05
7.97715478515625,-0.0010247947367839,-0.0053137606349773,0.0497755460381507,0.0014290700200945,-0.0030296528711915,-0.0021028099581599
7.9871328125,-0.0031152642100118,0.0055997745021246,0.0623486118853092,-0.0022255815565586,7.75232911109e-05,-0.0020910624880343
7.99711181640625,0.0013384455295279,0.0132095553860999,0.0472352139055728,-0.0014543301658704,-0.0012330189347267,0.0010671799536794
8.0070908203125,0.0026001177621074,0.0073263060337863,0.0479839864462614,0.0003920699236914,-0.000285062007606,-0.0006334250210784
8.01706982421875,-0.0012617635641247,0.0124131077787838,0.0500794974207878,-0.0014865238917991,-0.0002179499715566,0.0016315934481099
8.027049072265624,-0.0011344656563363,0.0128070024671964,0.0412497097551822,0.0006296796491369,-0.0002637943252921,-0.0004023806541226
8.03702783203125,0.0018079079384915,0.0054622839938849,0.0385544793218374,0.0007878714241087,0.0007865568622946,-0.0013222363777458
8.047007080078124,0.00109795130454,0.0029022973127663,0.047083822736144,-9.58333839662e-05,-0.0021718759089708,0.0009463733294978
8.056985595703125,0.0023517324916087,0.0023439510439522,0.0548667316973209,0.0028509544208645,-0.0009191241115331,7.60522671043e-05
8.06696484375,0.005457114628423,0.0022036840567365,0.0521785155266523,0.0020845350809395,-0.0019428422674536,0.0015768996672704
8.076942626953125,-0.0001954495068639,-0.0008665354351513,0.0454442388355731,-0.0017288451781496,0.0004113921895623,0.0009175009909085
8.086921875,0.0048518056790344,0.001218545476906,0.040804304075241,0.0011055084178224,-0.0006644148379564,-0.0008991503273136
8.096900634765625,0.0041762445050291,0.0106453674538992,0.0402104298353195,0.0002799285575747,-0.0013445857912302,0.00097464985447
8.1068798828125,0.0046356604440137,0.0020370587855577,0.056220484393835,-0.0031793054658919,0.00190538354218,-0.0004066652036271
8.116858642578125,-0.0037853637576103,0.0146408668308518,0.0420019894272089,-0.0010306669864803,-0.0007764203473925,-0.0001089237848646
8.126837890625,0.0020927162292413,0.0178794834258966,0.0523269840866327,-0.0005289793480187,-0.0022503482177853,0.001350377802737
8.136816650390625,-0.0055940023484639,0.008710033743456,0.0449924034148454,-0.0010578831424936,0.0002136081457138,0.0003146744857076
8.1467958984375,-0.0092584614064544,0.0055923218480311,0.0500789128988981,0.002241731621325,-0.0003830390051007,-0.0008570626378059
8.156774658203124,0.0115556506992317,0.0031787213676609,0.0502314731121063,0.0012843252625316,0.0018630707636475,-0.0003151093260385
8.1667529296875,0.0041777423423714,0.0034536293189041,0.0411018257170915,-0.0008613826939836,-0.0015710890293121,0.002217712579295
8.17673193359375,0.0027293701649643,-0.0010336538966745,0.0418476756483316,-6.08364935033e-05,0.0004329392686486,-0.001446530688554
8.1867109375,0.0079592884413897,-0.0042229697235859,0.0466349099248647,-0.0008549427147954,-0.0004606852307915,-0.0008757966570556
8.19668994140625,0.0041598413594998,0.0022753975860774,0.054116790112853,-0.0008914279751479,-3.99053096771e-05,-0.0022001867182552
8.206668701171875,0.0138499904477968,0.0034599859944544,0.0458855528622865,0.000411185901612,6.58528879284e-05,-0.0020091149490326
8.216647705078126,0.0047574419264681,0.0110515188356861,0.0378080448687076,0.0016812474932521,0.00176468398422,0.001908661215566
8.226626708984375,-0.0004235043753869,0.0111678204254247,0.0535229158729314,0.0010489785345271,-0.0009910790249705,0.0010054587619379
8.236605712890626,0.0001310973000712,0.0029897746668197,0.0485848749488592,0.0017848099814727,0.001034521497786,-0.0002488900208845
8.246584716796875,-0.0068582501306198,0.0155129917565733,0.0518821629285812,0.0049097659066319,-0.0010780403390526,0.0015926249325275
8.256562744140625,3.31533509306e-05,0.0073621810647659,0.0435100559026002,0.0039992309175431,-0.0022687399759888,-0.0007616095244884
8.2665419921875,0.0001131049856543,0.0074449274447746,0.0477034159392118,0.0004004968795925,0.0011143824085593,-0.0023949116002768
8.276520751953125,0.0008798515744507,0.011060487593431,0.0530874470651149,-0.0003449219220783,-0.0001471564173698,-0.0022918472532182
8.2865,0.0013964775933884,0.007054119762592,0.0406698640406131,0.0009301130776293,-0.0015719076618552,0.00086097989697
8.296478759765625,-0.0052514907874166,0.0109722613207064,0.0521942976176738,0.000986838247627,-0.0014635175466537,-0.0022133730817586
8.3064580078125,-0.003715622989647,0.0139076206528581,0.054292146679759,-0.0001195399672724,0.0019148411229252,0.003007133025676
8.316436767578125,-0.0028686507714912,0.0081251647938974,0.0498000959575176,-0.0015123732155188,-0.000791729427874,-0.0008667011861689
8.326416015625,-0.007478683583904,-0.000458192096278,0.0583288548499345,0.0005426609423011,-0.0007994202896952,0.0001214123476529
8.336394775390625,-0.0019925803230144,0.0009587072306312,0.0483095651388168,0.0049587148241698,-0.0016385819762945,-0.0009933869587257
8.346373046875,0.0076554101239889,0.0108885468263179,0.0526537318229675,0.0015385102014988,0.0026218546554446,0.0022248104214668
8.356351806640625,0.0047994361709803,0.0097347554150037,0.0495119266659021,-0.0015600776532664,-0.0003254665061831,0.0011496922234073
8.36633056640625,0.0005233662869781,0.0084676032897084,0.0487666612565517,0.0017601563595235,-0.0028714863583445,-0.000159651011927
8.376309814453125,-0.0019603037549182,0.0001121186049655,0.0520639492362737,0.0012562863994389,0.0004883576184511,0.0003197179757989
8.386288818359375,0.0059128042403608,0.0016744908171705,0.0475748211234807,0.00215356471017,0.0026897266507148,-0.0012934275437146
8.396267822265624,0.0059650093516334,0.0014899097641929,0.045330841588974,0.0010070739081129,0.0003410847857594,8.84867185959e-05
8.406246826171875,0.0044310960489325,-0.0099131076565943,0.0468289711922407,-0.0008723696228116,-0.0005110716447234,0.0026460839435458
8.416225830078124,-0.001023095970042,0.0069162456618621,0.0481762941479682,0.0011873191688209,-0.0006434302777051,0.0012013189261779
8.426204833984375,0.0014254114269278,0.005165310341306,0.0465296959847211,2.82229739241e-05,-0.0007550567388534,-0.0012230231659486
8.436183837890624,0.0101921985926106,0.0072689680896699,0.0568535216003656,-0.0014567556791007,-4.69218939542e-05,4.9435202527e-05
8.44616162109375,0.0100645353586412,0.0075430357906967,0.048922728601098,0.0009532344993203,-0.0022063003852963,5.98547849222e-05
8.456140869140626,0.0047102417838759,0.0033072979170829,0.0522206011027097,0.0028320946730673,0.0003431439399719,0.0025291375350207
8.46611962890625,0.0091208065014332,0.0088362356727011,0.0549123244047164,-0.0023017292842268,-0.0002882229164242,0.0010453520808368
8.476098876953126,0.0053452152191661,-0.0001749912407249,0.0426373647212982,0.001775304088369,0.0006822329014539,-0.001324328710325
8.486077880859375,-0.001289272625558,-0.0017897877599112,0.0447352137833833,0.0011436017230153,0.0003542676568031,-0.0013198521919548
8.496056884765625,0.0064739269881509,-0.0023979097208939,0.0550631310522556,-0.0005704087088815,-0.0013946304097771,6.01978172198e-05
8.506035888671875,6.03701514191e-05,0.0120696098370477,0.0547667784541845,0.001228236942552,0.0009184898808598,-0.0030670624691993
8.516014892578125,0.0084088588397949,0.0079676726772449,0.0502782348632812,-0.0001004140358418,-0.0009084390476346,-0.0015756923239678
8.525993896484374,-0.0028504757939837,0.0005914813534356,0.0541734887361526,-0.0006548988167196,-0.0003947112709283,-0.0008549399790354
8.5359716796875,-0.0031195385263301,0.0095329857652075,0.0501332734346389,-0.0009851307841017,0.0001829285174608,0.0032612418290227
8.54595068359375,-0.0088512688450515,0.0071683755257166,0.0543202037304639,-0.0009508564253337,-0.0004080664366483,0.0010306196054443
8.5559296875,0.0046944414265453,0.0096003153803758,0.0513297897428274,0.0004835220752283,-0.0011809160932898,-0.0032621298450976
8.56591015625,0.0060458377691917,0.0092123389760963,0.0543237108618021,0.000875774945598,0.0017036767676472,1.56814530782e-05
8.57588916015625,0.0043138994100503,0.0042214901525527,0.0516296494722366,0.0018686014227569,0.0002615749835968,-0.0006011066725477
8.5858681640625,-0.0032735965768806,0.0037863684046082,0.0493891770690679,0.0001696735271252,-0.0022065518423914,-0.0003999667824245
8.59584716796875,0.0110675566550344,-0.006214746329002,0.0410153164774179,0.0023526665754616,0.0008709970861673,-6.84032274875e-05
8.605826171875,0.000936458866205,0.0047610951882787,0.0550830047965049,0.0017623328603804,0.001803969964385,0.0001706020266283
8.61580517578125,-0.0029986520930193,-0.0006212371708825,0.0507423452436923,0.0022550176363438,0.0006502885371446,0.0016289489576593
8.625783203125,-0.0024905929730273,0.0054125265680253,0.0417664271056652,-5.27340453118e-05,-0.001011524349451,0.0025495032314211
8.635761962890625,0.0063140602513216,0.0070294054464437,0.0573310759842395,0.0016980280634015,-0.0010743746533989,0.0003808910842053
8.6457412109375,0.0046036030716262,0.0068387965114787,0.055084758362174,0.0004380296450108,-0.0006386581808328,0.0013277612160891
8.655719970703124,0.0016230894234962,0.0025500680753029,0.0496989736706018,-0.0001436047605238,-0.0002700760960578,0.0006281488458625
8.66569921875,0.0003042253772728,0.0007173362228088,0.0594277560025453,0.0011179090943187,0.0003520818427205,-0.001482332823798
8.675677978515624,-0.0049545536674559,-0.0014501257430762,0.0576326892793178,-0.0005257938755676,-0.0009145177900791,-0.0013912527356296
8.6856572265625,0.0010276808136142,0.0086745057723484,0.0520955134183168,0.0001788786030374,0.000652752816677,0.0003930651873815
8.695635986328124,-0.0027221549728885,-0.0014654694426804,0.0410223307400941,-0.0002200775197707,0.000415570102632,-0.0010186159051954
8.705615234375,-0.0056586102835834,0.0113791798874735,0.0485018728405237,5.7003344409e-06,0.0039779599756002,-0.0006036352715454
8.71559326171875,-0.0021184717250056,0.0044920141896232,0.0479021533817052,0.0015031957300379,-0.0011867089197039,0.0030587436631321
8.725572265625,-0.0027854294674471,0.0095965342544019,0.0501490555256605,-0.0009466711198911,0.0010981876403093,-0.0003985063522122
8.73555126953125,0.0072717080360278,0.0093606248729862,0.0507493595063686,-0.0016830351669341,0.0008763466030359,-0.0010451219277456
8.7455302734375,0.0033284503029659,0.0071603748823516,0.0420668713569641,0.0007734252722002,0.0012651765719056,0.0017142688157036
8.75550927734375,0.0027403299503959,0.005123736221902,0.04625204808712,-0.0008018345106393,-5.8414414525e-05,-0.0017481069080531
8.76548828125,0.0015480514259077,-0.0036156697465106,0.050291678866744,0.0004864280926994,0.0009631281718611,-0.0001517442724434
8.77546728515625,0.0046868791745975,0.0043332982302643,0.0532844309419393,-0.0003695118357427,-0.0026782127097249,-0.0009983631316572
8.7854462890625,0.0025026670033112,0.0102271055092103,0.0477501776903867,0.0002959379926323,-0.0032728249207139,0.0007567995926365
8.79542529296875,-0.0024205782104283,0.0018929376071318,0.0487964718729257,-0.0003805048763751,-2.90945172309e-05,-0.0012613438302651
8.805404052734374,0.0050355830144137,0.0045155777283012,0.0513385575711727,-0.0004818090528715,-0.0012326585128903,-9.44768980843e-05
8.815382080078125,0.0039740181975066,0.0119353159328922,0.0582265635192394,0.0018183632055297,-0.0009402437135577,-0.0014638743596151
8.82536083984375,0.002582673436962,0.0123242056526243,0.052091421765089,0.0016616081120446,0.0015694657340645,0.0012957132421433
8.835340087890625,0.004510992884729,0.01450438096961,0.0465524923384189,0.0011007463326677,-0.0004292363300919,-0.0021272476296871
8.8453193359375,0.000565287466254,0.0143543415070511,0.049400282984972,-0.0010014063445851,-0.0031845066696405,0.0006058060098439
8.855298095703125,0.0079370400769636,0.0134792939718812,0.0535918894559145,0.0003946226206608,0.0001196768134832,0.0003714478225447
8.86527734375,0.0059653564115054,0.0059275451517663,0.0525455952733755,-0.0008787635015323,-0.0019885199144482,-0.0023752977140247
8.875256103515625,0.0017022190743125,0.0028409955795854,0.0449134929597377,-0.0005048556486144,0.0027098283171653,-0.0013763459865003
8.8852353515625,0.0049887847306206,0.0035224202387966,0.0338414793252944,-0.0005039572715759,-0.0018569529056549,0.0009340334217995
8.895213134765624,0.0065562715093605,-0.0038054384312592,0.0471644867569208,0.0002734194276854,-0.0016343127936124,0.0021063569001853
8.905192138671875,-0.0033917795964516,-0.0047715617833659,0.0562923805862665,0.0001366808428429,0.000383598729968,-0.0008598545100539
8.915171142578124,-0.001845171208959,0.0044797392299398,0.0489572153925895,-0.0029749565292149,0.0007977206259965,-0.0002278864121763
8.925150390625,0.0031609299826435,0.0103308946772478,0.0473071100980043,-0.0010911102872341,-0.0007275994867086,-0.0003818872210104
8.935129150390624,-0.0012144903562963,0.0173573957805521,0.0462584778279066,-0.0019545070827007,-0.0004469025880098,0.0015118865994736
8.9451083984375,0.0025198556001298,0.008267477607727,0.0467056370735168,4.77327848784e-05,9.17073339223e-05,-0.0023250228259712
8.9550869140625,-0.0007104498242959,0.0050590186889283,0.0471539653629064,0.0013223217101767,0.0001287255436182,-3.86989522667e-05
8.965066162109375,-0.0022835991588421,0.0088485471650026,0.0505979683369398,0.0005116082029417,-0.001218220219016,0.0002523882722016
8.975044921875,0.0061978682594373,0.0076668448334559,0.0479074140787124,0.0026040538214147,-0.0011873273178935,-0.0007239265250973
8.985024169921875,0.006064670333825,0.0028285196905024,0.0562865353673696,-0.0008369703427888,0.0001581599935889,0.0002589058713056
8.995002197265626,0.0164402992019429,0.0031200499829836,0.0525467643171548,0.0002509310143068,0.0001951782032847,-0.0013586982386186
9.00498095703125,0.0099344427055679,0.000757266374398,0.0571878681212663,-0.0005936523666605,-0.0030528306961059,-0.0009375437512062
9.014960205078124,0.0041404060066677,0.0051818778836168,0.0515045617878437,0.0015906721819192,-3.2447278499e-06,-0.0039562368765473
9.02493896484375,0.0058461322123184,0.0062836833793669,0.0464157142162323,-0.0004642583662644,-0.00025768391788,-0.0003280866076238
9.034918212890624,0.0079801303000189,0.0076896046545356,0.043572015222907,-0.0009699926595203,-0.0001391731202602,-5.16504806e-05
9.04489697265625,6.60875061526e-05,0.0114746030859649,0.0518032524734735,0.002111405134201,-8.69259238243e-05,-0.0025415122509002
9.054876220703123,-0.0032095366310328,0.0070756009420379,0.050907180416584,0.0010583910625427,-0.0018581943586468,0.0002026088477578
9.064855224609374,0.0104644579290412,0.0105197317802347,0.052706923314929,0.0008691637776792,-0.0005904557183384,0.0009889494394883
9.074834228515623,0.0114056295029819,0.0118621958977542,0.0498649778872728,0.0003881969023495,-0.0005121594294905,0.0009588557295501
9.084812255859376,0.0068629263057373,0.00336037981119,0.0497176783710718,-0.000843632617034,-0.0011785980314016,0.0014291083207353
