seconds_elapsed,ax,ay,az,gx,gy,gz
0.111392822265625,0.0005110182620584,-0.0026183566716965,0.048443420651555,-0.0007864525541663,-0.0009708683937788,0.0001426982344128
0.1213720703125,0.0088000318481586,0.0042967199463862,0.0536813213050365,-0.0007417114102281,-0.0019466504454612,-0.0007712986553087
0.131351806640625,-0.0080447747677564,-0.0048760724706109,0.0571218171477317,-0.0014067026786506,-0.0003008162602782,-6.47620254312e-05
0.141331787109375,-0.0056751960922032,-0.0025684896479826,0.056375382694602,0.0008293449645861,-0.0002264818176627,0.0004841068584937
0.15131201171875,0.0004774265197105,1.30878104362e-05,0.0469482136577367,-0.0002010319731198,-0.0002704234793782,-0.0011691835243254
0.1612919921875,-0.0092435560982674,-0.0009594196166843,0.0448497800737619,0.0023512418847531,0.0042440481483936,0.0019196794601157
0.17127197265625,-0.0054919484797865,-0.002127951939404,0.054273441979289,-0.0007707818294875,-0.0017539225518703,0.001190772280097
0.181251953125,-0.0034729550738818,-0.0023740539212711,0.0458978278219699,0.0017645736224949,-0.0001374864950776,0.0005755966994911
0.191230712890625,-0.0045257520624436,0.0032615499460604,0.0532324084937572,0.0011999835260212,-0.0003697145730257,-0.0030521613080054
0.2012109375,-0.002478336279653,0.0013521452613174,0.0589203910022974,0.0001897602342069,-0.0004718657582998,-0.0021845302544534
0.21119091796875,-0.0081358323183842,-0.0049712764733936,0.0462041172921657,0.0022217519581317,-5.21522015333e-05,0.0003854201640933
0.221170654296875,-0.0019673180175945,-0.0014735979502089,0.0474012181222438,-0.0015838465187698,-0.0014870204031467,0.0016262446297332
0.231151611328125,0.0057042943225242,0.0015906849912367,0.0553355182528495,0.0001365555217489,-0.0020910250023007,-0.000908019428607
0.241131591796875,0.0029715448903851,0.0018516557486727,0.0477051695048809,-0.001001936965622,-0.0006630104035139,0.0001917572517413
0.25111181640625,0.0006877265358343,-0.0047520990310702,0.0393260482162237,0.0014548290055245,-0.0007024249061942,-0.0014594026142731
0.261090576171875,0.0099364519995637,0.0046127910250797,0.0512958874732255,0.0001045720418915,0.0013882145285606,9.1663750936e-06
0.271070556640625,-0.0047531310775317,0.0045282819462474,0.0509936896562576,-0.0002469652681611,-0.0008025020360946,-0.0022728962358087
0.28105078125,-0.00725238228105,0.0051251883934717,0.041145664858818,0.0008534793742001,-0.0014488110318779,0.0001039580165524
0.291030517578125,-0.002077372529637,0.0055445919824764,0.0405821857571601,0.0022716126404702,0.0005325805395841,0.0010816043941304
0.3010107421875,-0.0094420926113612,0.0004408847684506,0.0459492657482624,-0.0025994884781539,-0.0003756657242774,0.0010704605374485
0.31099072265625,0.0040794513333588,0.0031237580437213,0.052188452398777,0.0012772750342264,7.70715996623e-05,-0.0011450231540948
0.320970458984375,0.0009827822259627,-0.006070743881585,0.0445440751254558,-0.0001740547013469,-0.0025294926017522,-4.33875757153e-05
0.33094970703125,0.0026177264840342,0.0046223077720962,0.0532154573589563,-0.0013860592152923,-0.0019409339874982,-0.0012410110794007
0.3409296875,-0.0081076656698249,0.010784803324053,0.051994391131401,-0.0005922530544921,0.0008708527311682,-0.0013789611402899
0.350909423828125,-0.0015750307643786,-0.0053524578107055,0.0416892702162265,0.0002125542378053,0.0004969453439116,-0.0002404597180429
0.3608896484375,0.000577745089028,0.0042702337982598,0.0454582673609256,-0.0008737390162423,-0.0004072394222021,0.0011405253317207
0.37086962890625,0.000650518064294,0.0002769720441661,0.0355962140381336,0.0005875375354662,-0.0014517307281494,0.0006238720379769
0.380849609375,-0.0018476919596083,0.005861238449905,0.0504307950764894,-0.0013911460991948,0.0003209197893738,-0.0002720602496992
0.39082958984375,0.0040200675626285,0.0057203230087179,0.0540109916508197,-0.0020755785517394,-1.78348273038e-05,0.0015711134765297
0.400808837890625,-0.0085113145672716,-0.0054479449412785,0.0520581040173769,-0.0008445805287919,-0.0040770852938294,0.0022420980967581
0.41078857421875,-0.0052583589196205,-0.0028689978313632,0.049060675767064,-0.0016941288486123,0.0016710814088582,-0.0004080136422999
0.4207685546875,0.0028367760621942,-0.0073820456758607,0.0552092615246772,-0.0016579061048105,-0.0016177855432033,0.0022816197015345
0.43074853515625,-0.0007750029604882,-0.0051607894298154,0.058499535241723,-0.0015833375509828,-0.001160254701972,0.0018262190278619
0.440728759765625,-0.007401380563993,0.0032349998658522,0.0559562804996967,0.0005526148015633,0.0023588323965668,0.0003363114374224
0.45070849609375,-0.0114048257853835,-0.0035496918382123,0.0574473958402872,0.0033108508214354,0.0021473774686455,-0.0005036495858803
0.460688720703125,-0.0141454479967243,0.0029252306637819,0.0501198294311761,0.0007944228127598,-0.0003885244950652,-0.0016135862097144
0.470667724609375,-0.0010689992046914,-0.0003135320617351,0.0435334367781877,0.0020034979097545,-0.0008497843518853,0.0004389119858387
0.480647705078125,-0.0053781676406972,0.0019876758190337,0.0466822561979293,-0.0001163426786661,-0.000486402772367,-0.0010250952327623
0.490627685546875,-0.0080147266893647,0.0026376915598288,0.0475824199080467,4.34468965977e-05,0.0003642104566097,0.00073525425978
0.500607666015625,-0.0091801537395454,-0.0037964240077417,0.0441319871932268,-3.23116546496e-05,-0.0007437756285071,-0.00132632185705
0.510587646484375,0.000784300511796,-0.0009753752376418,0.0450257211625576,0.0014489385066553,0.0004463912919163,0.0002297631726833
0.520567626953125,0.0014158946799114,-0.00366552763707,0.0462263291239738,0.0011803869856521,0.0007728794589638,-0.0013135999906808
0.5305478515625,-0.0092095442308112,0.0068003185314591,0.0439835186332464,-0.0001946030533872,0.0007816683501005,-0.0019959018100053
0.5405263671875,0.0037634076541289,0.0045100704361218,0.0466863478511571,0.0022846139036118,-0.0012972196564078,-5.66117960261e-05
0.5505068359375,0.0033043022423982,0.0032438224931247,0.0534188709765672,0.0010691471397876,0.0007808450609445,-0.0024108462966978
0.56048681640625,-0.0074188796880654,0.006351460519107,0.0564180527925491,-0.0015670454595237,-0.0008684108033776,0.0012019770219922
0.570466552734375,-0.0061820679021067,0.0040432292425073,0.0498386744022369,-0.0004956558113917,0.0003989869728684,-0.0001879267365438
0.580446533203125,0.0059956602182239,0.0060799866339657,0.0468494294583797,-0.0007526441477239,6.34407624602e-05,0.0015377360396087
0.5904267578125,-0.0031784473730251,0.0025856508453376,0.0402636213272809,0.0009376641828566,-0.0011954354122281,-0.0016500677447766
0.600406494140625,-0.002737224677857,0.0058458947503007,0.0371165554732084,-0.0005512506468221,0.001862390898168,0.0014503812417387
0.610385498046875,0.0113767687346786,0.0126199919951148,0.0447550875276327,-0.0014713727869093,-0.0011003753170371,-0.0009861448779702
0.62036572265625,-0.0077454264950007,0.0050451088945847,0.0431090738862752,-0.0012441172730177,-0.0019394038245081,0.0007495045429095
0.630345703125,0.0038561639714986,0.0041742169447243,0.0472971732258796,0.003058485686779,-0.0010376572608947,0.0010941176442429
0.64032568359375,0.0098323157716542,0.0037721846156287,0.0423632239550352,0.0013839377788826,0.0009208545088768,-0.0012728322762995
0.6503056640625,-0.0022101320638321,0.0013241156100761,0.0408691860049963,-0.0008208932122215,-0.0003366898745298,0.0010840650647878
0.660285400390625,0.006132949797064,-0.0036937399514019,0.0450602079540491,-0.0020650932565331,-0.0038998778909444,-0.0024611877743154
0.670265625,0.0051289603862911,-0.0033489999006502,0.0555389318704605,-0.0010965014807879,-0.0005695950239896,0.0016291614156216
0.68024462890625,0.0013421901228837,0.0014579163238871,0.0455132124185562,-8.24249582365e-05,0.0008275713771581,0.0021584504283964
0.690224365234375,0.0023620712225325,-0.0032849034221842,0.0456634345442056,-0.0021935128606855,-0.0017564939334988,-0.0019795692060142
0.700204833984375,-0.0007838986529968,-0.0047797176903579,0.0396861137002706,-0.0005100060952827,0.0001009479165077,0.0004002276982646
0.710184814453125,-0.0009690824941731,-0.0011585771842859,0.0452215359956026,-0.0002125309547409,-0.0023337136954069,0.0022633750922977
0.72016455078125,0.0066189614820294,0.0002041351368185,0.0447697005748748,-0.000978710129857,0.0006078770384192,-0.0002552410878706
0.73014453125,0.0045207288274541,0.0112359628913458,0.0488116694420576,-0.0018498301506042,-0.0002563185989856,-0.0006760205142199
0.74012451171875,0.0068744158141314,0.0091018095400184,0.0468611198961734,-0.0004020655760541,0.0024211267009377,-0.0001954179315362
0.750104736328125,-0.0045543388361111,0.0007052073935978,0.042816812941432,-0.0025608239229768,0.0012149810791015,0.0005071239429526
0.76008349609375,-0.0018620310122147,0.0022512221260461,0.0496995581924915,0.0022010202519595,-0.0008044671267271,-0.0008741106721572
0.7700634765625,-0.0056975905871018,-0.0054697092485148,0.0471516272753477,0.0006515932036563,0.0006674621254205,0.0014026256976649
0.7800439453125,0.0025190153499133,-0.0024809026960749,0.0435597402632236,-0.0025658649392426,0.0008208090439438,0.0012998605379834
0.790023681640625,0.0043623416616581,0.0012971910705324,0.0428138903319835,-0.0010534557513892,0.0015145624056458,0.0005840028170496
0.800003662109375,0.0056757440814748,-0.0035523130535613,0.0356283627420663,-0.0032930730376392,0.0008577797561883,0.0012037826236337
0.809983642578125,1.63848792202e-05,-0.001940293013351,0.0492459692060947,-0.0032304886262863,-0.000157150439918,-0.0006913228426128
0.819963623046875,0.0036682036513462,-0.0027782873406074,0.0535825371056795,1.96535838767e-05,0.0007919203490018,4.7125864512e-05
0.829942626953125,-0.0011545037973672,0.0006621902357786,0.045800797188282,0.0006529532838612,-0.0004531070590019,-0.0013520990032702
0.839922607421875,-0.0148517513688653,-0.002427409810014,0.0550777440994977,-0.0009965384379029,0.0003446657210588,0.0004359325102996
0.84990234375,-0.0091037092361599,-0.0058758332308381,0.0416150359362363,0.0004519548965618,-0.001573609188199,-0.0004160127136856
0.8598828125,0.0022518340473994,0.0022972075590863,0.0556798016458749,-0.0009179576882161,-0.0017613405361771,0.0020983912982046
0.86986279296875,-0.003068557257764,0.0036509511224459,0.0607651420861482,-0.0011288800742477,0.0012144753709435,0.000285843911115
0.879842529296875,0.0009772658006288,-0.009855130391661,0.0468447532832622,0.0009057958377525,-0.0010640826076269,-0.0008132198126986
0.889822509765625,-0.0007506357042118,-0.0070068282884545,0.045949850270152,-0.0056474446319043,-0.0013197464868426,0.0008762895595282
0.8998017578125,0.0125436936222016,0.0111111126689705,0.0426543158560991,0.0005733679281547,0.002261103130877,0.0015049404464662
0.909781494140625,-0.0056292563249357,-0.0013531407751608,0.0460948116987943,-0.0001728498609736,0.0005247220396995,0.0017494185594841
0.919761474609375,-0.0052778125387616,0.0010477828867267,0.0450485175162553,-0.0011422963580116,0.0002120239660143,0.0001192963900393
0.92974169921875,0.0091069789054803,0.0017821707090362,0.0324777897566556,0.0004340286832302,0.0031494908034801,0.0001262206060346
0.9397216796875,0.0022331658795475,0.002782479458535,0.0525268905729055,6.43483363091e-05,-0.0005996162071824,-0.0005190595402382
0.94970166015625,-0.0097201423677615,-0.0056734699259977,0.0456447298437356,0.0002012348268181,-0.000681641511619,-0.000109199056169
0.959681640625,-0.0097203432971611,0.0003280081116594,0.039209728360176,-0.0001955454936251,0.0006145536899566,0.0003076946013607
0.96966064453125,-0.0060716297975741,-0.0018069763567298,0.0421995578259229,0.0023224730975925,0.0017602462321519,-0.0003096261352766
0.979640625,0.0022813158702105,-0.0017239651152398,0.0559597876310348,0.0007080374052748,0.0013619326055049,0.0009440026478841
0.98962060546875,-0.0013323080496862,-0.003621697628498,0.0592506458699703,0.0017788943368941,-0.00052837934345,0.0012143135536462
0.999600341796875,-0.0025467984059825,-0.0065610846817959,0.0598515343725681,0.0012737705837935,-0.0002352893352508,-0.0012378660030663
1.009580810546875,-0.0045228294529952,-0.0004395695941988,0.0466816716760396,-0.0003038860158994,-0.0009056078270077,0.0009046470513567
1.019560791015625,-0.0041709838080219,-0.0014085242242086,0.0436871660351753,-0.001028616214171,-0.0011012554168701,0.0015997778391465
1.029540771484375,-0.0031521621542982,-0.0007910042472183,0.0495259551912546,-0.003816679585725,-0.0002610273659229,-0.0027797904331237
1.039519775390625,-0.0060924899225123,0.0029554157394915,0.0468348164111375,-0.0003902226453647,0.0003770720213651,-0.0008329457486979
1.049499755859375,-0.0043603871665894,0.0025376013193745,0.0438449869453907,-0.0016999652143567,-0.0006849970668554,6.08110785833e-05
1.059479736328125,0.0022609489356167,-0.0011531612236518,0.0413034857690334,-0.0010723535669967,0.0006979024037718,-0.0010606946889311
1.06945947265625,0.006794208451081,0.0027352701827883,0.0439946245491504,-0.0008853996405377,0.0010622227564454,0.0003047080244868
1.079439453125,0.0014557152336463,0.006246447508363,0.0411515100777149,0.0006811473285779,-0.00014837551862,-0.0002353022573515
1.089419921875,-0.0026892025513574,-0.0019762319764122,0.0472843137443065,-0.0016600375529378,0.0004223398864269,0.0002933352370746
1.099399658203125,0.0014004413824528,0.0009340842460282,0.0447375518709421,0.0014045321149751,0.0004194127395749,-0.000161613948876
1.109378662109375,-0.0016567907636985,0.0030340978657361,0.0478799415498971,-0.0031654522754251,0.0011078398674726,-0.0012820058036595
1.11935888671875,-0.0070251676627434,-0.0019358451670967,0.0387543858081102,-0.0003057231078855,-0.0005219262093305,0.0007377156289294
1.129338623046875,0.0003056318830698,0.0043146757281851,0.0525216298758983,0.0003672576276585,0.0010762372985482,-0.002062864601612
1.139318603515625,-0.0056226439210586,-0.0045424474689178,0.0508721091032028,0.0019211961189284,0.0002266792580485,5.21093497809e-05
1.149298583984375,0.0074785557197406,0.0002731087198015,0.0441384169340133,-0.001328393118456,-0.002664715051651,0.0015474742976948
1.159278564453125,0.001672207528539,0.005366139276186,0.040998365342617,-0.0018592748092487,0.0021659424528479,-0.0018825636943802
1.1692587890625,-0.0059301024350337,-0.0016324143742676,0.050576925548911,-0.0024094837717711,0.0002748314291238,-0.0005001167301088
1.17923779296875,0.0007124591182917,-0.0025601693442091,0.0528226586490869,0.000731396023184,-0.0004622563719749,-2.99601670121e-05
1.189217529296875,-0.0077244933048263,-0.0048574408353772,0.0447463196992874,-0.0008997901459224,-0.0002204412594437,-0.0001889508857857
1.19919775390625,-0.0036651349114254,-0.007526851840876,0.045645898887515,-0.0004739239811897,-0.0005455622449517,0.0017275538993999
1.209177734375,-0.0026513364926911,0.003017265461944,0.0486392354846,-0.0010984352556988,-0.0006531532853841,0.0005323272198438
1.219157470703125,-0.0134495746870525,-0.0031090627980884,0.0472948351383209,8.32695513963e-05,-0.001156335696578,0.0001977232022909
1.2291328125,-0.0079744677442125,-0.0013317600604146,0.0456476524531841,2.78757652267e-05,-0.0009075971320271,0.0006259594811126
1.23911279296875,-0.0009293350056745,-0.0038492410403676,0.0434030883967876,0.001450142241083,-0.00299156550318,-0.0006283191032707
1.2490927734375,0.0019499284913763,-0.0017871939440257,0.0368184493094682,0.0040760189294815,0.0010396614670753,-0.0010237985989078
1.25907177734375,-0.0017175445076078,-0.0076509074788074,0.045645898887515,-0.0017534145154058,0.0001589972525835,-0.0019453284330666
1.2690517578125,-0.0021196042361669,-0.0067652928838506,0.0408586646109819,2.55771446973e-05,-0.0013323724269866,0.0009785559959709
1.279031494140625,-0.0022330928143113,0.0029141247478779,0.0472895744413137,-0.0019576519262045,0.0027774078771471,-4.88403456984e-05
1.28901171875,-0.0091780348476953,-0.004174801466614,0.0432499436616897,-0.0016873410204425,-0.0005070678889751,0.0010049724951386
1.298991943359375,0.0016614121398888,-0.0048513855539262,0.0387666607677936,-0.0020454742480069,-0.0016795052215456,0.0003414862731005
1.308971923828125,-0.0045552156189456,0.0014025602743029,0.0463999321252107,0.0006182194920256,0.0001394338905811,0.0013292527291923
1.31895068359375,0.0006074826401658,-0.0036813645270187,0.0492412930309772,-0.0027149347588419,0.0023894635960459,3.41835293511e-05
1.3289306640625,-0.0042661147455684,-0.0023984759764745,0.048786535000801,-4.21864679083e-05,0.002071482129395,-0.0003234790056012
1.338910888671875,-0.0004515614260919,-0.0037484201475512,0.0561187775850295,0.003134642727673,-0.0026057418435811,-0.001227272558026
1.348890625,0.0032640067646279,0.0062818567484617,0.0434007503092288,-0.0008236133144237,7.65938311815e-05,-0.0009218079503625
1.358870849609375,-0.0002718026787042,-0.0023018472015857,0.0486398200064897,0.0002833385951817,-0.0006799958646297,0.0009388346807099
1.368850830078125,-0.0011728431716561,-0.0041093441481236,0.0441524454593658,0.0022980198264122,-0.001846726052463,0.0003116602601949
1.378830810546875,-0.0075903637974523,0.000372249112185,0.0393657957047224,0.0007982638198882,-0.0007228050380945,0.0015926191117614
1.388810791015625,-0.0096197142005898,-0.0073020118427462,0.0356219330012798,0.0020864347461611,0.0041630305349826,-0.0007360489107668
1.398789794921875,-0.0108293639849871,-0.0006354483593255,0.0374134925931692,0.0006649525603279,0.0005750060081481,-0.0007422543130815
1.408769775390625,-0.0025074893089011,-0.0016459131766576,0.0327729733109474,-4.39808936789e-05,-0.0002804016694426,0.000133126770379
1.418749755859375,0.0029235592965036,0.0005795077878516,0.0430991370141506,0.0008185359183698,-0.0001635383814573,0.0017132585635408
1.428729736328125,-0.0063939753534272,0.002143204307463,0.0478875403344631,-0.0013154549524188,0.000645263120532,-0.0012758733937516
1.438709716796875,-0.0025886465200223,0.0033279205800034,0.0386117624670267,-0.0022797570563852,-0.0008544931188225,-0.0024840966798365
1.448689697265625,0.0047970250181853,0.0037007633472327,0.051779871597886,0.0009533204138278,-0.0003692647442221,0.0003423161397222
1.458669921875,5.21685786545e-05,-0.0033178923763334,0.0438531702518463,-0.0026981304399669,-0.0003685308620333,0.0015869820490479
1.468648681640625,-0.0005186901118606,-0.003639361149352,0.0447521649181842,0.0002353416057303,0.0021420307457447,0.0010636709630489
1.478628662109375,-0.0021080051299184,0.0036980508003383,0.0507353309810161,-0.0015284876571968,0.000764955766499,-0.0012931508244946
1.48860888671875,0.0061136240420863,0.0044604682738892,0.0432563734024763,5.44952927157e-05,-0.000955712981522,-0.0022279203403741
1.498588623046875,-0.0019928543176501,-0.0012964878176338,0.0437006100386381,0.0003504456253722,0.002387935295701,0.0014414582401514
1.508568603515625,-0.0030447745233774,-0.0086841138509102,0.0378606518387794,0.0009861420840024,0.0016150865703821,0.0012012410443276
1.518548828125,-0.0146326287254691,-0.0029736637822352,0.036216391763091,0.0001871363492682,-0.0008020922541618,0.0013297745026648
1.52852880859375,0.0149844926367513,-0.0008902907700743,0.0420534273535013,-0.0004368422669358,-0.0001347037032246,0.0019345784094184
1.5385078125,-0.0025575207293964,-0.0019575729417148,0.046839492586255,-0.0003923921030946,0.0018709478899836,-0.0006788960890844
1.54848779296875,-0.0056579709627665,0.0016103395397774,0.046240942171216,0.0011301370104774,-0.0020641386508941,0.0011965020094066
1.558467529296875,-0.0092860252668149,0.0010960242089349,0.0504319641202688,0.0016818480798974,0.0010195132344961,0.0012713744072243
1.56844775390625,0.0003536540095694,0.0013580818117596,0.0477419943839311,-0.0054341182112693,-0.0029840162023901,0.0019217183580622
1.578427734375,0.00043809915632,-0.0026893852144479,0.0567237577408552,-0.0005510126939043,-0.0013780482113361,-0.0011278555030003
1.58840771484375,0.0053488684809766,-0.000634416312864,0.0604629442691802,-0.0003811030182987,0.0007322402670979,-0.000446086312877
1.5983876953125,-0.0033978988099843,-0.0096453509653452,0.0631587592244148,-0.000401749741286,0.0003189500421285,0.0003007801715284
1.608366943359375,-0.0050236551146022,-0.0014692597018089,0.0389133757621049,0.0011053330963477,-0.0003226054832339,0.0014046604046598
1.618346923828125,0.0041525713684968,-0.0054379258707631,0.0504325486421585,-0.0003764686989597,0.0015737162902951,0.0012277525383979
1.62832666015625,0.0001308050391264,0.0044455538325477,0.0408563265234231,0.0004797375295311,-0.001276665367186,-0.0011062418343499
1.638306884765625,-0.0023258125990629,0.0033119375595822,0.0445984356611967,0.0011744239600375,0.0014169048517942,0.0007868392858654
1.648286865234375,0.0005357691108249,-0.0039707941939588,0.039207974794507,-8.55174730531e-05,0.0015892116352915,-0.0004430084663908
1.6582666015625,-0.0061240175719372,-0.0040587464720476,0.0421983887821435,0.0010928970295935,0.0028370525687932,0.0023313956335186
1.668246826171875,-0.0026138357602059,0.0023526366739068,0.0525187072664499,-0.0014379050116986,0.0011273026466369,-0.0016990322619676
1.678225830078125,-0.0097828688730485,-0.0015533212560694,0.0546142182409763,-0.0008156459080055,0.0009316131472587,-0.0002612722746562
1.688205810546875,-0.0027701405667699,-0.0040156745153013,0.0335153161108493,0.0001817079028114,-0.001704916357994,-0.0017957857344299
1.698185791015625,0.0071207917906343,-0.00370418828018,0.0365098217517137,-0.0022459346801042,0.0017564222216606,0.0025677122175693
1.708165771484375,0.0001000811072997,-0.0061282462224829,0.0465343721598386,-0.0006392495706677,-0.0005554677918553,0.0009730113670229
1.718145751953125,0.0038216954463161,-0.0052886170605663,0.039952071160078,-1.0440358892e-05,-0.0012750625610351,0.0013426409568637
1.728125732421875,-0.0032813780245371,-0.0012494246723596,0.0493780711531639,-0.0006005968898534,0.0002357484772801,0.000637435936369
1.738105712890625,0.0029205088228918,-0.0023085966027807,0.0342664267390966,-0.0008984946180135,-0.000291671603918,-0.0013967750128358
1.748084716796875,-0.0032051892494782,-0.0002417272008489,0.0416004228889942,-0.0039637926965951,-0.0014482820406556,5.6456701713e-06
1.75806494140625,-5.67899548448e-05,0.0002185381215065,0.0484884288370609,-0.0021059941500425,-0.0008976943790912,-0.0010615307837724
1.768044921875,-0.0069422751522622,-0.0089432671105954,0.0463940869063138,-0.0005523058352991,0.0005862191319465,0.0011060159886255
1.778024658203125,-0.0032964659958146,-0.0054708782922942,0.0377110142350196,0.0016788407228887,0.0015366896986961,-0.0010730805806815
1.788004638671875,-0.005744790729694,0.0049749936672858,0.0386065017700195,-0.0007971000741235,-0.0013674879446625,0.0008300143526867
1.79798486328125,0.0014063231339678,-0.0053579011708032,0.0475859270393848,0.0011136946268379,-0.0016245618462562,0.0020426835399121
1.80796484375,0.0008709193493239,0.0061943245954811,0.0550689762711524,-0.0003126944648101,0.0006274068728089,0.0021441502030938
1.817943603515625,0.0010121909835375,0.0016695954463444,0.0537204842716455,0.0007367637008428,-4.65512275695e-05,0.0011623397003859
1.827923828125,-0.0030867322352714,-0.0002721314722672,0.048784781435132,0.0008092017378658,-8.49002972245e-05,0.0008499509422108
1.837904052734375,0.0048407362957485,-0.0004018313996959,0.0386059172481298,0.000308052287437,-0.0002126218751072,6.77454227115e-05
1.8478837890625,0.0022233203389681,0.0024020744393579,0.0528232431709766,-0.000461601302959,0.0027586678043007,1.26179911603e-05
1.85786376953125,0.0001807633943855,0.0001725252890028,0.0501274282157421,0.0033787377178668,0.0006567249074578,0.0001627125893719
1.86784375,0.0055864400965161,0.0017494374832138,0.050722471499443,0.0013938837219029,0.0027164127677679,0.0008386228582821
1.87782373046875,-0.0067466429823078,-0.0068772562251891,0.0453349332422018,-0.0041227377951145,-0.0009304648265242,0.0014972112840041
1.887802734375,-0.0035046471200883,-0.0080281706928275,0.0486269605249166,-0.0011330734705552,0.0017279023304581,-0.0001608727325219
1.897782470703125,-0.005080755596701,0.0012579459055326,0.0531143350720405,-0.0019694459624588,0.0002464726567268,0.0003359570400789
1.9077626953125,0.004119363218639,0.0040111992695834,0.0450333199471235,-0.0007542456150986,-0.0007554087787866,0.0031988550908863
1.917742919921875,-0.0026036066271364,0.0108101660941727,0.0468330628454685,-0.0026090806350111,0.0010865442454814,-0.002302206121385
1.927722900390625,-0.0026124292544089,0.0059701147850137,0.0448848513871431,0.0004905726527795,0.001478562131524,0.0006853278609924
1.93770263671875,8.25454506091e-05,0.0105859654168598,0.0411427422493696,-0.000149825005792,-0.0001329779624938,0.0016339950961992
1.947682861328125,-0.0049134362057782,-0.0014825484416447,0.0456301167964935,0.001045667915605,-0.0001407014206051,-0.0015974845737218
1.957661865234375,-0.0039487376257777,-0.007246463996917,0.0441314026713371,-0.0006300332024693,0.0016163308173418,0.0017253595869988
1.9676416015625,0.002357395047415,0.000825892897509,0.0504167665511369,0.0010701288701966,0.0002493308857083,0.0027416218072175
1.97762158203125,-0.0009522409572266,0.0004299615156371,0.049517771884799,0.0014752023853361,-0.0008680615574121,-0.003376182867214
1.987601806640625,-0.0047876726679503,0.0025796960285864,0.0602922638773918,0.0012869169004261,0.0003117192536592,0.0027554791886359
1.997581787109375,-0.0099336024553515,0.0039380883675999,0.0513110850423574,0.0048394538462162,-4.44240868091e-05,0.00202520750463
2.007561767578125,-0.0092371446237899,0.001887804774288,0.0511632010042667,-0.0005057765520177,-0.0016551045700907,0.0004906940739601
2.017541748046875,-4.90998387336e-05,-0.004251063306909,0.0418885921806097,-0.0014930628240108,-0.0013475157320499,0.0021464910823851
2.027520751953125,-0.009645086103864,-0.0035737394340801,0.0522170939713716,-0.0022842879407107,-0.0012226132676005,0.0014708470553159
2.037500732421875,-0.0019731997691094,-0.0059787730155047,0.0538642766565084,-0.0015670243883505,8.74064862728e-05,0.0007724043680354
2.047480712890625,-0.0005641001561656,-0.0085606518680229,0.0519172342419624,-0.0013401230098679,-0.0009134095162153,-0.0002625000488478
2.057460693359375,-0.0037470958401449,0.0095921686065383,0.0423404276013374,8.94471304491e-05,-0.000876503996551,0.0020413559395819
2.06744091796875,-0.0024462058420293,0.0026407237671315,0.0484773229211568,-0.0007031096611171,0.0010012909770011,-0.001425280701369
2.0774208984375,-0.0021173574801534,-0.0046991450011264,0.0423427656888961,0.0007287677144631,0.0003692489117383,8.83745015016e-05
2.08740087890625,0.0026289785304106,0.0021408388204406,0.0499725299149751,0.001142356544733,-0.0010520797222852,-0.0006890022195875
2.0973798828125,0.0009808642635121,-0.00169821875263,0.0526654222607612,-0.0001299995929002,0.0006702225655317,0.0016785922925919
2.10735986328125,-0.0045432877191342,0.0085082275610417,0.0454828172802925,-0.0005877970252186,0.0021586632356047,0.0013518224004656
2.117339599609375,-0.0051666620481759,0.0021802301159128,0.0483253472298383,0.0004045238019898,0.000231685116887,0.0011665786150842
2.127319580078125,-0.0048912609065882,0.0029478443543892,0.0528138908207416,0.000621571438387,-0.0004415623843669,-0.0005684708012267
2.1372998046875,-0.0021653248077258,0.0028975480724126,0.0441360788464546,-0.0007908158004283,0.0009239520877599,0.0008137859404087
2.147280029296875,-0.0025353271638974,0.0006063227295409,0.0360550637215375,0.0016776681877672,-0.0013091079890727,0.0004497318295761
2.1572587890625,0.0048286987980827,-0.0048405536326579,0.0382990432560443,0.0002653041156008,8.68709757924e-05,-0.0008484441787004
2.16723876953125,-0.000781542299129,-0.0049877983499318,0.0411404041618108,-0.0002934270305559,-0.0012284647673368,0.0015699723735451
2.177218994140625,-0.0086942333861254,0.0023549290956929,0.0543120204240083,-0.0012031231308355,-0.0020891409367322,0.0004708991618826
2.18719873046875,0.003142736738827,-0.0018509433626197,0.0496773463606834,-0.0017895512282848,-0.0002787234261631,0.0008168438216671
2.1971787109375,0.000950304728467,0.0006264978678897,0.04608429030478,-0.0009191978024318,0.0019546719267964,-0.0011910772882401
2.20715869140625,-0.0035354441171512,0.002864933577599,0.0469827004492282,-0.0009823146974667,-0.0018565785139799,0.0001037516631186
2.217138671875,-0.0016339396110735,-0.0042993502948898,0.0436924267321825,0.0003713225014507,0.0004268269985914,0.0008961160783655
2.2271181640625,-0.0116109610830433,-0.003808160111308,0.0498281530082225,-0.0008611883968114,-0.0017290012910962,0.0025715106166899
2.23709814453125,8.09562817215e-05,-0.0002246756013482,0.0430903691858053,0.0009216193575412,0.0032357294112443,-0.0007475606398656
2.247077880859375,-0.0033015805623494,-0.0020258706712629,0.0472802220910787,0.0022918158210814,-0.0014562280848622,-0.0022373329848051
2.25705810546875,-0.0015680713006295,-0.0060102458660025,0.0362064548909664,0.0023326431401073,0.0007750373333692,0.0015625017695128
2.2670380859375,-0.0016469634894281,-0.005546720007481,0.0451864646822214,0.0025997583288699,0.0017947619780898,0.0006959091406315
2.277017822265625,0.0009613010465167,-0.0050590278220828,0.0448848513871431,0.0012155266012996,0.000772500410676,-0.0023356357123702
2.286998046875,0.0033079737705178,-0.0036022714088205,0.055358899128437,-0.0006124671781435,0.0027861166745424,-0.0018275046022608
2.296977294921875,0.0052090216188691,-0.0112954105941578,0.0477267968147993,0.0003426813054829,0.000746545381844,0.0003458715800661
2.30695703125,-6.66172291152e-05,0.0047734249468892,0.050868017449975,0.0014223268954083,0.0009683864191174,-0.0011942344717681
2.31693701171875,-0.0087467307583428,0.000706339904759,0.0538607695251703,-0.0006086826324462,-0.001507356762886,-0.000778351444751
2.326917236328125,-0.0087495985688641,-0.0048014911307487,0.0490752888143062,-0.0001000188058242,-0.0007321098819375,-0.0022588027641177
2.33689697265625,0.0057788756623864,-0.0025003380489069,0.0439870257645845,0.0024105412885546,-5.66085800528e-05,0.0018422740977257
2.346876953125,0.0032931597938761,-0.00376203768095,0.0415904860168695,-0.0013160199159756,0.0005886750295758,-0.0009836060926318
2.35685693359375,0.0066691390329971,-0.0024621979956049,0.0522153404057025,0.0005204354529269,-0.0002538403496146,-0.0014080693945288
2.3668359375,-0.010344813604746,0.0002973846445325,0.0385953958541154,-0.0015997070586308,0.0016742879524827,-0.0011095290537923
2.376816162109375,-0.0089884670923464,0.0021828330649528,0.0460731843888759,0.0004102197708562,0.0021235691383481,0.0003879849391523
2.386796142578125,-6.44618046469e-05,0.005864361988753,0.0330506212085485,0.0002232658443972,0.0013973256573081,0.0010383288608863
2.39677587890625,0.0066551835728809,0.0015614406304433,0.0384369904220104,0.0008172689122147,-0.0004989802837371,0.0011074792128056
2.406756103515625,0.0007838621203787,-0.0023428733317181,0.0534001662760973,0.0011498976964503,0.0015114396810531,9.17495490284e-05
2.416736083984375,-0.0029417708066292,-0.000109022465581,0.0460685082137584,0.0008606549235992,-0.0019027907401323,-0.0011867297580465
2.426716064453125,0.0063883127976208,-0.0051637942376546,0.0393354005664587,0.0007514652679674,-0.0009107626974582,-0.0002287907263962
2.436695068359375,-0.0140135469790548,-0.0049135092710144,0.035891982114315,2.3745407816e-05,-0.0002826508134603,0.0001232017384609
2.446675048828125,-0.0003564122222363,-0.001663202238176,0.0450239675968885,0.0011715679429471,-0.0007138168439269,-0.0036893796641379
2.4566552734375,-0.0088874544032849,-0.0022125980155542,0.0445762238293886,-0.0014787570107728,0.0011040074750781,-0.0001733717508614
2.466635009765625,-0.0119041170770302,-0.0064046702773775,0.0495154337972402,-0.0035482994280755,0.0003822911530733,-0.0004668520996347
2.476614990234375,-0.0012970175405964,-0.0023721907577477,0.0535550645768642,0.0021298131905496,-0.0030091051012277,0.0015554211568087
2.48659521484375,-0.0077609893903136,-0.0055965778980404,0.0572983427584171,0.0005364440148696,0.0007305052131414,0.001497630495578
2.496574951171875,-0.0100338114268146,-0.0015166973064187,0.0543044216394424,0.001784059102647,9.32244583964e-05,0.0008024226408451
2.506553955078125,-0.0015018924629315,0.0023786935637705,0.0435287606030702,0.0004444890655577,-0.0001653684303164,-0.0001054489475791
2.5165341796875,-0.006485051170364,0.0015479600943624,0.0547533344507217,0.0015550426905974,-0.0029306514188647,-0.0019799673464149
2.526513916015625,-0.0030332667486742,0.0057892143933102,0.0463718750745058,0.0014053728664293,0.0008576950058341,-0.0007679627742618
2.536494140625,0.0004067907026037,0.0044168300615623,0.0364940396606922,0.0018032749649137,-0.001002250239253,0.0021250224672257
2.54647412109375,-0.0043962073986418,0.0031216756844893,0.0327507614791393,0.0016123263631016,0.0019386783242225,-0.0003463910543359
2.556453857421875,-0.0153547141886316,0.0100482783435843,0.0424777902454137,-0.0002563729649409,-0.0008555063977837,-0.000793061510194
2.56643408203125,0.002499835725408,0.0017647263838909,0.0397872359871864,-0.0014095217920839,0.0003301333636045,-0.0002316671889275
2.5764130859375,-0.0018523133357986,-0.0028089199408888,0.0498170470923185,0.0007530082948505,-0.002832805737853,0.0015322822146117
2.586392822265625,-0.0120788525894284,0.0017577577869873,0.0507177953243255,0.000641688122414,-0.0006066700443625,-0.0014688340015709
2.596373046875,-0.0025177549745887,0.0007464527194388,0.0426397028088569,-0.0021709667053073,-0.0003699045628309,0.0002600556472316
2.60635302734375,-0.0042955052368342,0.008263331155572,0.0403968923181295,0.0001142918481491,-0.0009699147194623,0.0007018740288913
2.6163330078125,-0.0041475663998164,0.0002035597480833,0.049226679983735,-0.0016483404906466,9.1016292572e-05,-0.0002825037227012
2.62631298828125,-0.0004995470199733,-0.0009261475347448,0.0504261189013719,-0.0019713819492608,-0.0003713080659508,-0.0007104736869223
2.636292236328125,0.0058557950898073,-0.0023774788542184,0.0421983887821435,-0.0013031825656071,-0.0009407317265868,0.0013156810309737
2.64627197265625,0.0068308324007317,0.0042720512960106,0.043993455505371,-0.001047785510309,0.0022646486759185,0.0003449587384238
2.656251953125,0.0032802820459939,0.0003464844832662,0.0398018490344285,-0.0020646513439714,0.0006813090294599,0.0014556853566318
2.666232177734375,-0.0006674326664768,-0.0013445464767515,0.0510270074039697,-0.0016806235071271,-0.0006113890558481,-0.0003488726215437
2.6762119140625,-0.0094428597963415,0.0045425479336176,0.0510293454915285,-0.0033463132567703,0.0018164534121751,0.0005271344562061
2.686192138671875,-0.0002871829109266,-0.0047701004786416,0.0486328057438135,-0.0008155112154781,0.000799392350018,0.0008874601917341
2.696172119140625,0.0029338066958822,-0.0039329555347561,0.0510211621850728,0.0013451492413878,0.0010256301611661,0.0001387118536513
2.706151123046875,-0.0102098438471555,-0.0008916790095623,0.0415939931482076,0.0013507418334484,-0.0012886561453342,0.0003514984273351
2.716131103515625,-0.0069091766002587,-0.0014111911053303,0.0448854359090328,0.0036721616052091,0.0041884891688823,0.0018805135041475
2.726111083984375,0.0080006433650851,-0.0028695458206348,0.0469768552303314,-0.0008568102493882,0.0009077405557036,-0.0007842454942874
2.736091064453125,-0.0012608137160539,-0.0084141652025748,0.047572483035922,0.0026603376027196,0.0006147781386971,0.0005892884219065
2.746071044921875,-0.0044021256827749,0.0026873119883704,0.0397913276404142,0.0024089352227747,-0.0001386301591992,-0.0007372320978902
2.756051025390625,-0.0106236305461265,0.0016151253127492,0.0508627567529678,-0.0003221475635655,0.003018538467586,0.0010560236405581
2.76603125,-0.0006842742034234,-0.0103379728720057,0.0360468804150819,-0.0014760952908545,-0.0010334607213735,-0.0012888896744698
2.776010009765625,-0.0006514313797466,-0.003602627601847,0.0426315195024013,0.0025927093811333,0.000149798579514,8.59561478137e-05
2.785990234375,-0.0017586437029764,0.0039559710841625,0.0450268902063369,-0.0010715337703004,-0.0009008180350065,0.0006380294216796
2.79597021484375,-0.0006032813890837,-0.010824815674033,0.0523579637467861,1.06186489574e-05,0.0019693979993462,0.000786421704106
2.805949951171875,0.0016583068673498,0.0021642470954917,0.0559451745837926,0.0013350087683647,0.0017020162194967,0.0037497212179005
2.815929931640625,-0.0023795520802959,0.0005136029447894,0.0432259782642126,-0.0019507445394992,-0.0029867878183722,-0.0006832657381892
2.82591015625,-0.0024729111858643,0.0010411430833861,0.0408370373010635,-2.453452907502651e-07,0.0002737203612923,0.0010525826364755
2.835889892578125,-0.0042697314747609,0.0054044163268059,0.0460737689107656,0.0006762205157428,0.0021355440840125,0.0024973824620246
2.845868896484375,-0.0069736201385967,0.0014924305148422,0.0498100328296422,0.0001196197699755,0.0002934355288743,-0.0014089420437812
2.855849365234375,-0.0066776511330157,0.0029551417448557,0.0538490790873765,-2.82434048131e-05,-0.001765577122569,-0.0022387641947716
2.8658291015625,-0.0086294610542245,0.0001169957094825,0.0459212086975574,-0.0001187908928841,-0.0001828605309128,-0.0009636427857913
2.87580908203125,-0.007477642404288,-0.0013813074237201,0.0571416908919811,0.0012843261938542,0.0009860154241323,-0.0005317647010087
2.8857890625,-0.0064839186592027,0.0014115472983568,0.0308048881083726,-0.0007535245385952,-0.0009588906541466,0.0005396250635385
2.895768798828125,-0.0016082389142364,4.30354241281e-05,0.0415805491447448,0.001080134185031,-0.0006639771163463,0.0023099267855286
2.905748046875,-0.0020682941740378,-0.0042956696336157,0.0370914210319519,0.0004098166245967,6.20009377598e-05,0.0011250862153246
2.91572802734375,-0.0067566894522868,0.0056050808649044,0.0460696772575378,0.0004635133082047,0.000449763610959,0.0019786052871495
2.925707763671875,-0.0060255804324522,0.0008387889117002,0.0445727166980505,0.001909609651193,-0.0003664949908852,-0.0002243615599581
2.935688232421875,-0.0012439539127983,-0.001512276859628,0.0462181458175182,0.0004979883669875,0.00235809199512,-0.0007189275929704
2.945668212890625,-0.0111188484508544,0.0043915494898334,0.0408271004289388,1.2494099792e-05,9.65353101491e-05,-5.100675844e-05
2.95564794921875,0.0023838263966143,-0.0001300195878371,0.0400800814539194,-0.0003352711792103,0.000612043775618,-2.4123282855e-06
2.9656279296875,0.0033879436715506,0.0039828773573972,0.0364922860950231,-0.0009754950879141,-0.0027470011264085,0.0004114428884349
2.975607177734375,-0.0028972192788496,0.0014234295323956,0.0435252534717321,-0.0009549472015351,-3.6377459764e-06,-0.0003317224618513
2.9855869140625,-0.0027008747228421,0.0011907167550642,0.0430751716166734,-0.0019784001633524,0.0010083634406328,0.0010722960578277
2.99556689453125,-0.0051571270348504,0.0015736059922724,0.0342453839510679,-0.0001945900148712,0.001327414996922,0.0002576073165982
3.005546875,-0.0072519438896328,0.0037677915683016,0.0483107341825962,0.0013830666430294,-0.0006422596052289,-0.000666243257001
3.01552734375,-0.0031591216180473,-0.0013352763249073,0.0405289942651987,0.0026119914837181,0.0003062030300498,0.0014273915439844
3.025507080078125,0.0031142230303958,-0.0026072142231743,0.0378343483537435,0.0007669535116292,0.0017208736389875,0.0014524252619594
3.035487060546875,-0.0055692332333885,0.0030667488931678,0.0385796137630939,0.0008196328999474,0.0006015272811055,-0.0005948451580479
3.045466064453125,0.0009326046749949,0.0061804422006011,0.0499538252145051,3.9859325625e-05,-0.0029045240953564,-0.0014169630594551
3.055446044921875,-0.0050402591895312,0.0041151345680933,0.0505541291952133,0.0025641061365604,0.0002505602315068,0.0021398288663476
3.065426025390625,-0.0152457191225141,0.0059166584315709,0.0430716644853353,-0.0014881597599014,0.0020780218765139,0.0005294154398143
3.075406005859375,-0.0121417434914968,-0.0097540811699815,0.0430716644853353,-0.0012584463693201,0.001566357910633,0.0015145164215937
3.085385986328125,-0.0006584456424228,0.0021456154602579,0.0432230556547641,-0.0001769367372617,-0.0018491456285119,-0.0006642156513407
3.0953662109375,0.0022671594806946,-0.0033323958257213,0.0469651647925376,0.000320735911373,0.0001514703035354,-0.0002725690137594
3.10534619140625,0.0058178011669777,-0.0032969683193136,0.0320002353727817,0.001433138269931,-7.33006745576e-05,-0.0004334239347372
3.115324951171875,0.0069763600849546,0.0124124501916579,0.042475452157855,-0.0002283374778926,-0.0003300765529274,0.0003810721973422
3.12530517578125,-0.0001036613038741,-0.0004710607110057,0.0394850381702184,-0.0018584583885967,-2.91392207145e-05,0.0014679081505164
3.13528515625,-0.0002910919010639,-0.0026906638560816,0.052951253464818,-0.0007189968600869,0.000454781576991,0.0017667192732915
3.145264892578125,-0.0006586648381315,-0.0004356240714434,0.040235564276576,-0.0012215353781357,-0.0026531275361776,0.0010993310716003
3.155244873046875,-0.0077749265841208,0.0055202612588182,0.0429290411442518,0.0023894007317721,0.0007259733974933,-0.0024895963724702
3.165225341796875,0.001166577827651,0.0028432332024443,0.0475672223389148,0.0004146667197346,0.0002266308292746,-0.0015990354586392
3.1752041015625,-0.0110381661637686,0.0025559041610453,0.0427764809310436,0.0016884437063708,0.0015577701851725,-0.0003533817944116
3.18518408203125,0.000799899939727,-0.0007354838008526,0.0357440980762243,-0.0003970776451751,-0.0020731836557388,0.0037385651376098
3.195164306640625,0.0064803932615555,-0.007301746981265,0.041283612024784,0.0013982515083625,-0.0010977182537317,7.5637253758e-05
3.20514404296875,0.0036992381104268,-0.0054314961299765,0.0442734414905309,-0.0002355978940613,4.47779893875e-05,0.0004261092399246
3.2151240234375,0.0012685951637104,0.0040539424327667,0.0385860435038805,0.0021299296058714,0.0003431029617786,-0.0001862692151917
3.22510400390625,-0.0079188650994561,-0.0029731157929636,0.0361889192342758,0.0009461547015234,0.00158067420125,-0.0011545945890247
3.235083984375,-0.0031306261759251,-0.0005591408532578,0.0441191277116537,0.0014743136707693,0.0005774432793259,0.0032908772118389
3.245063232421875,0.003767261845339,-0.0024093900961335,0.04725917930305,-0.0025915345177054,0.0039178458973765,-0.0006234369357116
3.255043212890625,0.0023631306684575,0.0044263924743514,0.0435147320777177,0.0004860744229517,0.0003238404169678,0.0016283517470583
3.26502294921875,-0.0131863023746758,-0.0048224243209231,0.0414192211031913,-0.0009624188533052,0.0008673910051584,-0.0007602374535053
3.275003173828125,0.0010727437980473,-0.0027597470369189,0.0402221202731132,0.0002372207818552,0.0004322314634919,-0.0016479641199111
3.2849833984375,0.0020041428966447,0.0011079795082099,0.0391758260905742,-0.0009494837722741,-0.0019339872524142,0.0009163936483673
3.29496337890625,-0.0026558300047181,0.0043012591241858,0.0433645099520683,-0.0012225522659718,-0.0007873550057411,0.001048932201229
3.304943115234375,-0.0033296193467453,0.0009483137007802,0.0495002362281084,0.0025319722481071,0.0009839134290814,0.0002188249200116
3.31492236328125,-0.0057832047776319,-7.14486678596e-05,0.0468050057947635,0.0003160850610584,0.0001174081116914,0.0001259797572856
3.324902099609375,-0.0020582659703679,0.0027881602806504,0.0508446365743875,-0.0007774088298901,-0.0011981930583715,0.0004080085200257
3.334882080078125,-0.0013985782189294,0.0078211586123332,0.0469563969641923,-3.94084490835e-05,0.0004459302872419,0.0024848422035574
3.344862060546875,0.0013862119277007,-0.0025958708452526,0.0569850390255451,-0.000271636119578,-0.0028779609128832,-0.0026153777725994
3.35484228515625,-0.0091691391551867,0.001371918540867,0.04725917930305,0.0009663787204772,0.0003969045355916,0.0011051215697079
3.364822265625,-0.0023975078620947,-0.0013476791487541,0.0495049124032258,-0.0002368374262005,-0.0003727488219738,-0.0008147511980496
3.37480224609375,-0.0046502734912559,0.0056577609002124,0.0397784681588411,0.0012611001729965,0.0005786512047052,0.0006959920865483
3.384781494140625,-0.0010573818321339,0.0057915250814054,0.0424719450265169,-0.0033722675871104,-0.0015366980805993,0.0022291739005595
3.39476123046875,0.001243862581253,-0.0006865483589004,0.0439700746297836,0.0003685501869767,-0.001069719903171,-0.0018770433962345
3.4047412109375,-0.0029251667317003,0.0109924638585187,0.0463648608118295,-0.0014152351068332,0.0013132765889167,-0.0003678300126921
3.41472119140625,-0.0084993136022239,-0.0036891733741387,0.0420247857809066,-0.0014385438989847,0.0014246860519051,0.0018872594228014
3.424700927734375,0.0056417870129458,6.20780513156e-05,0.0457686484843492,-0.0023248440120369,-0.0027636671438813,0.0008217286667786
3.43468115234375,0.0006135470547713,0.0019956307966262,0.0487643231689929,-0.0017754123546183,-0.0008520726114511,0.0008068581228144
3.444661376953125,-0.0006389920232817,-0.0089418971374165,0.0450257211625576,-6.0081365518e-06,-0.0002344856038689,-0.001354297157377
3.45464013671875,-0.0088250018926337,-0.00068501398894,0.0412841965466737,0.0010936685139313,-0.0007090726867318,0.0003541459736879
3.464620361328125,-0.0039740547301247,0.000339835546771,0.0471200630933046,0.0004715541144832,-0.0005290433764457,0.0003325743891764
3.474600341796875,-0.0027578290744684,-0.0011155143606942,0.0453255808919668,-0.0021432852372527,-0.0010835481807589,0.0008397212950512
3.484580078125,0.0045735184606164,0.0016679880111478,0.050713119149208,0.0001789912348613,1.63372606039e-05,1.68045662576e-05
3.49456005859375,0.0115441611908376,-0.0055706397391855,0.0459258848726749,0.0011248333612456,0.0018750056624412,-0.0004102082457393
3.504540283203125,-0.0043693741906434,-0.0085390519575681,0.049666824966669,0.0025251233018934,-0.0006685787811875,0.0006159076583571
3.51451904296875,0.0003322093627415,-0.0053874925914686,0.0427846642374992,-0.0002867183065973,-0.000886776484549,0.0012142005143687
3.5244990234375,-0.0027933205129578,0.0117470998844131,0.0433814610868692,0.002396150259301,-0.0011112811043858,0.0011745194206014
3.534479248046875,0.0001737856643274,-0.0024114267895929,0.0480225648909807,-0.002578254090622,-0.0001588938757777,0.0007268032059073
3.544459228515625,-0.0119587698737159,0.0012123714644461,0.0430886156201362,-0.001409126445651,0.000610226765275,-0.0006479205330833
3.554439208984375,-0.0073020118427462,0.0175798794248141,0.0544575663745403,-0.0006066035130061,0.0014009056612849,-0.000329823436914
3.564419189453125,0.0049996166518889,-0.0053145095536485,0.0427829106718301,-0.0004694507224485,-0.0002798149362206,0.0004052090225741
3.57439892578125,0.0012691431529819,0.0077821417761966,0.0378460387915372,-0.002125610364601,0.0015295213088393,-0.0020639481954276
3.584378173828125,0.0043113055941648,0.0072957008329685,0.0475707294702529,-0.0017160160932689,0.0020898496732115,0.0015145413344725
3.594358154296875,-0.0004450403537601,-0.0147329107621684,0.0408346992135047,0.0022105250973254,-4.73260879516e-05,-0.0017484524287283
3.604338134765625,-0.0072980845862999,0.011395098975813,0.0507125346273183,0.0004408545210026,-0.0006912788376212,0.0021160608157515
3.614318115234375,-0.0052870918237604,-0.0003746693981345,0.0402384868860244,9.8079326562e-06,-0.0015944819897413,-0.0014049053424969
3.62429833984375,-0.0078537091750651,0.0006966313614975,0.0378466233134269,-0.0004282820445951,-0.0007981974631547,-0.0001644049916649
3.6342783203125,-0.00155784216756,0.0075245776853989,0.0581996755123138,-0.0020717186853289,-7.09043815732e-05,-0.004264174029231
3.644258056640625,-0.0015898812736384,-0.0129440363177098,0.041292964375019,0.001590660191141,-0.0025268718600273,0.0002717217430472
3.6542373046875,0.0016102847408503,-0.0018627068656496,0.0338122532308101,0.0024619833566248,0.0031475676223635,-0.000209401914617
3.664217041015625,0.0038207090656273,0.009078967520548,0.0505675731986761,0.0005503664724528,-0.0003387760370969,0.0024409759789705
3.674197021484375,0.0061899772139266,-0.0087608780147042,0.0381494056522846,0.0033455293159931,-0.0013875244185328,-0.0026175735983997
3.68417724609375,0.0041053529595956,0.011432024319563,0.0525146156132221,0.0003215100150555,0.0009797597303986,-0.0008620177977718
3.694157470703125,0.0022506102046929,0.004622408236796,0.0460784450858831,0.0013904178049415,-0.0001228218898177,-0.0016437105368822
3.70413720703125,-0.0037010830076411,-0.0024376206767745,0.0444330159664154,-0.0003907043719664,-0.0008293585851788,-3.1965351809e-05
3.7141162109375,-0.0052926265154033,0.0072195577236823,0.0517640895068645,-0.002417548559606,0.0003236792981624,-0.000775218126364
3.724096435546875,0.0009591456220485,0.001563742185384,0.0436859969913959,0.0012674673926085,-0.0010398589074611,-0.002352874726057
3.734076171875,0.0015327077263034,-0.0043417829308193,0.0427916785001754,-0.0019952552393078,-0.0005119834095239,-0.0019866474904119
3.74405615234375,-0.0017930574292317,0.0081829685288947,0.0525175382226705,-0.0008793909219093,-0.0008611241355538,0.0011095436057075
3.7540361328125,0.0004097863772884,0.0016864278501365,0.0519207413733005,0.0015220621135085,-0.0010715862736105,0.0011389969149604
3.76401611328125,-0.0062013753907755,-0.0071475336670875,0.0438426488578319,0.0003236396587453,-0.0018795887008309,0.0014985236339271
3.773996337890625,-0.0104711981970816,-0.0002753828752785,0.0383048884749412,-0.0002388681750744,0.00266226939857,0.0004876201273873
3.783975341796875,0.0012805047972127,-0.0004052106668706,0.0493763175874948,-0.0002316776080988,-0.001278942450881,0.0013872359413653
3.793955078125,0.0050381768302991,0.0039652595023158,0.0336643691927194,-0.0008399613434448,-0.0008879574015736,-0.0008874962804839
3.803935302734375,-0.0008750658014789,0.0074134728605858,0.0496767618387937,0.000964596576523,0.0003544064238667,0.0001908176054712
3.813915283203125,0.0058661338207311,0.0014741002737078,0.0514689059525728,0.0033320793882012,0.001853747293353,3.91199864679e-05
3.82389501953125,0.0027602036946453,-0.0022234025373589,0.0438327119857072,0.0005488097667694,-0.0007899729534983,0.0003501772007439
3.833875,-0.0007832227995619,0.0016863182522822,0.0520639492362737,0.0014402423985302,-5.5581331253e-06,-0.0008491630433127
3.843855224609375,0.0017003924434073,-0.0018251148016192,0.03605038754642,-0.0013981547672301,0.0029494855552911,-0.0002725886879488
3.853834228515625,0.0004085077356547,-0.006856587896496,0.0382955361247062,-0.0009430704521946,-0.0005506491288542,-0.0002991859801113
3.863814208984375,-0.0118608076582662,0.0154610241073183,0.0538578469157218,-0.0004232213832437,0.000624337233603,0.0002275872830068
3.873794189453125,0.0078004080852493,0.0028764048196841,0.0438332965075969,0.0008214107365347,-0.0019414257258176,0.001591705949977
3.883774169921875,-0.0020069376419298,-0.0044455172999296,0.0285702609241008,0.0012355321086943,0.0008487682789564,0.0019222041592001
3.893754150390625,-0.0030532318244688,0.0101848372700624,0.0435293451249599,-0.0001085447729565,0.0007908828556537,-0.0004232303472235
3.903734130859375,0.0013219510524533,0.0020516170338727,0.0462245755583047,-0.0003429029602557,-0.0004320405423641,0.0001608008751645
3.913713134765625,0.0013855908731929,0.0067695124012418,0.0478694201558828,0.0021479907445609,0.002662643790245,0.0022701260168105
3.923693115234375,-0.0027775749545544,0.0006980835330672,0.0399368735909461,-0.0009276940254494,0.0011150809004902,-0.0002566813491284
3.93367333984375,0.0095278711986728,-0.0007120298600289,0.0516050995528697,0.0008312878198921,0.0011349255219101,0.0007036565802991
3.943653076171875,0.0024244506679475,0.003613194661634,0.0442716879248619,0.0020731198601424,0.0010238718241453,0.0020243180915713
3.953633056640625,-0.0026504779761657,0.0008341127365827,0.0367892232149839,0.0025240087416023,0.0002296082675457,-0.0007899668416939
3.96361328125,0.0022634148873388,-0.0004504745807033,0.0456166727930307,-0.0010688618058338,-0.000476662069559,0.0002457364462316
3.97359326171875,-0.0027169856074266,-0.0012716639036312,0.0436713839441537,-0.0005077125970274,-0.0005782255902886,0.0013646732550114
3.983572021484375,0.0003837751531973,0.0025160927404649,0.0376841262280941,-0.0002781481598503,0.0008300533518195,-0.0004609236493706
3.99355126953125,-0.0008999810470268,0.0019707246842328,0.0375356576681137,0.0004229613114148,0.0003483295440673,0.0011199300643056
4.003531005859375,0.0008977525573223,0.0057840084952302,0.0444195719629526,-0.001913429936394,0.0001054499298334,-2.41639972955e-05
4.013510986328125,0.0130913541002199,-0.0044206751196179,0.0423234764665365,-0.0004731213848572,-0.0027854284271597,0.0019759610295295
4.023489990234375,-0.0022532588195055,-0.003647517056344,0.0403793566614389,0.0009663171367719,0.000357368029654,0.0011336030438542
4.03347021484375,0.0090876348841935,-0.0003951276642736,0.040530163308978,0.0004078058991581,0.0009101806208491,-0.0011235160054638
4.0434501953125,-0.0069509881816804,0.0038212753212079,0.0424713605046272,0.000660539837554,0.0002108346670866,-0.0024369871243834
4.053430419921875,-0.0108052159244194,0.0021862397315911,0.0517465538501739,0.0015156741719692,0.0016264012083411,-0.0020372858271002
4.06341015625,-0.0054406018850393,0.0001405957807786,0.0481540823161601,0.0016922417562454,0.0002058716490864,0.0004588949377648
4.07339013671875,-0.0046952999430708,0.0025527532227337,0.0427671285808086,0.0018947585485875,-0.0004770727828145,-0.000749401806388
4.083369384765625,-0.0066867112223058,0.0056068161642644,0.0492044681519269,-6.131595000624657e-07,-0.0007103662937879,0.0024197597522288
4.09334912109375,0.0050379941672086,0.0060749907984398,0.0511491724789142,0.0010502756340429,-0.0024807127192616,-0.0003207587578799
4.1033291015625,-0.0063509033966809,0.008685620821407,0.0444178183972835,0.0020681358873844,-0.0009062513709068,-0.0005870749009773
4.113309326171875,-0.0057885568061843,0.0036203824542462,0.0432148723483085,0.0023468262515962,0.0039102751761674,0.001115727587603
4.1232890625,-0.002653364052996,0.0029305370265617,0.0424625926762819,-0.0004255245730746,0.0022338153794407,0.0004230393678881
4.133269287109375,-0.0008073708601295,-0.0007858988138381,0.0451531469345092,0.000578909239266,-0.0002465415745973,0.0004137190117035
4.143249267578125,-0.0025086218200623,-0.0011050112329889,0.0460503880351781,0.0008145989268086,0.0015138080343604,0.0007074656896293
4.15322802734375,-0.0036694640266709,-0.0028605861960444,0.0539782584249973,-0.0010736174881458,0.0001972625032067,-0.0009313935297541
4.163208251953125,0.0053510239054448,0.0003305197291541,0.0515811341553926,0.0015892771771177,0.0003876788541674,-0.0005071519990451
4.173188232421875,0.00518162215529,0.0114845856238622,0.0509814146965742,0.0004699610872194,0.0002848971635103,0.0012857655528932
4.18316796875,-0.0004569865198805,0.0031476869085803,0.0390156670928001,-0.0021420673001557,-0.0015268512070178,0.0032897943165153
4.193148193359375,0.0028351138280704,0.0035321744478307,0.0524836359530687,-0.0007548802532255,0.0010237153619527,0.0003059489536099
4.203128173828125,0.00689160441095,0.0019107381253037,0.0427571917086839,0.0004494011518545,2.3934990167e-06,3.75023082597e-05
4.213107177734375,-0.0015580613632686,-0.0051018349173478,0.0454524221420288,0.0003976362058892,-0.0008824206888675,0.0016879638424143
4.223087158203125,0.0037301264390349,0.0011492796329781,0.0340811333000659,-4.33832174167e-05,0.0004824493080377,-0.0022460576146841
4.23306787109375,0.0055614152531139,-0.0060791555169038,0.0484445896953344,2.58262152783e-05,0.0007157819345593,-9.88923566183e-05
4.2430478515625,-0.0052910008138976,0.001546580988029,0.0438058239787816,-0.0019260046537965,-0.0001694532111287,-0.0016680269036442
4.25302783203125,-0.0053206470334902,0.0015478230970446,0.0547317071408033,0.0018925324548035,-0.0018886486068367,0.0005327750695869
4.2630078125,-0.0029610234963707,0.0078184369322843,0.0506909073173999,0.0006315257051028,0.0008845012634992,-0.0005175756523385
4.27298779296875,0.0038733525683172,0.0032336846916005,0.0399158308029174,0.0015083648031577,0.0019880346953868,-0.0004478564078453
4.282966796875,0.0036471608633175,0.005274488070514,0.0406610962122678,0.0001160642132163,-0.001827741973102,0.0011497738305479
4.29294677734375,-0.0086820862906053,0.0009736125388182,0.0397679467648267,0.0007085326360538,-0.0020225616171956,-0.0015470387879759
4.3029267578125,0.0004542283072136,0.000223734886432,0.0475496866822242,-0.0020643505267798,0.0030153403058648,0.0008367566624656
4.31290673828125,-0.0069607606570236,-0.0014063505334313,0.0455991371363401,-0.0004368874069768,0.0017054872587323,0.0011084976140409
4.32288671875,-0.0043416641998104,-0.0008096267492976,0.0400607922315597,0.0001063974341377,0.0013419659808278,-0.0014324244111776
4.332866943359375,-0.0005438976183533,0.002027121913433,0.0562210689157247,0.0008807061822153,-0.0003291545435786,0.0002981283469125
4.3428466796875,-0.0041321679012849,0.0005743749550078,0.0445475822567939,0.0001789632369764,0.0002455553039908,3.71385394828e-05
4.35282568359375,0.0011347213846631,0.0014983761984389,0.0487345125526189,6.8147026468e-05,0.0021602641791105,0.0016241054981946
4.362805908203125,0.0097724388105794,0.0001318644850514,0.0417027142196893,-8.63163149915e-05,0.000907246954739,-0.0001136070786742
4.37278564453125,0.0062839391076937,0.0064110726187005,0.0405079514771699,-0.001086366828531,-0.001725809648633,-0.0003588591061998
4.382765625,0.003182228498999,0.0080130096563138,0.0414069461435079,0.0010827777441591,0.0010673142969608,0.0014646073104813
4.392745849609375,-0.0085458561576902,0.0049921731309499,0.038562662628293,-0.0013722081203013,0.0004386007785797,0.0005714705912396
4.402725830078125,-0.0103997038634493,0.0049238754014018,0.0321276611447334,-0.0008955023367889,0.0011999979615211,0.0013168894220143
4.412705810546875,0.0073155289114452,-0.0045171303645707,0.0417062213510274,-0.0023979300167411,-0.0009388336911797,-0.0003033997199963
4.422684814453125,-0.0036604039373807,0.0001771923309657,0.0436515101999044,0.0003645669785328,-0.0008919611573219,-0.0010256490204483
4.432664794921875,-0.0047996553666889,-0.0023796251455321,0.0400596231877803,-0.0001038986374624,-0.0002138391137123,-0.0001529492728877
4.442644775390625,-0.002758724123612,-0.0033897337698377,0.0512806899040937,-0.0003742094850167,0.0008668713271617,0.0014798347838222
4.452624755859375,-0.002298814994283,0.002802901192056,0.0423041872441768,-0.0025493507273495,-0.0009236056357622,-0.0018873939989134
4.4626044921875,0.0009522226909175,0.0051793297335039,0.0427519310116767,-0.0010997920762747,0.0011328877881169,-0.0009558203164488
4.472584716796875,0.0007922463562339,-0.002146519642556,0.0463432335019111,-0.0007171636680141,-0.0012457035481929,-0.001044635195285
4.48256396484375,0.0001905176034197,-0.0027371424794662,0.0423076943755149,-0.0006812110077589,-0.0008140048012137,-0.0018174846190959
4.492543701171875,0.0032590017959475,0.0027931561161763,0.0355740022063255,-0.0001434846781194,-0.0003889519721269,-0.0032039855141192
4.502523681640625,-0.0139449021896347,-0.0032331093028653,0.0469452910482883,-0.0005951568018645,0.0016441047191619,-0.0012569483369588
4.51250390625,-0.001544690425042,0.0024770576380193,0.0503863714128732,0.0009361723787151,-0.0004742359742522,-0.002297677565366
4.52248388671875,-0.0006561623537912,-0.0038457247758749,0.0455979680925607,0.0007662627031095,0.0003564041107892,-0.003433249425143
4.532463623046875,-0.0021829517959617,-0.0005636252321302,0.0461959339857101,-0.0007628159364685,-0.0007913848385214,0.0002364339015912
4.54244384765625,0.0018851744257844,-0.0009292436741292,0.0497889900416135,-0.0009660151554271,-0.0011839345097541,0.0008526893216185
4.552422607421875,0.0006978095384314,0.0043270420194137,0.047846623802185,-0.0008778678020462,-0.0023589143529534,0.0025017727166414
4.56240283203125,0.0025162754035554,0.0050919985099229,0.0482978747010231,-8.18489352241e-05,0.0015439484268426,0.0003739070089068
4.5723828125,-0.0015357216672971,0.0061029382512904,0.0524842204749584,0.0011916644871234,0.0006645563989877,0.0001361227768938
4.58236279296875,-0.0010133234946988,0.0051435551672242,0.051584056764841,0.0015565175563097,-0.0016872808337211,0.0020328261889517
4.5923427734375,0.0005314034629613,0.0121812626511324,0.0481418073564767,0.001038648886606,0.0008101789280772,-0.0012863165466114
4.60232275390625,-0.0035451983261853,0.0067212162801064,0.044851533639431,-6.97586801834e-05,-0.0029342249035835,-0.0016791328089311
4.612301513671875,0.0021836276493966,0.0001519665581639,0.0565220976889133,0.0005365092656575,0.0003932826220989,0.0002622971660457
4.62228173828125,-0.0014394034196622,0.003520136950165,0.0479915852308273,-0.0014917543157935,0.0018966374918818,-0.0023052564356476
4.63226171875,-0.0045965705426409,0.0057286159130278,0.0461959339857101,-5.28665841557e-05,-0.0001544933766126,0.0015075085684657
4.642241943359375,-0.0059493368584662,0.0134045299689285,0.0557721561044454,0.0003745707217603,0.0003371266648173,5.39552565896e-05
4.6522216796875,-0.0057449733927845,0.002594281676365,0.0452986928850412,0.0025787923950701,0.0007002437487244,-0.0002498289104551
4.66220166015625,-0.006426142323669,0.0074176832448225,0.0487432803809642,-0.0023981230333447,-0.0002744728699326,-0.0015617021126672
4.672181884765625,-0.000473444464337,0.0075044299465138,0.0562251605689525,-0.0007499003550037,-0.0015537608414888,0.0017067914595827
4.68216162109375,-0.0007097374382428,-6.41512773931e-05,0.0400631303191185,0.0007342793396674,0.0028995769098401,-0.0002538276894483
4.6921416015625,0.0028129202625714,-4.88441104069e-05,0.0397621015459299,-0.0015531908720731,0.0005146218463778,0.0010626181028783
4.702121826171875,-0.0046369938845746,0.0018403580365236,0.0459001659095287,-0.0017926089931279,-0.0031016850844025,-0.0001682948932284
4.712100830078125,0.0046540180846117,0.0071842489482834,0.0372223539352416,-0.0005218194564804,-0.0012237317860126,-0.0005641911993734
4.722080810546875,-0.0013099866200238,0.004058198482776,0.044705987688899,-0.0018965431954711,0.0020258575677871,0.0015429018530994
4.732060791015625,0.0005107077348046,-0.0007516129517462,0.0409656321167945,-0.001419186592102,-0.0007094843313097,-0.001439188607037
4.742041015625,-0.0013619725355878,0.0022191282210405,0.0608691869825124,0.0017315992154181,0.0001046443358063,0.0003943977935705
4.752020751953125,-0.0039829138900153,0.0028408037833403,0.0593710573792457,-0.0007342165336012,0.0011542718857526,-0.0002347100671613
4.762000732421875,-0.0024826105959713,-0.0031364439953584,0.0548819292664527,-0.0007765608024783,-0.0002063373103737,-0.0016312717925757
4.771980712890625,-0.0070798752583563,0.0066879898639395,0.0466547836691141,-0.0033929490018635,-0.0010369820520281,0.0007653325446881
4.781959716796875,-0.0032711123588494,0.0005917096822988,0.0560848753154277,-0.0005284531507641,0.0012490758672356,6.86496059643e-05
4.79193994140625,-0.0036633996120654,0.0011238803302403,0.044110944405198,-0.0008233694243244,0.0018326099961996,-2.26610427489e-05
4.801919921875,-0.0043193975690752,-0.0003947166723199,0.0433580802112817,0.0005367069970816,-0.0004947269335389,-0.0006951091927476
4.811899658203125,0.0033542605976574,-0.0017226590741425,0.0512900422543287,0.0004332165699452,-0.0010944968089461,0.0012642048532143
4.8218798828125,0.0011282003123313,-0.0015894794148392,0.040069560059905,0.0015136610018089,-0.0012436332181096,-0.0005419510416686
4.83185986328125,-0.0003787884508259,-0.0015716788966674,0.0418646267831325,0.0016065505333244,0.0008479105308651,-0.0004997403593733
4.841838623046875,-0.0111840591741725,0.0027595187080558,0.0283966579228639,0.0020515646319836,-0.0004146937280893,2.5318295229e-06
4.85181884765625,-0.0008698599033989,-0.0001419657539576,0.0447071567326784,-0.0004055517201777,0.0001349290832877,0.0002496485540177
4.861798828125,0.0056318684071302,0.0001949197839014,0.0411141006767749,4.98488079756e-05,0.0022044721990823,0.0018331641331315
4.87177880859375,0.0002060987650416,0.0024072529379744,0.0349783744007348,-0.0036303966771811,-0.000161375850439,0.0008250842802226
4.8817587890625,-0.0008559957748278,-0.0034121647973544,0.0348299058407545,-0.0001006429083645,0.0019790073856711,0.0019753035157918
4.89173876953125,0.0001351158880628,0.007089812130481,0.0460527261227369,-0.0023750849068164,-0.0018188785761594,-0.0019152187742292
4.90171875,-0.0057463981648907,-0.0030769414936192,0.0351315191358327,-0.0014296626904979,-0.0003570700064301,-0.0006744521087966
4.91169775390625,-0.0017850750521756,-0.0086251410721335,0.0442576593995094,-0.0002580507425591,0.0017128568142652,0.0024877293035387
4.921677734375,-0.0022210553166456,-0.0015066691027488,0.0544336009770631,-0.0026945767458528,-0.0001292517408728,-0.0021368497982621
4.93165771484375,-0.0047369836603291,-0.00195988362981,0.0411152697205543,0.0010732079390436,-0.0006562862545251,0.0014747428940609
4.9416376953125,0.0022681275950744,0.0089260511143133,0.041567105141282,-1.22966011986e-05,-0.0036669895052909,-1.74262313521e-05
4.951617919921875,-0.0054906698381528,-0.0009246679637115,0.0497971733480691,-4.09944914281e-05,0.00063266325742,-0.0023351879790425
4.96159765625,-0.0108118100619874,0.0015460512650664,0.0485959808647632,0.0012338606175035,0.0018071178346872,0.0004166562866885
4.971576904296875,0.0004033566365018,0.0058697505499236,0.0479945078402757,0.0002378998906351,0.0018741637468338,-0.0001046797406161
4.981556884765625,-0.0011241999906487,-0.0003114679688122,0.0443979446530342,-0.0006976685835979,0.0028781751170754,-0.0025678374804556
4.99153662109375,-0.0046085532413795,-0.0029436705027706,0.0446954662948846,0.0017037811921909,0.0003241896629333,-0.0034195438493043
5.0015166015625,-0.0074878532710485,-0.0011013214385602,0.0545686255335807,0.0028982087969779,0.0010706735774874,-0.0003236192278563
5.011496826171875,0.0009500490001402,0.004433342804946,0.0553133064210414,0.0007780659943819,0.0012231357395648,0.0001199179678224
5.021476806640625,-0.007542104208935,0.0046733255732804,0.0476835421949625,-0.0024701915681362,-0.0041865431703627,0.0020214149262756
5.031456787109375,0.0052918775967322,0.0053626412780024,0.0403542222201824,0.0008501357515342,-0.0020509697496891,0.0004064857203047
5.04143603515625,-0.002161233154498,0.0061151858115103,0.0532236406654119,0.0007768987561576,0.0002928785979747,-0.0001405275688739
5.051415771484375,-0.0029512327547185,0.0019372882055118,0.038258711245656,-0.0006139716133475,-0.0004557101055979,0.0028456468135118
5.061395751953125,-0.0086456632703542,0.0105215584111399,0.0437964716285467,-0.0012760334648191,0.0005379151552915,-0.0002611969539429
5.071375732421875,-0.0007189984569326,0.0030252843716181,0.0411029947608709,0.000655090145301,-0.000413304194808,-0.0002631546813063
5.08135546875,-0.0115973161501809,0.0113547943648882,0.0352682972580194,0.0012921181041747,-0.0004143696278333,-0.0016823532059788
5.091335693359375,-0.004487776405923,0.0093615655879024,0.0496329226970672,0.0001989476731978,-0.0011524250730872,-0.0014820017386227
5.101314697265625,-0.0086617010897025,0.0030432949523441,0.0415513230502605,-4.36662812717e-05,0.0009517390280961,0.000966508523561
5.111294677734375,-0.0098636242253705,0.0057537503542844,0.0455927073955535,-0.0011671270476654,0.000185745768249,0.0008714908617548
5.12127490234375,-0.003868438931182,8.77056829165e-05,0.0310749372214078,0.0003111936384811,0.000946344807744,-2.33312457567e-05
5.1312548828125,0.0035791919273324,0.0020114220208022,0.0430453610002994,-0.0013836298603564,-0.0010005049407482,0.0019611993338912
5.14123486328125,-0.0074043762386776,-0.0013758092646952,0.0384095178931951,0.0017796728061512,-0.0004348494112491,-0.0022090445272624
5.151214599609375,0.0069403389235027,-0.0010032861578743,0.0442442153960466,0.0010680700652301,0.0009175334125757,-0.0021161250770092
5.16119482421875,-0.0056397046537138,-0.0059708911031484,0.0442442153960466,0.000519725261256,0.0007026167586445,-0.0002596355334389
5.171173583984375,0.0018379560168832,0.0026470347769092,0.0424491486728191,-0.0019763146992772,-0.0005317777395248,0.0002165029291063
5.181153564453125,0.0078445394879207,0.0041793589107226,0.0415513230502605,0.0004088122514076,-0.0004473561421036,-0.0022948579862713
5.1911337890625,-0.0064744932437315,0.0013307554134167,0.0506803859233856,-0.0001801021862775,-0.0012009991332888,-0.002456831280142
5.201114013671875,-0.0038584837927483,0.0079667319623287,0.043648587590456,0.0023317914456129,-0.0009567877277731,-0.0014432322932407
5.21109375,-0.0126450899037532,0.0091019922031089,0.0422983420252799,-0.0016780998557806,-0.0008682953193783,0.0001340065355179
5.22107373046875,0.0002157799088396,-0.0006262147400993,0.0505284102320671,-0.0007694292580708,0.0008837990462779,-0.0022279508411884
5.231052978515625,-0.0050500681974925,0.0058374374492093,0.0499286907732486,0.0023554365616291,0.0006988700479269,0.0026322635821998
5.2410322265625,0.0003248297738842,0.0009428886069916,0.0400537779688835,-0.000289614952635,-0.0005735885351896,-0.000300143205095
5.25101220703125,0.0007224325230345,0.0068966367790941,0.0512754292070865,-0.0019868921954184,4.97940927743e-05,0.000951865222305
5.260991943359375,0.0021992088110186,0.0020858754965011,0.0505307483196258,0.0012752136681228,-2.07796692848e-05,-0.0013256701640784
5.27097216796875,-0.001985164201539,0.0023273926347959,0.0479857400119304,-0.0005130607169121,-0.0009644953534007,-0.0014095139922574
5.2809521484375,0.0057189073697663,0.0034383769508451,0.0497837293446064,7.3208939284e-06,0.0003151530399918,-0.001294997986406
5.29093212890625,-0.0037663850625045,0.006786920193769,0.0417015451759099,0.0007654390064999,0.0007658218964934,0.0004582213587127
5.3009111328125,-0.0049710664108395,0.000589353328431,0.0422989265471696,0.0001686245668679,-0.0012216949835419,-7.60087496018e-05
5.310891357421875,0.0059922809510491,-0.0008277103952597,0.0388590152263641,-0.0002192567917518,-0.0012406157329678,-0.001182148233056
5.320871337890625,-0.0026621318813413,0.005034477902716,0.0313788886040449,-0.0011716032167896,0.0007628798484802,9.6163348644e-06
5.33085107421875,-0.0078228025801479,-0.000781176972948,0.0581622661113739,0.0033348922152072,0.0005611972883343,-0.0024347556754946
5.340831298828125,-0.0068523501127958,0.0010868727880995,0.0526268438160419,0.0026006586849689,-0.0007248427718877,-0.0001513612660346
5.350811279296875,-0.0049969315044581,0.005051292040199,0.0379594360381364,-0.0010665063746273,0.0017768945544958,-0.0014644912444055
5.3607900390625,-0.0054214770594611,0.0010812376317568,0.0420008203834295,-0.0019703833386301,0.0006258767098188,0.0014463438419625
5.370770263671875,-0.0095296064980328,-0.0010736753798089,0.030326749202609,0.0006259334040805,0.001009807921946,-7.94222578406e-05
5.380750244140625,-0.0012177782919257,0.007222553398367,0.0482809235662221,-0.0008814157918095,0.0015581529587507,-0.000940155936405
5.390730224609375,0.0026275720246136,0.0047336226594634,0.0487286673337221,0.0013520533684641,-0.0003992337733507,0.001844267360866
5.400710205078125,-0.0003208294522017,0.0024005218030884,0.0448363360702991,0.0004969123983755,0.0007168976590037,0.0008706156513653
5.410690185546875,-0.009072565179225,0.0031185795451048,0.0464846877992153,-0.0002807140699587,0.00023421831429,-0.0011862005339935
5.420670166015625,-0.00392458956521,0.0049784916654694,0.0388520009636878,-0.0020128339529037,-0.000170050188899,-0.0012003153096884
5.430649169921875,0.0038670872243121,0.0048038474846165,0.0403507150888442,0.0013282417785376,0.0012552579864859,0.0025775211397558
5.440629150390625,0.0076584605976007,-0.0017121559464372,0.0532166264027357,0.0004107828717678,-0.0006108190864324,0.0001990520540857
5.450609130859375,-0.0086191588559187,0.001430151534127,0.0503723428875207,0.0020036837086081,-0.0007154000923037,0.000930352252908
5.460589111328125,-0.0022740276128984,0.0072288826744537,0.0351110608696937,0.001152271288447,0.0016931621357798,-0.002522436203435
5.4705693359375,-0.0050215910216793,0.001615901630884,0.0384013345867395,0.0009027449414134,0.0003178073093295,0.0005572973750531
5.480549072265625,-0.0077810457976534,-0.0038004060631152,0.0373544558823108,0.0009283112594857,-9.31182876229e-05,0.0008089661132544
5.4905283203125,-0.0117449079273268,0.0022213019118178,0.0466331563591957,0.0010799671290442,-0.0005847737193107,-4.46802514488e-05
5.50050830078125,-0.0127838225210085,0.00625874986751,0.0461842435479164,-0.0004209904873277,0.001701284199953,-0.0009022181038744
5.510488037109375,-0.0065495677739381,0.0063027625391725,0.0508218402206897,-0.0003033349639736,-0.0019726082682609,0.0014360939385369
5.520468017578125,-0.0111841505057178,0.0113475335070397,0.0449848046302795,-0.0013725941535085,-0.0003142580389976,0.0019080061465501
5.5304482421875,-0.0054190293740481,0.006478301769169,0.0497755460381507,-0.0016893299762159,-0.0012598121538758,0.0036861952394247
5.540428466796875,0.0007749298952519,-0.0043301655582617,0.0391530297368764,0.0015187137760221,0.0005322284996509,7.30846004444e-05
5.550408203125,-0.0043291700444184,0.0026962807461153,0.0393009137749671,-0.0005267787491902,0.0008281823247671,0.0011959807015955
5.560387451171875,-0.0026749548302963,-0.0009288509484846,0.0392997447311878,0.001662605907768,-0.0003121830523014,-0.0001350671809632
5.5703671875,0.0004213489509187,0.0035204474774189,0.0410965650200843,0.0015314755728468,0.000479576177895,0.0001111251476686
5.58034716796875,-0.0033356106961145,-0.0001040357632096,0.0512719220757484,-0.0011529908515512,-0.0008163172751665,0.000714863766916
5.5903271484375,-0.0027318543829955,-0.0004031191744841,0.0367570745110511,0.0021885391324758,4.16291877627e-05,-0.0019769847858697
5.60030712890625,-0.0052413712522014,0.0033814317323733,0.0484288076043128,-0.0002426608116365,0.0015029059723019,0.0012497013667598
5.610287109375,-0.0058702802728861,0.0049772952222265,0.0385562328875064,0.001318670110777,-0.002742157317698,3.59595796908e-05
5.62026611328125,0.0012172303026542,0.0045192035906482,0.0437947180628776,0.0002246435615234,0.0030920291319489,-0.0017627393826842
5.63024609375,0.0015587006840854,-0.0003897117036394,0.0505254876226186,0.0022335594985634,0.0014631291851401,0.0009334128117188
5.640226318359375,-0.0076417286585085,0.0058506165911909,0.0416974535226821,0.0011246192734688,-0.0002117324620485,-0.0002247959200758
5.650206298828125,-0.005163593308255,0.0006567742751445,0.0484328992575407,0.0008169278735294,-0.0019361320883035,0.000276213948382
5.660186279296875,-0.0055373219914734,-0.0006038567778188,0.0583095656275749,0.0001814976567402,0.0007336866110563,-0.0004971680464223
5.670166015625,-0.0025850480571389,0.0037603297810535,0.0464917020618915,-0.0036285035312175,-0.0010100007057189,0.0009970238897949
5.680145263671875,-0.0035685244028456,0.0032363059069495,0.0497860674321651,-0.0019416573923081,-0.0017391741275787,-0.0018168720416724
5.690125,-0.0095516539330594,0.0021443276854697,0.0450017557650804,-0.0011742812348529,-0.0018494194373488,-0.001333148102276
5.70010498046875,0.0064224707955494,-0.0027255159737542,0.0340793797343969,-0.0010065020760521,0.0011359844356775,0.0006884575122967
5.710085205078125,0.0041537769448943,0.0076987286759074,0.0421598103374242,-0.0003150218981318,-0.0005839578807353,0.0014152519870549
5.7200654296875,-0.0011776289446279,0.004862244874658,0.0470990203052759,0.0023974077776074,-0.0021000960841774,0.00131192128174
5.730045166015625,-0.0017377835780382,-0.0026613829626701,0.0445581036508083,0.0017569162882864,-0.0011959206312894,0.0008655615965835
5.740025146484375,-0.0030519897154532,0.0045068646988831,0.0472527495622634,0.0002120165154337,-0.0001772614195942,0.0012091093230992
5.75000439453125,-0.0083231533177196,0.0104166093324776,0.0475502712041139,0.0018699720967561,0.0020157508552074,0.0003372105420567
5.759984130859375,-0.0005040039993822,-0.0037823680829256,0.0432113652169704,0.0004483767552301,0.0020836619660258,-0.0008662719628773
5.769964111328125,0.000770107589662,-0.0038649317998439,0.039922260543704,-0.0007263494189828,-0.0006830645725131,-0.001407679868862
5.779944091796875,-0.0012467303917743,-0.0009163202604744,0.0529395630270242,0.0009527736110612,-0.0007746769115328,-0.0019120825454592
5.789924072265625,-0.0025416838394477,0.0034699867986608,0.052190205964446,-0.0035670029465109,0.0001251092180609,0.0010239029070362
5.799904296875,-0.0126413635767064,0.0041228703499771,0.0475508557260036,-2.55313352681e-05,-0.0007113888859748,-0.0017361971549689
5.80988330078125,-0.0103869174471125,0.0089667210514191,0.0405178883492946,0.0016610126476734,1.2684613466e-06,0.0007786657661199
5.819863037109375,-0.0008153532371856,0.00405021610572,0.0526361961662769,-0.0010207905434072,-0.0021247332915663,0.0006902487948536
5.82984326171875,0.0004603109881281,-0.0089400431070476,0.0491962848454713,-0.0002395728952251,0.0006118910387158,-0.0007623591227456
5.8398232421875,-0.0028750439796596,-0.0043259551740251,0.0346802682369947,0.0006872070953249,0.0006712796166539,-0.000802839116659
5.849802978515625,0.0031612953088246,0.0079892634545452,0.0370750544190406,-1.7998041585e-05,-0.0018828297033905,0.001188957132399
5.859782958984375,0.0004846782444044,-0.004208603271516,0.0518891771912574,-0.0009202769724652,0.0003017606213688,5.4716845625e-05
5.869763427734375,-0.0043016244503669,0.000544829200115,0.054732291662693,-0.0004274430684745,-5.73368743062e-05,-4.47615020675e-05
5.8797421875,-0.0104287838274613,0.0043461577118374,0.0391699808716774,-0.0008434288320131,-0.0016056988388299,0.0011685746721923
5.88972216796875,-0.0072510305741801,0.0039121502087451,0.0453068761914968,-0.0014754061121493,-0.0002918364480137,0.0003682519018184
5.8997021484375,-0.0030093378838151,-0.0003750438574701,0.0361766442745924,0.001240219338797,0.0004032487049698,0.0005735816666856
5.90968212890625,-0.0022483086497522,-0.0003795373694971,0.0485965653866529,-0.000474632717669,-0.0008616112172603,0.002231849823147
5.919662109375,-0.0100476572890765,0.0048678617646917,0.051738955065608,-0.0024629486724734,0.0018231216818094,-0.0012009646743535
5.92964208984375,-0.0054288383820094,0.004994465552736,0.0478495464116334,-0.0009600979974493,-0.000230829231441,-0.0019853212870657
5.93962109375,-0.0050400947927497,-0.0004654255546629,0.0426151528894901,0.0006569734541699,-0.0001860875636339,-0.0011144675081595
5.94960107421875,0.0056866308016702,-0.0013922672091517,0.039325463694334,-6.23661326244e-05,-0.0006786929443478,-0.0013219217071309
5.959581298828125,0.0020692440221086,0.0021671057728584,0.0355827700346708,7.53193162381e-05,0.0018393257632851,0.0004320362349972
5.96956103515625,0.0040873971777968,0.0057314654572401,0.0376712667465209,0.0014557396061718,-8.9282169938e-05,0.0001604598364792
5.979541259765625,-0.0048646651606075,-0.0016317111213691,0.0539794274687767,-0.0007669344777241,-0.0005619935691356,-0.0006584621733054
5.989521240234375,-0.0069388593524694,0.0039835440776776,0.052483051431179,-0.0013617824297398,-0.0032102428376674,0.0008693153504282
5.9995,0.0121772166636772,0.0103807434346526,0.044402036306262,-0.0011324842926114,0.0011070072650909,-0.0014646790223196
6.009480224609375,0.0080504007909446,0.0004783398351632,0.0390133290052413,-0.0013245663139969,-0.0007007205858826,0.0021286536939442
6.019460205078125,0.0056991614896804,0.010921188720595,0.0364706587851047,0.0019756227266043,0.0004625478759407,-0.0009784562280401
6.0294404296875,0.0028809074648655,0.0017395736763253,0.0418570279985666,-0.000767957244534,-0.0013744747266173,0.0023543501738458
6.039420166015625,-0.0097055110542103,-0.0045148562090937,0.0476923100233077,0.0019127805717289,-5.19482418894e-05,0.0008163746097125
6.049400146484375,-0.0101422767699696,0.0007267433719709,0.0397568408489227,0.0026227533817291,0.0011421125382184,0.0003360412956681
6.05938037109375,0.0014644099967554,0.004658100604685,0.0411000721514225,0.002392390044406,-0.0003223596140742,0.0011680128518491
6.069359130859375,-0.0053806518587283,0.0082751311912201,0.0455897847861051,0.0013121825177222,0.0003314381465315,-0.0002668642264325
6.079339111328125,0.0033296193467453,0.0116677236384246,0.0446931282073259,-0.001277209026739,-0.0025636842474341,-0.0011672789696604
6.0893193359375,-0.0018872933176346,-0.000275894331932,0.0470890834331512,-0.0006921027670614,-0.0026891650632023,-0.0002842873509507
6.099299072265625,-0.0107138661128468,0.0012610511780716,0.0494862077027559,8.92686657607e-05,-2.17435881495e-05,-0.0007554005715064
6.109279296875,-0.0042837782664224,-0.0010735749151092,0.0451508088469505,-0.0006407768232747,-0.0005319276824593,-0.0001367299992125
6.11925927734375,0.000721226946637,0.0131387643053662,0.0411123471111059,0.0002652305411174,0.0001921858638525,-0.0008235592395067
6.12923828125,0.0026404863051138,0.0092698413169942,0.0491921931922435,0.0010794022819027,-0.0005813520401716,0.000162922515301
6.13921826171875,0.001229304332938,0.0069720035702455,0.0560726003557443,-0.0005310112610459,0.0007076170295476,0.0012782543199136
6.1491982421875,0.0016793313890695,0.0087008092573843,0.052628597381711,0.0002828957512974,0.0030949329957365,-0.0002752346626948
6.159177978515625,-0.0077809909987263,0.0020823683651629,0.0277852480262517,-0.000694218033459,0.0001257751137018,-0.0003724400303326
6.169158203125,-0.0042913222520612,-0.0034424960035365,0.0411035792827606,-0.001347079174593,-0.0008124951273202,-0.000169475475559
6.17913818359375,-0.0021429303128272,0.0038260062952525,0.0506827240109443,-0.0020610727369785,-0.0001051593571901,0.0012161671184003
6.189116943359375,2.86415725946e-05,0.006498065915564,0.0417015451759099,0.0029562900308519,0.000890240073204,-0.0001182865962618
6.199097412109375,-0.0011532616883516,0.0058904554112348,0.0523228924334049,0.0027980981394648,-0.000206715427339,0.0009126230725087
6.209077392578125,-0.0030628764356486,0.0011566409555263,0.0554652821123599,0.0015184886287897,-0.0018873531371355,0.0005504247965291
6.21905712890625,-0.0068453906490467,0.0110855124368332,0.0482844306975603,-0.0003382673021405,-0.0005930569022893,-0.0003270868328399
6.229037109375,-0.0070505943649448,0.0087092391590122,0.0487350970745086,-0.0005509110633283,-0.0026785694062709,-0.0012761004036292
6.239017333984375,0.0040035730855539,0.0047506925252731,0.0379600205600261,0.0004166152793914,0.0013169711455702,-0.0009077852591872
6.248996337890625,-0.0036454255639575,0.0095484664621297,0.0412485407114028,-0.0033197673037648,0.0028842529281973,0.0004822873161174
6.258976318359375,-0.0137970729504711,0.0088275683090556,0.051270753031969,0.0010755136609077,-0.0032117227092385,-0.0005438286461867
6.268956298828125,-0.0102686065633781,0.0058301765913609,0.0388531700074672,-0.0030152732506394,0.0003858059644699,-0.0005694747669622
6.2789365234375,-0.0007429455881007,0.0025924459123052,0.051123453515768,-0.0015510673401877,-0.0001910347491502,0.0011802220251411
6.28891650390625,-0.0071556256419979,0.0024755324012134,0.0523205543458461,-0.0003440127475187,-0.0010336162522435,0.0002567953488323
6.298896484375,-0.0066424702217802,0.0053513800984714,0.0434931047677993,0.0005108619807288,-0.0009491937234997,0.0009145961375907
6.30887646484375,0.000417969683744,0.0058165955905802,0.0436427423715591,0.001019972609356,0.001296523027122,-0.0006195479654707
6.31885546875,0.002447868076153,0.0096176957734394,0.0460351904660463,-0.000299091101624,0.0018062517046928,0.0023978136014193
6.32883544921875,-0.0062434244342148,0.0005742470908444,0.0375029244422912,-0.0010868433164432,-0.0002253791317343,-0.0011010624002665
6.338815185546875,-0.00426145683676,0.0011801222958136,0.0354103360772132,-0.0008506209123879,0.0012092655524611,-0.0001002464414341
6.34879541015625,-0.0053296340575441,0.0019631167665123,0.0401981548756361,0.0010283980518579,0.0004932815209031,0.0027511555235832
6.358775634765625,-0.0014662366276606,0.0101255174314137,0.0440869790077209,0.0012236079201102,0.0006586639210581,0.001347403274849
6.368755615234375,-0.0077350329651497,0.0021175858090166,0.0496229858249425,0.0020595891401171,-0.0010936763137578,-0.0014557666145265
6.378734375,0.000384706734959,0.0063310387855861,0.0406453141212463,-0.0004280695284251,-0.0030649481341242,0.0011101888958364
6.388714599609375,0.0055073287120088,0.0013819376113824,0.041996144208312,0.0013151780003681,-0.001033192500472,0.0014339849585667
6.398694580078125,0.0071283723088912,-0.000579151594825,0.0494809470057487,0.0009170352714136,-0.0030428143218159,-0.0010590001475065
6.40867431640625,0.0029307562222704,0.0067311896848492,0.0485831213831901,-0.0013966544065624,0.0020171096548438,-0.001001943135634
6.418654296875,-0.0040532391798682,0.0040988592867273,0.048432314735651,-0.0015772166661918,2.00057402253e-05,-0.0019183367257937
6.428634521484375,-0.008451510671433,0.0090769216939341,0.0481312859624624,0.0002771827857941,-0.0003157528117299,0.0007936035399325
6.438613525390625,0.001112527819164,0.0053755920911207,0.0415519075721502,0.0005733262514695,-0.0009341388940811,0.0016364939510822
6.448593505859375,-0.0012795184165239,0.0037430133200716,0.0496305846095085,0.000949086388573,0.0001779161393642,-0.0008244722266681
6.458573486328125,-0.0021885778191499,0.0051840515743941,0.0517255110621452,0.0017416431801393,0.0008245315402746,0.0004346703062765
6.468553466796875,0.0041471462747082,-0.0094879410470835,0.0482820926100015,-0.0003911514650098,0.000668715685606,0.0014652484096586
6.478533447265625,-0.0014373210604302,-0.0055065249944105,0.0387064550131559,0.0016618794761598,-0.0019467743113636,0.0031457031145691
6.488513427734375,-0.0017938976794481,0.0073791778653394,0.045588031220436,0.0019997465424239,0.0002984628081321,0.0013606013962998
6.498492431640625,0.0012535985239781,0.0086775745122693,0.0378057067811489,0.0009190359269268,-0.0006397692486643,0.0005701751215383
6.508472412109375,-0.0046904593711718,0.0047795258941128,0.0487298363775014,-0.0007553314790129,-0.0011275419965386,4.50422012363e-05
6.51845263671875,0.0037954650265164,0.0019916944070253,0.0440928242266178,0.0048674005083739,-0.0004540290683507,-0.0001448411785531
6.528432373046875,0.002786105320882,0.006846696690144,0.0352642056047916,-1.27936364151e-05,-0.0003365026786923,0.0021292974706739
6.538412353515625,-0.0012358071389608,0.0030253117710817,0.0397533337175846,0.001423182664439,-0.0019956519827246,-0.0003133538120891
6.548392578125,0.0026782427659258,0.0003149933664593,0.0442430463522672,9.69176762737e-05,-0.0001275306567549,0.0007668568869121
6.558372314453125,0.0015215104788541,0.0117329617612063,0.0340682738184928,0.0013621854595839,0.0012410683557391,0.0006534061976708
6.568351318359375,-0.0090167981376871,0.0153622216416522,0.038406010761857,0.0014797471230849,0.0020002759993076,0.0010092773009091
6.57833154296875,-9.7048899997e-05,0.0082588285103905,0.0358598334103822,-0.0018534653354436,-0.0010746102780103,-0.0011521441629156
6.588311279296875,-0.007617671929486,0.0031507282490376,0.038103812944889,-0.0004085088730789,-0.0009908899664878,-0.0008181283483281
6.59829150390625,-0.0089826584060676,0.0052057245500851,0.0412462026238441,-0.0002106360043399,0.0009247222915291,-0.0001765728375175
6.608271484375,-0.011077493527159,0.0140932428854517,0.0410959804981946,-0.0023409370332956,0.0009208461269736,0.002657012315467
6.61825146484375,-0.0091245145621709,0.0046205724727362,0.0503740964531898,0.0005390051519498,-0.0014198068529367,-0.0001949667785083
6.62823046875,-0.0038564744987525,0.0075148782752919,0.0503758500188589,-0.0014076437801122,-0.0010279007256031,-0.0017690411768853
6.63821044921875,-0.0016520963222719,0.0097935363975353,0.0385550638437271,-0.0013629026943817,-0.0004127109423279,-0.0004015080048702
6.648190185546875,-0.0073334481606259,0.0075599960586521,0.0381061510324478,0.0004174442728981,0.0018100207671523,0.0019202106632292
6.65817041015625,0.0018980156410485,0.0012676361824851,0.0407967052906751,0.0026387870311737,-0.0005825627595186,0.0010259211994707
6.668150390625,-0.0023702545289881,0.0134651193160563,0.042592941057682,0.0007937127375043,-0.0002849576994776,4.29769788752e-05
6.678130615234375,-0.0074805284811183,0.0055493594891391,0.0412456181019544,-0.0007948628626763,0.0010343724861741,-0.0005000415840186
6.688109619140625,-0.0062495801803655,0.0036000063864979,0.0536667082577943,0.0037147586699575,0.0001324256882071,-0.0024025149177759
6.698089599609375,0.004701948879566,0.0024188429110683,0.0487286673337221,0.0004888717667199,-5.50616532564e-05,-0.0008743930375203
6.7080693359375,-0.0073187255155295,0.0008942728254478,0.0572609333574771,-0.0012971579562872,-0.0007623936980962,0.0027389866299927
6.71804931640625,-0.0010545505542308,0.0073566463731229,0.0434901821583509,-0.0004777032299898,0.0019148821011185,-0.0023505804128944
6.728029541015625,0.0011221358977258,-0.0025155082185752,0.0440869790077209,-0.0012323515256866,0.0010274676606059,-0.000203978823265
6.738009521484375,-0.0015799809341318,0.003060940206889,0.0433382064670324,0.0022934074513614,0.0008072238415479,-0.0012191758723929
6.74798828125,-0.0056709217758849,0.0077397456728853,0.045880876687169,0.0002885988214984,-0.0019197557121515,-0.0001805113424779
6.757968505859375,-0.002249276764132,0.0042454372837208,0.0476765279322862,-0.0011918524978682,0.0014504743739962,-0.0006036876002326
6.767948486328125,-0.0017513554456643,0.0094463943271432,0.0539595537245273,0.0009861330036073,0.0003111865371465,-0.0013510975986719
6.777928466796875,0.0043046201250515,0.0085103738523554,0.0521621489137411,-5.56955346837e-05,0.0007737772539258,-0.0013795933919027
6.787908447265625,-0.0049854054634459,-0.0036745055279694,0.0416863476067781,-0.0001576952054165,9.69767570495e-05,0.0024308052379637
6.797888427734375,-0.00376030238159,0.0010055511801969,0.0365992536008357,0.0013150328304618,0.0004655588418245,0.0013048207620158
6.807868408203125,0.0012152210086584,0.0065766201776452,0.0446767615944147,0.0002066051820293,0.0020872792229056,0.002727111801505
6.817847412109375,-0.0032981282299384,-0.002308879730571,0.0530564674049615,-0.0012863628799095,0.0005149487406015,-0.0001272641529794
6.8278271484375,0.0014989881197921,-0.0028855379742104,0.0452735584437847,0.0018254563910886,0.0023371502757072,-0.0007523286622017
6.8378076171875,0.0019333792153745,0.0004788786912802,0.0454191043943166,0.0008824310498312,0.0020817527547478,0.0011393146123737
6.84778759765625,-0.0080598992716521,0.0016332820239476,0.0434714774578809,0.0010552743915468,0.0006698155775666,-0.0004837895976379
6.857767578125,-0.0026494367965497,-0.0008522785809356,0.0499058944195508,0.0003117198357358,-0.0003648223355412,0.001657391898334
6.867747314453125,-0.0012220708745531,0.0063011368376668,0.0458662636399269,0.0011673516128212,-4.72357496619e-05,0.0008470911416225
6.8777265625,-0.0063309931198135,0.0050579592430032,0.0509486814707517,-0.0019674552604556,0.0030199270695447,0.0019941146019846
6.88770654296875,-0.003268171483092,0.0071051832295488,0.0421171402394771,3.56100499629e-05,0.000833811238408,0.0008962335996329
6.897686279296875,-0.0053149296787567,0.0109150238412898,0.0472036497235298,-0.0003449556534178,-1.73347070813e-05,0.0007079481147229
6.907666259765625,-0.00578150601089,-0.0053112581506371,0.0401712668687105,0.0011465467978268,0.0016202954575419,-0.0003261597012169
6.917646728515625,-0.0095432696972042,0.0005538801562506,0.0427139370888471,0.0004069870337843,-0.0013105133548378,-0.0005874157650396
6.92762646484375,0.0027422479128465,0.0089657438038848,0.040920039409399,-0.0012755054049193,-0.0015579741448163,0.0014682854525744
6.93760546875,-0.0083734952654689,0.0045556174777448,0.0490033926218748,-0.0006422057049348,-0.0021811537444591,-0.0024958297144621
6.947585693359375,0.0040131994304247,0.005577380007226,0.0608276859283447,-0.0003415839164517,0.0001196973025798,0.0003443978202994
6.9575654296875,-0.0072545194392092,0.0103637375009246,0.0377840794712305,-0.0008771455613896,7.12275505065e-05,0.000263171386905
6.96754541015625,-0.0117250524493865,0.0051002640147693,0.0406283629864454,0.0017833048477768,-0.0009667621925473,0.0026945690624415
6.977525390625,-0.0005641549550928,0.0136021075007971,0.0545464137017726,-0.0013368545332923,-0.0017830207943916,0.0001749521907186
6.987505126953125,0.0014892521770671,0.0060884530682116,0.0460217464625835,0.0002675740979611,-0.0018862513825297,0.0006584569928236
6.997484375,-0.006444518230576,0.0050310803692322,0.0538029018580913,0.0006784998113289,-0.000987434759736,-0.0016315951943397
7.007464599609375,0.0003441007299348,0.0022884762633591,0.0541039306312799,-0.0011832367163151,-0.0006630551069974,-0.0028653335757553
7.0174443359375,0.0033305326621979,0.0037498266533482,0.0512608161598443,-5.77848404645e-05,0.0007417621091008,0.0014295462751761
7.027424560546875,0.0007539601724594,0.0088791888984385,0.0350987859100103,-0.0005209423834457,-0.0008861878886818,-0.0004374338604975
7.037404541015625,-0.0014369922668673,0.0043964722601231,0.0422825599342584,-0.0005166813498362,0.0004275497049093,-0.0019181513926014
7.04738427734375,-0.0047966048930771,0.0032610110899433,0.0443786554306745,0.0003733607009053,-0.0029519377276301,-0.000814908533357
7.0573642578125,0.0030625111094675,0.0029328020488843,0.0425853422731161,-0.0015217446489259,-0.0009758723899722,-7.18866140232e-05
7.067343505859375,-0.0055918834566138,0.0059616026849951,0.0497697008192539,-0.0005592675879597,-0.0009724264964461,0.0002267987729283
7.0773232421875,-0.0060381476530805,0.0002171772814821,0.0445329692095518,-0.0013177358778193,-0.0008469922468066,-0.002571651013568
7.087303466796875,-0.0021347287400625,0.0009913399917539,0.0401981548756361,-0.0011213988764211,-0.0021623531356453,0.0017606014152988
7.097283447265625,-0.0085417462381534,0.0111955395494122,0.0481307014405727,0.0014610685175284,0.0004565995186567,-0.0008927059825509
7.107263671875,-0.0009147219584323,0.002303326772619,0.0488783049374818,-0.0005157755804248,0.0003696167841553,-0.0002226336218882
7.117243408203125,0.0042784079715609,0.0049888121300842,0.0443880077809095,-0.0004345491761341,0.0005610976368188,-0.0010612630285322
7.127222412109375,-0.006518661179021,0.0045526126699056,0.0397504111081361,0.0018271103035658,0.0005051530897617,-0.001345908967778
7.137202392578125,-0.0051480121466331,-0.0002699212488718,0.0449883117616176,-0.000337506935466,-0.0025106109678745,-0.0010937076294794
7.147182373046875,-0.007142510432098,0.0006353478946257,0.0445417370378971,0.0003640704089775,-0.0020315069705247,0.0005182457971386
7.157162353515625,-0.0003959953139536,0.0011078699103556,0.0414028544902801,-0.0022519526537507,-0.0017081992700695,0.0002452717744745
7.167142578125,-0.0065695145834237,0.0131259139569476,0.0418552744328975,0.0004700341960415,-0.0003808932378888,1.28155370475e-05
7.177122314453125,0.0059587074750103,0.0131422623035497,0.0526280128598213,-0.0002684603095985,0.0004785088822245,0.0020195073448121
7.1871015625,0.0004099325077608,0.0073358867128845,0.044696635338664,-0.0010591094614937,-9.70000401139e-05,0.0007396392757073
7.197081298828125,0.0061309222367592,0.0033285142350476,0.0418535208672285,4.90319216623e-05,-0.0009603975340723,-2.8150032449e-05
7.207061279296875,0.0025710377980954,0.0031983211172744,0.040655250993371,-0.0001479840138927,-0.0001647444441914,0.0005008085863664
7.21704150390625,-0.0031548838343471,-0.00253016693159,0.0402092607915401,-0.0018393576610833,-7.65938311815e-05,-0.0007578013464808
7.227021484375,-0.0005875723632983,0.0001592456823214,0.0435036261618137,-0.0011280969483777,-0.0023868484422564,0.000846529728733
7.2370009765625,0.0023240955660119,0.0030011271778959,0.0351256739169359,-0.0015595289878547,0.0019399896264076,-0.0001590798492543
7.246980224609375,-0.0012068185064941,0.0016085129088722,0.0457499437838792,-0.0002491846680641,0.0011413600295782,0.0017652640817686
7.256960205078125,-0.0030067440679296,0.0044230862724129,0.0446995579481124,-0.0016137884231284,-0.0002743760123848,-0.0009913739049807
7.266940185546875,0.0036108657072298,0.0090102679322008,0.0411094245016574,0.0003454935504123,-0.0011207908391952,0.0024534773547202
7.276920166015625,-0.0029609321648254,0.0033483514466788,0.0470949286520481,-0.0001178964739665,-0.0019349195063114,-0.0003561576304491
7.286900390625,-0.0043956594093702,-0.0016397939631249,0.0464952091932296,0.0030957991257309,0.0024382593110203,0.0017134252702817
7.296880126953125,0.000591262157727,0.0082551661154255,0.0381114117294549,0.0008286500815302,-0.0009285090491175,0.0032023987732827
7.306859130859375,-0.0076008851914666,-0.0026542134363669,0.0427525155335664,-0.0017349536065012,0.000124474056065,0.0003540018224157
7.316839111328125,-0.0147896824507042,-0.0057491563775576,0.0452969393193721,-0.0022452152334153,0.0007836064323782,-0.001184772583656
7.326819091796875,-0.0067258559226058,0.0082040935153141,0.0493383236646652,-0.0023442115634679,0.0019785407930612,0.0005523656727746
7.33679931640625,-0.0092735493777319,-0.0011247023141477,0.0535287610918283,-4.19087591581e-05,-0.0012111272662878,-0.0022825691848993
7.346779296875,-0.00123138669217,0.0080180237581487,0.0443996982187032,-6.27639237791e-05,-0.0012794798240065,7.46528094168e-05
7.356759033203125,8.19609287194e-05,-0.0012158877289388,0.0514344191610813,0.0003529554815031,-0.0015428662300109,0.0011079593095928
7.36673828125,-0.0017282302984036,-0.0088035572458058,0.0394645799040794,-0.0004595746286213,0.0007051965221762,-9.22430044738e-05
7.37671826171875,0.0036584859749302,0.0046852626062463,0.0361719680994749,-8.24710004962e-05,0.0015171943232417,0.0002462447737343
7.386697998046875,-0.0005310198704712,0.0087326474340632,0.0451502243250608,0.0009382423595525,-0.0029550716280937,0.0020214081741869
7.39667822265625,-0.0017076989670284,0.0025100374590139,0.0436567708969116,0.0017102926503866,-0.0011262791231274,0.0002445471473038
7.406658203125,-0.0104995657750405,0.0026955044279806,0.0499374586015939,0.0019750182982534,0.0025995038449764,-0.0015517820138484
7.41663818359375,-0.0022548662547022,0.0056538610432296,0.0406587581247091,0.0002876392682082,-0.0007294472306966,-0.0008300654590129
7.4266181640625,0.0050882630497217,0.0017361761428415,0.0414110377967357,0.0003405372845008,-0.0021104430779814,0.0007995421765372
7.436597412109375,0.0053221814034506,0.0105381350866053,0.0490443091541528,-0.001301567768678,-0.0020574461668729,0.0015414989320561
7.4465771484375,3.7098873686e-05,-0.0013427837779279,0.0420125108212232,0.0025149341672658,0.000975196249783,0.0009846471948549
7.45655712890625,0.0023145788189955,0.0045401641802862,0.0515899019837379,0.0004304778994992,-0.0017942246049642,-0.0007429454708471
7.466537109375,-0.0034628720712848,0.0020128285265993,0.0445581036508083,9.82890487648e-05,-0.0013071307912468,0.0001448916154913
7.47651708984375,0.000768719350174,-0.0026717308267485,0.0477016623735427,5.40805631317e-05,0.0015970468521118,-0.000739810464438
7.48649609375,0.0002296623037196,0.0011433065499179,0.0465051460653543,0.0021601668559014,-0.0017445348203182,-0.0024183767382055
7.49647607421875,0.0017222024164162,0.00030553141837,0.0397737919837236,-0.0010390887036919,-0.0007557030767202,-0.0007344599580392
7.506456298828125,-0.0035024003640748,0.0032627920550759,0.043814591807127,-0.0010937612969428,-0.0002217553555965,0.0011324945371598
7.516436279296875,-0.0038764761071652,0.0033062658706214,0.050097617599368,4.2599858716e-06,-0.0013440120965242,-0.0001311753730988
7.526416259765625,0.0002558561909012,0.0040804833798203,0.0512929648637771,0.0013552885502576,0.001805112697184,-0.0011377461487427
7.53639599609375,-0.0075439856387674,0.0069395352059043,0.0506938299268484,-0.001041290233843,-0.0003232862800359,-0.0015428129117935
7.5463759765625,-0.0011408040655776,0.0048939551871735,0.0355810164690017,-5.83240180276e-05,-0.0003371704369783,-0.0010096323676407
7.556355224609375,-0.0029142069462686,0.0051062827636022,0.0271995570927858,-0.0011294473661109,0.0007957378402352,0.0004063704109285
7.5663349609375,-0.0061683316376991,-0.0011949362724553,0.0430588050037622,0.0008063057321123,0.0007582353428006,-0.0014320906484499
7.576315185546875,-0.0007099018350243,0.0065706288282759,0.0463525858521461,0.0013013873249292,7.03409314155e-05,-0.0001439196785213
7.58629541015625,0.0012327931979671,0.0025864180303178,0.049195115801692,0.004491105210036,0.0003039957955479,-0.0013327312190085
7.596275146484375,-0.0060099810045212,0.0015514946251641,0.0423082788974046,0.0003288508160039,0.001688839867711,0.0017900913953781
7.606255126953125,-0.0056006695512682,0.0028470873936545,0.0530786792367696,-0.0002769874408841,0.0019569564610719,-0.0021845074370503
7.616234375,-0.0021115853264927,0.0009741513949353,0.0463473251551389,-0.0022171002347022,0.0002765012905001,0.0010483037913218
7.626214111328125,-0.0069010480927303,0.0045057504540309,0.0406616807341575,-5.94267621636e-05,0.0009768828749656,-0.0020050723105669
7.636194091796875,-0.0017114252940751,0.007247678706469,0.0481383002251386,0.0008918543462641,0.0016882140189409,0.0004333178221713
7.646174072265625,-0.0040245793409645,0.0066157009458635,0.0415530766159296,-0.0029358624015003,-0.0002928674221038,-5.5773271014e-06
7.656154296875,-0.00997643695008,0.0119731180594768,0.039012159961462,7.05801649019e-05,-0.0001836782321333,-0.0007866824744269
7.66613427734375,-0.0088740286661311,0.0119280824745073,0.0345212782829999,-0.0014238788280636,-0.0008118264377117,-0.001061646733433
7.67611328125,-0.0060430247575975,0.0120077327151317,0.043200843822956,0.0005718940519727,0.0003660898655653,0.0033906260505318
7.686093017578125,-1.64944770745e-05,0.0078352419366128,0.0451467171937227,-0.0008461202960461,0.0022124769166111,7.85888259997e-05
7.6960732421875,0.0020294600009918,0.0036396716766059,0.0487339280307292,0.0008042406989261,0.0019946303218603,0.0034634666517376
7.70605322265625,0.0008077361863106,0.0033457667639479,0.038857261660695,0.0014618795830756,5.22583723068e-05,-0.000687601044774
7.716033203125,-0.0028953195827081,-0.0032246154691558,0.045438978138566,0.0009114040876738,0.0021700039505958,0.003287433180958
7.726012939453125,0.0031315760239958,0.0072882664451841,0.0484317302137613,-0.0006501915631815,-0.0039614234119653,0.0025855558924376
7.7359921875,0.0013782843495719,0.0077095605971757,0.0460422047287225,0.0008811260340735,0.0002439748495817,0.0004622174892574
7.74597216796875,-0.0009828004922717,-0.0066448631082661,0.0454442388355731,0.0006321522523649,0.0021744444966316,0.0015092473477125
7.7559521484375,-0.0036763686914928,0.0020344741028267,0.045890229037404,-0.0003324446151964,0.0020884247496724,0.0020749026443809
7.76593212890625,-0.0057565177001059,0.0059946647043805,0.0443897613465785,-0.0011278360616415,0.001321343705058,-9.85027145361e-05
7.775912353515625,-0.0091809939897619,0.0110023459317162,0.0343622883290052,-0.0013278394471853,0.0002547483891248,0.0012210935819894
7.78589208984375,-0.002019504862558,0.0076574924832209,0.0478296726673841,-0.0013193718623369,0.0003452869132161,-0.0002872045442927
7.79587109375,0.0068538479501381,-0.001889713603584,0.045136780321598,0.0003056890564039,-0.0015865704044699,-0.0003668330609798
7.805851318359375,4.77663981728e-05,0.0057584995946381,0.0348135392278432,0.001899245660752,4.37377020716e-05,-0.0007564800325781
7.8158310546875,-0.0116391825305297,-0.0035911198271438,0.041097149541974,-5.7135475799e-06,-0.0007208557799458,-9.44181665545e-05
7.825811279296875,0.0002790909360162,0.0014261968782171,0.0568085134148597,-0.0019371120724827,-0.0003749709576368,-1.52985594468e-05
7.835791259765625,0.0068294989601708,-7.0416621398e-06,0.0521732548296451,0.0014488310553133,0.0009342394769191,0.0004978926153853
7.845771240234375,-0.0051899150596,-0.0020364011984318,0.0336199455291032,-0.0018132019322365,-0.0019563660025596,0.0006345669971778
7.855750244140625,-0.012067290015798,-0.0006568747398443,0.0488859037220478,0.0023224209435284,0.0011044042184948,6.22537045273e-05
7.865730224609375,-0.0096445746472105,0.0078766059934627,0.038855508095026,0.0024692483711987,-0.0008856179192662,-0.0012389234034344
7.875710205078125,-0.0059206587532535,-0.0013125530364457,0.0324199220895767,6.5479252953e-05,-0.0008395453914999,-0.0011049663880839
7.885690185546875,0.0030697628341615,0.006348510510195,0.0351133989572525,-0.001395929721184,0.0027898242697119,0.0015822309069335
7.895670166015625,0.0044798488277941,0.0042175446297973,0.0384071798056364,0.0023719104938209,0.0013991221785545,-0.0022955979220569
7.905650146484375,-0.0032246976675465,0.0024748382814694,0.0424468105852603,0.0002804656978696,-0.0018883747979998,0.0019147724378854
7.91562939453125,-0.0022760734395124,0.0029373138272203,0.0442436308741569,0.0001100234221667,0.0007574753835797,-5.35699364263e-05
7.925609375,0.0082464165533892,0.0035741047602612,0.0544195724517106,-0.001370406593196,0.001835523173213,-0.0004398809396661
7.935589111328125,-0.0001030219830572,0.0028409773132763,0.0409463428944349,0.0016474875155836,0.0019324626773595,-0.0008116582175716
7.945569091796875,-0.0043741599636152,0.0072015288766473,0.0390022230893373,-0.0012209963751956,-0.0011902088299393,-0.0009839726844802
7.95554931640625,-0.0071710241405293,0.0096841851383913,0.0433434671640396,0.0003614539164118,-0.0005720891058444,0.0005886239232495
7.965529052734375,-0.0029624117358587,0.0085812471314799,0.0446878675103187,-0.0004608127637766,0.0006806058809161,0.0006168077234178
7.975508056640625,-0.000473097404465,0.0039454040243756,0.0343617038071155,-0.0001090092118829,0.0014228289946913,-0.001359790447168
7.98548828125,-0.0080896002901718,0.0066100383900571,0.0418406613856554,0.0011767032556235,-0.0005385596305131,-0.0007404689677059
7.99546826171875,-0.0107086419484578,0.0059989116212353,0.0536620320826768,0.0006930731469765,-0.0006104651838541,0.0012853976804763
8.0054482421875,-0.0021838285787962,0.0087294964957516,0.0530599745362997,0.0003787484602071,-4.75877895951e-05,-0.0024343479890376
8.01542724609375,-0.0025170425885356,-0.0037394239903427,0.0464741664052009,0.0017433522734791,0.0009569572284817,-0.0018913293024525
8.0254072265625,-0.0004596351346932,0.0044331327423918,0.0300122764259576,0.0015261964872479,-0.0013019749894738,0.0009903290774673
8.03538720703125,-0.0041228520836681,0.0094917678388301,0.0445271239906549,0.0016497671604156,0.0018208473920822,-0.0019508660770952
8.0453671875,-0.0019529058997519,0.0107034360503777,0.0421311687648296,7.53276981413e-05,0.0002889921888709,0.0005593004170805
8.055346923828125,-0.0022193382835946,0.0040682997516822,0.0458732779026031,0.0029291710816323,-0.0013461885973811,0.0024408237077295
8.065327392578125,-0.0033175818490795,0.0060134059374686,0.0367494757264852,-0.0001706921029835,-0.002573650330305,0.0012502340832725
8.07530615234375,-6.57952452078e-05,0.0081940196458715,0.040343700826168,-0.0014886904973536,-0.0023752441629767,0.0015876565594226
8.0852861328125,-0.0066779251276515,0.0101479027931578,0.0497737924724817,0.0003586564562283,-0.0008878028020262,0.0008372491574846
8.09526611328125,-0.0049935339709743,0.0003189206229057,0.0514198061138391,-0.0002898232196457,0.0026523377746343,0.000488108722493
8.105246337890625,-0.0006942476081661,0.0117334184189327,0.0445370608627796,-0.001093907165341,0.0005387179553508,-0.0014275813009589
8.11522607421875,0.0034274536980316,0.0037356702638324,0.0506710335731506,-0.0004544822440948,0.0007352596148848,0.0006400969577953
8.1252060546875,-0.0025423962255008,-0.0002133961555082,0.0476776969760656,0.0010289034107699,-0.0006888685747981,-0.0010782283497974
8.135185302734374,0.0035439379508607,0.001530479236599,0.0464788425803184,0.0008275685831904,-0.0009663701057434,0.0003891733358614
8.1451650390625,0.000132047148142,0.0126195810031611,0.0431868152976036,-0.0003132041310891,-0.0007281508296728,0.0011931823100894
8.155145263671875,-0.0009212612970732,0.0101475648664403,0.037350364229083,-0.000571530777961,0.0020873434841632,0.0016909270780161
8.165125244140626,0.0058628276187926,0.0018528613250702,0.0559025044858455,0.0037554281298071,0.0020926902070641,-0.0007881950004957
8.175105224609375,-0.0021177958715707,0.0056940286568365,0.0559001663982868,-0.0001871155109256,0.0003467220813035,0.0017780270427465
8.185085205078124,-0.006326664004568,-0.0007275744890328,0.0418336471229791,0.0021231786813586,-0.0002994267269968,0.0008303112117573
8.195064208984375,0.0011720211877487,0.0049077097178902,0.043629882889986,-0.0023189741186797,-0.0009527001529932,0.0008564101881347
8.205044189453124,0.002868943032436,0.0029783216910436,0.04766951366961,-0.0017579719424247,-0.0007096221670508,0.0008357564802281
8.215024169921875,-0.0044195152089931,0.0057363425617571,0.0470715477764606,0.0020769799593836,-0.0013083014637231,-0.0009991615079343
8.225004150390625,-0.0063885502596385,0.0103550062051974,0.0446767615944147,0.0001473638694733,0.0003623077645897,0.0006563973147422
8.234984375,-0.0131799091665074,0.0078410414897371,0.0380915379852056,-0.0014492012560367,0.001978313550353,-4.74761691293e-05
8.24496484375,-0.0072543550424277,0.0065953157449606,0.0385392817527055,-0.0024196051526814,0.0008216649293899,-0.0018235353054478
8.254944091796874,-0.0092949209593236,0.0064754156923387,0.0427303037017583,-0.0012539394665509,-0.0020910343155264,-2.77657800324e-05
8.264924072265625,-0.0009716215111315,0.0051518298052251,0.0476700981914997,-0.001311661908403,-0.002080263569951,-0.0007524776738137
8.27490380859375,-0.0015074454208835,0.004787718333723,0.0389928707391023,0.001615951070562,0.0014561479911208,-0.0005293047288432
8.2848837890625,0.00142305507306,0.004292829222558,0.0292658419728279,0.0012611496495082,0.0008291471749544,-3.94376256735e-05
8.294864013671875,-0.0052725518417544,0.0012235139129683,0.0328588980287313,0.0025730226188898,-0.0020326860249042,-0.0017190932994708
8.30484375,0.0012471322505734,0.0129512697760947,0.0448310753732919,0.000284050067421,-0.0011022659018635,0.0013776529813185
8.31482275390625,-0.0039455958206206,0.0018006014148704,0.0416904392600059,-0.0003119654138572,-0.0001445934176445,-0.000631435716059
8.32480322265625,-0.0106613504743203,0.0044604317412711,0.0517167432337999,0.0016732284566387,-4.22419980168e-05,-0.0008313123253174
8.334782958984375,0.0018449885458685,0.0050269521833863,0.0393009137749671,0.0013637692900374,-0.0027109952643513,-0.0001844305370468
8.344762939453124,0.0091826014249585,0.0079237878697458,0.0451397029310464,0.0008386614499613,-0.0003600195050239,8.01438873168e-05
8.354742919921875,-0.002421180998627,0.0167180658305529,0.0424444724977016,0.0010927270632237,-0.000320604071021,0.0011360872304067
8.36472265625,0.0001930383540689,0.0091560422115959,0.0493254641830921,0.0013802229659631,0.001263459213078,0.0010368899675086
8.374701904296876,-0.0094740038532763,0.0006283792977221,0.0457353307366371,-0.0002152767265215,-0.002767501398921,-0.0015285330591723
8.384681884765625,-0.0069300367251969,0.0016131708176806,0.0403472079575061,0.0001500338548794,0.0047164158895611,-0.0021793423220515
8.39466162109375,0.0036369134639389,0.013366937904898,0.0431850617319345,-0.0008499831310473,0.0012385938316583,-0.0011510958429425
8.40464208984375,-0.0002558744572103,0.0020989907064009,0.0514139608949422,0.0002689152024686,0.0011399891227483,0.0018289269646629
8.4146220703125,0.0027337906117551,0.0058754039725754,0.0424386272788047,-0.0013446940574795,-0.0034587574191391,-0.0014915022766217
8.424601806640625,0.0002476180855184,0.0037394787892699,0.0382534505486488,-0.0004107299027964,-0.0024237465113401,0.0008806020487099
8.4345810546875,0.0003809256089851,0.00205812897305,0.0454378090947866,-0.00040060991887,-0.0004149246960878,-0.0010387380607426
8.44456103515625,-0.0025778511313721,0.0037798564654309,0.0460381130754947,0.0012713661417365,-0.0013983463868498,0.0002899190003518
8.454540771484375,-0.0077145016337744,0.0037747692983597,0.0547194321811199,-0.0014671625103801,-0.0004606479778885,-0.001442467328161
8.464520751953126,0.0056911608463153,0.0053325658001471,0.0481365466594696,0.0015465655596926,0.0007309271022677,-0.0007580495439469
8.474500732421875,-0.0009465784014202,-0.0025448256446048,0.0445452441692352,-0.0021435103844851,-0.0018185162916779,0.0016995153855532
8.484481201171874,-0.0031318865512497,-0.0001515007672831,0.0408072266846895,-0.000181058072485,-0.001829189248383,0.000667231506668
8.4944599609375,0.0056670493183657,0.001902015962731,0.0590659369528293,9.24485502764e-05,1.95773318409e-05,0.0019601962994784
8.50443994140625,0.0001649630370549,0.004335636317823,0.0454459924012422,-0.0001775449491105,0.0029336437582969,0.0007142995018512
8.514419921875,0.0016194178953766,0.0109555567810777,0.0478390250176191,0.0014427221613004,-0.0002011628821492,0.0001081640584743
8.52439990234375,-0.0003348945101723,0.0002053041805978,0.0547217702686786,-0.0008303599315695,-0.000535081140697,-0.0002581111912149
8.5343798828125,0.0019787892596796,0.0086789992843754,0.0439496163636446,-0.00096431694692,0.0001402962952852,-0.0015052694361656
8.54435986328125,-0.0059862530690617,0.017074733781116,0.0491881015390157,7.51334009692e-05,0.0001520989462733,-0.0009336215443909
8.5543388671875,-0.0041170433973893,0.011611719134869,0.0488911644190549,-0.0009342046687379,0.0008218837901949,-0.0002595755213405
8.56431884765625,-0.0029697182594798,-0.0007236472325865,0.0475455950289964,-0.0017741807969287,0.0002714311704039,-0.0008946229354478
8.574298828125,-0.0038482181270606,-0.0020290764085017,0.0460457118600606,-0.0006801541894674,0.0027369856834411,-0.0002695790317375
8.58427880859375,-0.0023954437691718,-0.0040124779112171,0.0476882183700799,5.70004340261e-05,-0.000449133105576,0.000382972852094
8.594259033203125,0.0001175619650632,0.0012601469957735,0.0463403108924627,-0.0001898746122606,0.0004366338253021,0.0014977720566093
8.604239013671876,-0.0089360975842922,0.0074673950049094,0.0415542456597089,0.0018270954024046,-0.0004934640601277,0.0027180826291441
8.6142177734375,-0.003039459027443,0.0006959372417535,0.0429027376592159,-0.0003066292847506,0.0011704787611961,-0.0005496161757037
8.624197998046874,-0.007379205264803,0.0025596852870192,0.0475374117225408,0.0014997998951002,0.0016302522271871,0.0001277592673432
8.634177734375,-0.011431677259691,-0.0015992884228006,0.0381114117294549,-0.000430725631304,-0.0013735266402363,-0.0002730464620981
8.64415771484375,0.0045139337604865,0.0085538933336734,0.0378127210438251,0.0010354814585298,0.0004867119714617,0.0013217149535194
8.654137939453125,-0.0058465523374266,0.0074536130747292,0.0390080683082342,0.0007132390746846,0.0009572925046086,-0.0008572834194637
8.664117919921875,-0.0067641421063803,0.0120639016154687,0.0376613298743963,0.001156207290478,0.0001087682321667,-0.0014478556113317
8.674096923828126,0.0006486914333887,0.0142219016332644,0.0309282222270965,0.0026110922917723,-0.0020015211775898,2.54050573857e-05
8.684076904296875,0.0064036747635342,0.0080923585028387,0.0488847346782684,-0.0001568396110087,0.0016567762941122,0.0015177968889474
8.694056884765626,0.0057282049210742,0.0073649392774328,0.0454395626604557,0.0023515918292105,5.83473592996e-05,-0.0001863599027274
8.704036865234375,-0.0031200682492926,0.0040647469545714,0.0437929644972085,0.0003451845841482,-0.0012656636536121,0.001380851957947
8.714016845703124,0.0043376273455098,-0.0015900639367289,0.0553179825961589,0.0001052337465807,-0.0022438429296016,0.0007004143553785
8.723996826171875,-0.0075185772028751,0.0087742763523943,0.0385620781064033,-0.0005573676316998,-0.000897554680705,0.0005475711077451
8.733975830078125,-0.0048872971175238,0.0089373122938442,0.0464928711056709,-5.18996384926e-05,-0.0008173938840627,-0.0006391335045918
8.7439560546875,-0.003462616342958,0.0047568482714239,0.047093175086379,-0.000950364570599,0.0003290018066763,-0.0014385166577994
8.75393603515625,-3.65874170325e-05,0.0009353902871254,0.0469441220045089,-0.0005692662089131,-0.0007628938183188,0.0001569831947563
8.763915771484376,4.91911702789e-05,0.0022376137258019,0.0476946481108665,-0.0001846109516918,0.0002570105716586,0.0002499658730812
8.77389599609375,-0.0095041615295223,0.007969079183042,0.0478460392802953,0.0008289881516247,-0.0014087967574596,-0.0011367420665919
8.7838759765625,-0.0049463338283821,0.0085051679542753,0.0499397966891527,0.0012915869010612,0.0008026892319321,-0.0022420897148549
8.793854736328125,-0.0023351832156069,0.0078575724994298,0.0360223304957151,0.0010130204027518,0.0022226860746741,-0.0012426053872331
8.803834716796874,0.0014870054210536,0.0075261029222048,0.0459001659095287,0.0016534298192709,0.0001251436769962,-0.0006637226324528
8.81381494140625,0.0060816762675531,0.0032667193115223,0.0470955131739377,0.0013279914855957,-0.0001992294564843,9.44793209782e-05
8.823794921875,0.0101623149110004,0.0071057403519749,0.0405132121741771,-0.0044351038523018,-0.0002685897052288,0.0016450280090793
8.83377490234375,-0.0020436163905076,0.0039876083314418,0.0438075775444507,-0.000745294149965,-0.0013461047783493,-0.0022559703793376
8.8437548828125,-0.0109749282018281,-0.0046857557965908,0.040666356909275,-0.0003948971279896,0.0005350662395358,-0.0011202690657228
8.85373388671875,-0.0141032528228126,-2.73629309609e-05,0.0390203432679176,-0.0006814532680436,0.0007068403065204,-0.0020273418631404
8.8637138671875,0.0007718063564039,-0.0014334760023746,0.0420136798650026,0.000117787043564,-0.0018957499414682,0.0007153189508244
8.87369384765625,-0.0024833412483334,0.0017934501548763,0.0518926843225955,0.0002048723399639,0.0006068227812647,-0.000192286359379
8.883673828125,-0.0022878917414695,0.0037464930519461,0.0544341854989528,1.31337437778e-05,-0.0002059275284409,0.0015804966678842
8.893654052734375,-0.0022338599992915,0.0041721437186468,0.0468009141415357,-0.0003282835241407,0.0014071492478251,-0.0002192675601691
8.903634033203126,-0.000860891145654,0.0040605274371802,0.0571241552352905,-0.0007457840256392,0.0014894409105181,0.0004267702752258
8.91361279296875,-0.0031765111442655,0.0022807587477844,0.0512865351229906,0.0013892721617594,-0.0007164552807807,-0.0004723128804471
8.923593017578124,-0.0005163520243018,0.0052671358811203,0.0423076943755149,-0.0023647733032703,0.0007190210744738,0.0004144480335526
8.933572998046875,-0.0093105934524908,0.0019003719949163,0.0399152462810277,0.0014818964991718,-0.0010138973593711,0.0010823687771335
8.943552734375,-0.0021388386595994,-0.0037520734093617,0.0292903918921947,0.0022354491520673,0.0001495461910963,0.0020340781193226
8.95353271484375,-0.0010260003131814,-0.0001398103294894,0.034375732332468,0.0003022605087608,-0.0005106506869196,0.0010945149697363
8.963512939453125,-0.0060461117638275,0.016160623744037,0.0452981083631515,-0.0020531518384814,0.0016342466697096,-0.0010751541703939
8.97349169921875,-0.0015398681194521,0.0029378526833374,0.041557752791047,-0.0017271807882934,-0.0027780784294009,0.0002827916468959
8.983471923828125,0.001442782686837,0.0071906695559155,0.0442553213119506,-0.0017041524406522,-0.000889778137207,0.0002660225145518
8.9934521484375,0.0008663893046788,0.0082212273132056,0.0502384873747825,-0.0015984249766916,0.0010319594293832,-0.0013803436886519
9.003431884765625,-0.0055694524290971,-0.0001737765311729,0.0526326890349388,-0.0006471883971244,0.0014932416379451,3.16840887535e-05
9.013411865234374,-0.0022351203746162,0.0004783033025451,0.0494873767465353,-0.000450647145044,0.0012410404160618,-0.0016192094190046
9.023391845703124,-0.0046425285762175,0.0048152639277745,0.0541255579411983,-1.39472540467e-05,0.001021945849061,0.0008161516161635
9.033370849609376,-0.0060769270271994,0.0074110525746364,0.0469452910482883,0.0002667498774826,2.35270708799e-05,0.0018071137601509
9.043350830078126,-0.0031531850676052,-0.0010720314119942,0.0520347231417894,-0.000145987549331,-0.0025355843827128,0.0014539470430463
9.053330810546877,-0.0034412630276754,0.0032848394901026,0.0469482136577367,-0.0014477407094091,0.0013888496905565,-0.0010709959315136
9.063310791015626,8.27463800087e-05,-0.0031242603672202,0.0391670582622289,-0.0003273050533607,0.000836843624711,-0.000468418962555
9.073291015625,-0.0062304736210964,0.0034748639031779,0.0435059642493724,0.0008279741741716,0.0009963670745491,-3.9636433939e-06
9.08327099609375,0.0008996339871548,0.0058350445627234,0.0355728331625461,-0.0002588148927316,-0.0007018726319074,0.0016508570406585
9.093249755859375,-0.0057387628477066,-0.0034486882823053,0.0397615170240402,0.0002575720427557,0.0021727429702878,-0.0033508255146443
9.10322998046875,-0.0040892420750111,0.0137382371690124,0.0399111546277999,0.0004296811530366,-0.000146746635437,0.0004757891001645
9.1132099609375,-0.0069873564030043,0.0020875285974703,0.0427566071867942,0.0010248975595459,-0.0003536744043231,0.0009708707802928
9.12318994140625,0.0021403182306326,0.0009055066055152,0.046945875570178,-0.0004734770045615,0.0010096989572048,0.0004399082390591
9.133169677734376,0.0056793060117401,0.0009415642995852,0.0524824669092893,-0.0020210398361086,-5.52991405129e-05,-4.82491959701e-05
