seconds_elapsed,ax,ay,az,gx,gy,gz
0.069251953125,0.0107478597139939,0.0021197503666393,0.056485272809863,-0.000976248004008,-0.0005628978833556,-0.0004157643998041
0.079231201171875,0.0092222393156029,0.0019147293138317,0.042417584490776,0.0011155758984386,0.0007118508219718,-0.0005792507436126
0.0892099609375,0.0033479769873432,0.0004250752779655,0.0353840325921773,0.0010383441112935,0.0028884522616863,-0.0002098703116644
0.099189208984375,0.0004448576906695,-0.0008929850506596,0.043316579157114,0.0035314327105879,-0.0012059370055794,-0.0017795539461076
0.10916796875,0.0046944048939272,0.0077087842790409,0.0440671052634716,-0.0011610569199547,-0.0018927659839391,0.0008202237659133
0.119147216796875,0.0138269383657723,0.0076036251378245,0.0370388140618801,-0.0012249047867953,0.0013750791549682,0.0023778905160725
0.1291259765625,-0.0001499115983955,-0.0025162388709373,0.0446697473317384,0.001157026621513,0.0019817473366856,0.0011504393769428
0.139105224609375,0.007266593469493,0.0041394926912151,0.0564911180287599,-0.0021307780407369,-0.0008915103971958,0.0010352116078138
0.149083984375,0.0062107460073195,0.002257916728314,0.0520002363502979,-0.0005999929271638,0.0010414123535156,-0.0027046655304729
0.159063232421875,0.0021048815910704,-0.0046442456092685,0.0522948353826999,-0.000588324968703,0.0014845859259366,0.0006225160323083
0.1690419921875,-0.0054980859596282,0.0009780877845361,0.050498599615693,-0.0014317480381578,-0.001288297586143,-0.0001825575309339
0.179021240234375,-0.0039050994134508,0.0102795663488097,0.0398743297487497,-0.0007766440976411,-0.0010201912373304,-0.0027281488291919
0.189,-0.0067186041979119,0.0024971688442863,0.040168344259262,-0.000922585313674,0.0019649462774395,-0.0017949772300198
0.198979248046875,0.00336385040991,-0.0068724430527538,0.0477928477883338,-0.0026029613800346,0.0037489933893084,0.0015167202800512
0.2089580078125,-0.0005352028552442,-0.0072326911998912,0.0435983187079429,0.0025028511881828,0.0006346926093101,-0.0009562912164255
0.21893701171875,0.0093214801726862,-0.0040124870443716,0.0470405681163072,0.0004450265550985,0.0011697215959429,0.0001964938710443
0.228915771484375,0.0017967289573512,0.0001807816606946,0.0441939465135335,0.0002966885222122,0.0019843829795718,-0.0017199169378727
0.23889501953125,0.0018868549262173,-0.0086817574970424,0.0450900185704231,-0.0004766762722283,-0.0022035343572497,0.0013666538288816
0.248873779296875,-0.0006525090919807,-0.0017993410395458,0.0450900185704231,0.0009699529036879,0.000618084333837,0.0003615768509916
0.25885302734375,0.0009706899293698,-0.0026220555992797,0.0516723195701837,-0.0006078432779759,0.0019128862768411,-0.0008657771395519
0.268831787109375,0.002255158515647,-0.0031799452103674,0.0552665446698665,0.002235347405076,0.0014433711767196,-0.0017632624367251
0.27881103515625,0.003994257267937,0.0005912986903451,0.0545171876072883,-0.0015083331381902,0.0006758524104952,-0.0003057584108319
0.2887900390625,-0.0019544768023304,0.0068724795853719,0.0456897380292415,-0.0005147077608853,-9.38009470701e-05,0.0014284921344369
0.29876904296875,0.0069390054829418,-0.0032281865325756,0.0414998851239681,0.0001259798882529,0.0008418867364525,0.0013843458145856
0.308748046875,0.0051500031743198,-0.0036848625252023,0.0471831914573907,-0.0038115037605166,-0.0009474912658333,-0.002639157930389
0.31872705078125,0.0034402035817503,-0.0011669431538321,0.0367068056285381,0.0019755624234676,-0.0008250828832387,-0.0011355534661561
0.3287060546875,-0.0054821577381342,-0.0015230265825055,0.0355126274079084,-8.51915683597e-05,0.0004489738494157,0.0007475677412003
0.33868505859375,0.0032910957009531,-0.0011641301422379,0.0548193854242563,0.0019498496549203,-0.0005399994552135,-6.84695114614e-05
0.3486630859375,0.0002272146183066,0.0032371552903205,0.0473404278457164,-0.0013575301272794,-0.0016899527981877,4.63127216789e-05
0.35864208984375,0.0020515257023274,-0.0008734948989003,0.0413566772609949,-3.46259912475e-05,-0.0005632536485791,0.002689603716135
0.36862109375,0.0150897796421311,-0.0116967031377367,0.0459948584556579,0.0009653909364715,-0.0002593863755464,-0.0008931470802053
0.37860009765625,0.0091567363313399,-0.0013354498548433,0.0458475589394569,-0.000139451411087,-0.0007154792547225,0.0001632652711123
0.3885791015625,0.0054137686770409,-3.75372651033e-05,0.0413572617828846,-0.0004739444120787,-0.0006558252498507,0.0020080369431525
0.39855810546875,0.0048908955804072,-0.0011438728054985,0.0413578463047742,-0.0010504847159609,0.0013035358861088,0.0008744680671952
0.408537109375,0.0035114056544378,0.0009507979188114,0.0437491253554821,0.001025183009915,0.0005088495090603,0.0024518582504242
0.418515869140625,-0.0027979236228391,0.0075221208668313,0.0537771828949451,0.0003412178484722,-0.0021733110770583,-0.0006331619806587
0.428494873046875,-0.0052258996884338,0.0059594929262995,0.0449468107074499,-0.000230296573136,0.0005612224340438,0.0022829994559288
0.438473876953125,-0.0013763481208123,0.0020080701530911,0.0419493824571371,-0.0009834881639108,-0.0008627483621239,-0.0002755586174316
0.448452880859375,-0.0008809658193029,-0.0078677194341085,0.0431441451996564,-5.0427624955e-06,-2.62493267655e-05,0.0003034125838894
0.458431884765625,-0.0007951141667552,5.24060406722e-05,0.0426969859540462,-0.0013427189551293,-0.0031557120382785,0.0005952194333076
0.468410888671875,0.0067220565303228,0.0006125972067005,0.0510766917645931,0.0018690533470362,0.0005106618627905,-0.001710012787953
0.478389892578125,0.0032199849598109,-0.0060193516210652,0.0458434672862291,0.0001353353727608,-0.0003324942663311,-0.0012912177480757
0.488369140625,0.0103679752846248,-0.0055319699629209,0.0485369441539049,-0.000533118029125,0.0018283938989043,-0.000784151838161
0.498347900390625,0.0108662071303464,-0.0011945435468107,0.0533259319961071,-0.0029507984872907,-0.0025661792606115,-0.002527285600081
0.5083271484375,-0.0010609620287083,-0.0036801315511576,0.0365694429844617,-0.0024629072286188,-0.0013440549373626,-0.0006739918608218
0.518305908203125,0.0061834196089766,-0.0080665299418382,0.0403109676003456,0.0014506878796964,-0.0021185064688324,-0.000983766047284
0.52828515625,0.0041234000729396,-0.0032715690165758,0.0410603246629238,-0.0010814457200467,-0.0020146435126662,-0.0017960302066057
0.53826416015625,-0.0058843453308567,-0.0100296832409687,0.0395639486253261,0.0005195604171603,0.0006790943443775,-3.835215466e-06
0.5482431640625,-0.0017714849182404,-0.0083611837731674,0.0328325945436954,0.0010814873967319,-0.0010815216228365,0.0006387855391949
0.55822216796875,-0.0029361265171319,-0.0030284444430842,0.0530330865293741,-0.0012241969816386,0.0008124317973852,-0.0003230930014979
0.568201171875,0.0023638613208197,-0.0028437355259433,0.0468967757314443,-0.0005434930790215,0.0003498401492834,-0.0004764910845551
0.57818017578125,-0.0050561143457889,0.0056401978440582,0.0486930114984512,-0.0002996619441546,-0.0020523378625512,-0.0037534642033278
0.5881591796875,-0.0005731054465286,-0.0020758746922947,0.0404646968573331,-0.0010589291341602,0.0002829879522323,-5.77957252971e-05
0.59813818359375,0.0005546382080763,-0.0004991816937923,0.0521311692535877,-0.0013365118065848,0.0019808448851108,0.0002248441451229
0.6081171875,-0.0005603190301917,-0.0009273074453696,0.048835050317645,-0.0017016311176121,-0.0009757969528436,0.0020839967764914
0.618094970703125,0.0014235117307864,-0.0064687028237618,0.0471872831106185,-0.000916366581805,-0.0009707193821668,0.0007514768512919
0.628073974609375,0.0077480933761224,-0.0021884316886775,0.051377136015892,-0.0019185140263289,2.6654452085e-06,0.0002947447646874
0.638052978515625,0.005956552050542,0.0037696181992068,0.0410550639659166,0.0036829945165663,0.0014741597697138,-0.0011966777965426
0.648031982421875,0.0073039480715058,-0.0006189538822509,0.0430021063804626,-2.14626779779e-05,-0.0018476005643606,-0.0005340832867659
0.658010986328125,0.0002792553327977,-0.0094610347738489,0.049284547650814,-0.0031205094419419,-0.0018329247832298,0.0034735477529466
0.667989990234375,0.0079757281195372,-0.0076482679971493,0.0521264930784702,0.0004979274235665,-0.0028435941785573,0.0019701933488249
0.677968994140625,0.0078579652250744,-0.0089237130267545,0.0422527493178844,-0.0004220625851303,0.0001774569973349,0.0001233600050909
0.687947998046875,0.0073162595638073,-0.0083328709941357,0.0485410358071327,-0.0005368448328226,-0.0010689022019505,-0.001582128345035
0.697927001953125,0.0061742681881412,-0.0058132528560236,0.0470481669008731,0.0008988325716927,-0.0001255692914128,0.0011407792335376
0.707906005859375,-0.0014905490850098,-0.0030762839064933,0.0488473252773284,-0.0010732382070273,-0.0027431910857558,-0.0014137248508632
0.717885009765625,-0.0020063713863492,-0.0034946737153455,0.0452525156557559,-0.0012241296935826,0.0020731771364808,-0.0016579187940806
0.727864013671875,0.0011315430468879,-0.0073276577406562,0.056768765926361,0.0013937576441094,0.0080431848764419,-0.0025154566392302
0.737843017578125,-0.0082516589840874,0.0044768531531095,0.1189624795109033,-0.0021948441863059,0.018355593085289,0.0009752878104336
0.747822021484375,0.0340711964279413,0.0013838190412148,-0.0729740507960319,0.0009538112208247,-0.0227401778101921,7.70035549066e-05
0.757801025390625,0.0025365144739858,0.004870035455469,0.064085226419568,-0.0004123475519008,0.0065035885199904,8.3695835201e-05
0.7677802734375,0.0058656588966958,-0.0014484087100252,0.0530260722666978,0.0006531832041218,-0.0057900957763195,-0.0012492162641137
0.777759033203125,0.002020527775865,-0.0027901421751827,0.0467459690839052,0.0018895716639235,-0.0023072818294167,-0.0008643835317343
0.78773828125,-0.0015371829720214,-0.0028001886451616,0.049596097818017,0.0009204474044963,0.0028818873688578,-0.0024276589974761
0.797717041015625,0.0110293800691142,-0.0053754642269574,0.050789691516757,-0.0033396608196198,-0.0015508038923144,0.0004605872381944
0.8076962890625,0.0164347462439909,-0.0065794697218574,0.0412134693980216,0.0002683898201212,-1.44261866807e-05,0.0001649763726163
0.817675048828125,0.0032571386324241,-0.0052832558988593,0.0424129083156585,0.0006094904383644,-0.0010980423539876,-0.0011786475079134
0.827654296875,0.002437090953812,-0.0084159827003255,0.05363748216331,0.0020590489730238,-0.0017265491187572,-0.0004944815300405
0.837633056640625,-0.0026169045001268,-0.0090109163861721,0.0492985761761665,0.0011612714733928,0.0003270572051405,-0.0021444333251565
0.8476123046875,-0.006859711435344,-0.0091620335609652,0.0401695133030414,-0.0017450362211093,-0.0009102476760745,0.0002500147093087
0.8575908203125,-0.0060203745343722,0.0015367445806041,0.0449555785357952,-0.0005468540475703,-0.0001195976510643,-0.0022261613048613
0.867570068359375,0.0056022221875376,0.008860803858377,0.0471960509389638,-0.0041109626181423,0.0014852238819003,0.0003965198120567
0.8775478515625,0.0083587726203724,0.0077741593991406,0.0467477226495742,-0.0009418345871381,0.0004545077681541,-3.93737573176e-05
0.887527099609375,0.0085122644153423,0.0062467123698443,0.0371644862681627,-0.0013117477064952,0.0013559879735112,-0.0005429774755612
0.897505859375,0.0003716645902954,0.0048144510770216,0.0479354711294174,-0.0019550998695194,-0.0004806481301784,0.0035158491227775
0.907485107421875,0.0005640453572385,-0.0101068218640983,0.048236499902606,0.0006878210697323,0.000315636396408,0.0006974256830289
0.91746484375,-0.0003826061094179,-0.0011340637975372,0.0470411526381969,0.0003369131591171,0.0017730835825204,0.0005184825859032
0.927444091796875,0.0051842890364117,-0.0034082375409081,0.0388110844314098,-0.0016455439617857,-0.0015470795333385,-0.0014285545330494
0.937422607421875,0.0081491484576836,0.0063479077219963,0.0516834254860877,0.0024564429186284,0.0002673361450433,0.0012984337517991
0.94740185546875,0.0170489326195791,-0.0019214513155631,0.0448036028444766,-0.000473034218885,-0.001926309429109,0.000265926180873
0.957380615234375,0.0132569564580917,0.007075272148475,0.0461526793658733,0.0014789449051022,-0.0003218781203031,-0.0006488210055977
0.96735986328125,0.0140252374168485,0.0049024033551104,0.0410667544037103,0.0003068877849727,0.0010248823091387,-0.0006783820572309
0.9773388671875,0.0101951942672953,-0.0014608845991082,0.0483954898566007,-0.0004773455439135,-0.0013694185763597,0.0001637006062082
0.98731787109375,0.0086919500974938,0.0036796018281951,0.0425578697443008,-0.0001231451169587,0.0009699016809463,-0.0010613534832373
0.997296875,0.0043781420189887,-1.96545485407e-05,0.0419604883730411,0.0013086372055113,0.0014635324478149,0.0005863638943992
1.00727587890625,-0.0121641379863955,-0.0026133791024796,0.0504898317873477,0.0009688178543001,0.0001884112134575,0.0003530709655024
1.0172548828125,-0.0027921332028694,-0.0115539884651079,0.0469014519065618,0.0014174747047945,-0.0025093648582696,-0.000566987437196
1.02723388671875,0.0014137027228251,-0.0068769730973988,0.0488514169305562,0.0004411599365994,0.0006456822156906,-0.0001075921172741
1.037212890625,-0.0024030790863558,-0.0086945439133793,0.052736733931303,-0.0035247006453573,0.001410343684256,6.16333563812e-05
1.04719189453125,-0.0013263714992441,-0.0103963976615108,0.0404629432916641,0.0001416732557117,0.0010875687003135,-0.001498979050666
1.0571708984375,0.0040116833267733,-0.0026691826766356,0.0522854830324649,-0.0010604474227875,-0.0013159168884158,0.0005336683243513
1.06714990234375,0.010763130348362,0.0019443937997333,0.049745150899887,-0.000820230343379,-0.0022986233234405,-0.000251431541983
1.07712890625,0.0070209664116613,0.0082703819508664,0.0542383706659078,0.0036739637143909,-0.0015607578679919,-0.0004931719158776
1.08710791015625,-0.0039183790201321,0.0021153481861576,0.0481055669993162,-0.0001322260941378,0.0003181025385856,0.0001345351629424
1.0970869140625,0.0038298422201536,0.004549461731594,0.0490033926218748,0.0002719486365094,-0.0003179227933287,0.0002942582941614
1.10706591796875,0.00858423367301,0.0023139394981786,0.0466074373960494,0.0012514592381194,0.0020826505497097,-0.0010019021574407
1.117044921875,0.0087214136539958,-0.0017650734437629,0.0421171402394771,0.000287192990072,-0.0001415992155671,-0.0001913035812322
1.12702392578125,0.0160801606526598,-0.0037362821851857,0.039579146194458,0.0008515168447047,0.0002730544656515,0.0002334706077817
1.137001953125,0.0079249112477526,-0.0038273762684315,0.0524468110740184,0.0008212109096348,-0.0012669889256358,0.0008517699316143
1.146980712890625,0.0067572739741764,-0.0030014285719953,0.0440665207415819,0.0010073659941554,0.001910694874823,0.0012520430609583
1.1569599609375,0.004594871775899,0.0074022390805184,0.0410737686663866,0.0003569913096725,0.0002622995525598,-0.0009422286530025
1.166938720703125,0.0079913275474682,-0.0024752858060412,0.0455617277354001,0.0007330296793952,-0.0003787232562899,0.0006399553385563
1.17691796875,0.001141626049485,0.0056014184699393,0.0430184729933738,-0.0013034491566941,-0.0015084873884916,0.0017441248055547
1.186896728515625,-0.0008856419944204,-0.0033774588101543,0.0484071802943944,0.0015258931089192,-0.0020701475441455,0.002423231024295
1.1968759765625,0.0063110463103279,0.0027686975283548,0.0454150127410888,-0.0025643669068813,0.000845936127007,0.0010161523241549
1.206854736328125,0.0040474487598985,-4.66156207025e-05,0.0482581272125244,0.0004314230754971,4.35262918472e-05,0.0009940480813384
1.216833984375,-0.0030648491970263,0.0040231180362403,0.0491547837913036,-0.0001325306366197,0.0001468155533075,0.0008560338756069
1.226812744140625,0.0067513008911162,-0.0014267631337977,0.0485574024200439,-0.0020579961128532,0.0013617500662803,-0.0027173957787454
1.2367919921875,0.0018723149442113,-0.0052822147192433,0.0484036731630563,-0.0014283641939982,-0.0002612778916954,0.0008866047137416
1.246770751953125,0.0046157136345282,0.0016017726408317,0.0428618211269378,-0.0036257384344935,-4.23658639192e-05,0.0003936536377295
1.25675,0.0067457844657823,-0.0013481449396349,0.0506418074786663,0.0007220248226076,-0.001856630668044,-0.0008095390512607
1.266728759765625,-0.0004210018910467,-0.0033350079079158,0.0394213252842426,-0.0016042464412748,-3.50279733538e-05,0.0013819761807098
1.2767080078125,0.0089434771731495,-0.0038289106383919,0.0455541289508342,-0.0012942539760842,0.0001100469380617,-0.0015966065693646
1.286686767578125,0.0021815818227827,-0.0080361713361926,0.0407639720648527,0.0019745100289583,0.0023308573290705,9.84955404419e-05
1.296666015625,0.0111383203363046,-0.0069466408001258,0.0461515103220939,0.0006866826443001,-0.0017764512449502,-0.0008264152565971
1.306644775390625,0.0141301042971201,-0.0134067036597058,0.047494157102704,-0.0003831092035397,0.0019447840750217,-0.0001939145149663
1.3166240234375,0.0011546864604577,0.0028843963298946,0.0394108038902282,0.0029319804161787,0.0004984494298696,0.000874925404787
1.326602783203125,0.0073316580623388,0.0058621700316667,0.0480932920396327,-0.0003852532827295,-0.0021934732794761,0.0010493624722585
1.33658203125,0.0039303434525616,0.0035118440458551,0.0522848985105752,0.0022355616092681,-0.000319187529385,0.0005741129280067
1.346560791015625,-0.0037746414341963,-0.0007454663387499,0.053335284346342,0.0011655034031718,-0.001912822946906,0.0001051302679115
1.3565400390625,-0.0110745891840197,-0.0014492124276235,0.0486982721954584,-0.0001458931947126,5.41536137461e-05,-0.0026095483917742
1.366518798828125,-0.0109592739749699,0.003079991967231,0.0440595064789056,-0.0014260746538639,0.0004925103858113,-0.0018457536352798
1.376498046875,-0.002769117653463,-0.0035305122137069,0.0389677362978458,-0.0019501519855111,-0.0001634573563933,0.0006577440653927
1.386475830078125,-0.003851798323635,-0.0060681774651631,0.0356751244932413,0.00143152999226,0.0013923617079854,0.0022817398421466
1.396454833984375,0.0029750520217232,-0.0045993470216169,0.0442050524294376,0.0007159154629334,-0.0007704067975282,-0.0008143776212818
1.406433837890625,0.0041851401975378,-0.0040811135674826,0.0477946013540029,-0.0004012806457467,0.0028221970424056,-0.0016431532567366
1.416412841796875,0.0032656507324427,-0.0091758611569181,0.0436041639268398,3.160641063e-05,-0.000409523025155,-0.0006571515696123
1.426391845703125,-0.0001771831978112,0.0002492620533332,0.0465963314801454,-0.0010538980131968,-0.000498472712934,0.002506683813408
1.436370849609375,0.0043696481852792,0.0053352600807324,0.0503413632273673,0.0004046702524647,-4.7609210014e-06,0.0019709020853042
1.446349853515625,0.0076006111968308,0.0058962184317409,0.0503396096616983,-0.0001396799343638,-0.0002324609085917,0.0014025835553184
1.456328857421875,0.005236366283521,0.0062838112435303,0.0528828644037246,-0.0004016641760244,7.8922137618e-05,-0.0002537678810767
1.466307861328125,0.0011666326265782,0.0064255395354703,0.0576741903334856,0.0002864965936169,-4.97084110975e-05,-0.000349375361111
1.476286865234375,-0.0031175840312615,0.0030311113242059,0.0470516740322113,0.0032390351407229,-0.0006127031520009,0.0009678493952378
1.486265869140625,-0.0017034977159462,-5.98038958385e-05,0.0461561864972114,0.0007812036201357,0.0009106248617172,0.0002477306115906
1.496244873046875,0.0018493541937321,-0.0041239845948293,0.0488514169305562,-0.0012533548288047,0.0018364991992712,0.0011264092754572
1.50622412109375,0.0002636559048667,-0.0129782491145655,0.0494499673455953,0.0010236477246508,0.0017523430287837,0.0011309366673231
1.516202880859375,-0.0037195502460934,-0.0146597907270304,0.050644145566225,0.0009092759573832,0.00188775267452,-0.0005602745222859
1.52618212890625,0.0004591419443488,-0.0010706614388152,0.0443587816864252,-0.0016862407792359,0.0002251416444778,-0.0006588115356862
1.536160888671875,0.0107788941730745,-0.0079985062069259,0.04166413577497,0.0004972667666152,-0.0007089478895068,-0.0019840197637677
1.54614013671875,-0.0042467707242816,-0.000396853830479,0.0485480500698089,0.0027399146929383,-0.0009909765794873,-0.0013227567542344
1.556118896484375,0.0025806458766572,0.0071075304502621,0.047503509452939,0.0007992818718776,-0.0007641147822141,0.0003480549785308
1.56609814453125,-0.0026079174760729,0.0034636027236469,0.0418166959881782,-0.0011845068074762,-0.0014544064179062,-0.0027169771492481
1.57607666015625,0.0004267557783983,0.0015345708898268,0.050194648233056,-0.0023552062921226,0.0004655756056308,-0.0012186291860416
1.586055908203125,0.0017088862771168,-0.007909805010166,0.0471978045046329,-0.0008127034525386,-0.0015648184344172,0.0006455834954977
1.59603466796875,-0.0068823068596422,-0.0103922146767377,0.0412117158323526,3.88484913855e-05,0.0016813976690173,0.000946077692788
1.606013916015625,-0.0110317729556001,-0.0025263401398435,0.0518348166555166,-0.0006469154031947,-0.0005764300003647,-0.0013253323268145
1.61599267578125,-0.0046729967797175,0.0006252009599469,0.044803018322587,-0.0002217619912698,0.0015615914016962,-0.0015520909801125
1.625970703125,6.78045392036e-05,-0.0086066464342176,0.0440542457818984,0.0004123366670683,0.0003631692379713,-0.0014285203069448
1.635949951171875,-0.0061563672052696,-0.003779737734422,0.0497393056809902,0.0022510625422,0.0012122998014092,-0.0024440255947411
1.6459287109375,0.0086437818405218,-0.0007519508784636,0.0540729509711265,-0.0004224846488796,8.87122005224e-05,-0.0017236404819414
1.655907958984375,0.0083701525309123,-0.0022214206428267,0.0504828175246715,0.0010768950451165,-2.27959826588e-05,0.0004679862176999
1.665886962890625,0.0109215905793942,0.0026004100230522,0.0338736280292272,0.000377815333195,0.000521020963788,0.0020054292399436
1.675865966796875,0.0054984330195002,0.0063174212521873,0.0474859737962484,-0.001960519934073,0.0026518460363149,0.0021166303195059
1.685844970703125,0.0043861791949719,0.0071235134706832,0.056308162677288,0.0001670795027166,0.0026230840012431,0.0014234095579013
1.695823974609375,-0.0010387319305911,-0.0014447554482147,0.0407440983206033,0.0005288223037496,-0.0003346903249621,-0.0016728912014514
1.705802978515625,-0.0053268758448772,0.0017310615763068,0.0401473014712333,-0.0001974217011593,1.44504010677e-05,0.0011165037285536
1.715781982421875,0.0036128567349165,-0.0102769542666152,0.0539092848420143,0.0014563131844624,0.0018295245245099,0.0005456212675198
1.725760986328125,0.0023891966914758,-0.0075106130921281,0.0530120437413454,-0.0016630473546683,0.0004939492791891,0.001196231576614
1.735739990234375,-0.0012537629207596,-0.0114100134171545,0.043736265873909,0.0009092738619074,-0.0031408807262778,0.0021554203703999
1.745718994140625,-0.001940484809596,-0.0068145388530567,0.0518166964769363,-0.0004590582684613,0.0010168468579649,-0.0005159964784979
1.755697998046875,-0.004670421230141,-0.0084149232544004,0.0402969390749931,0.0004798598820343,2.07023695111e-05,-0.0003728667215909
1.765677001953125,0.0083972232009284,-0.0005564100400544,0.0447825600564479,-0.0025617363862693,0.0003013992682099,0.0007163661066442
1.77565576171875,0.0003301452698186,-0.0042167043795809,0.0364057768553495,-0.0002042246633209,-0.0012257490307092,-0.0013784317998215
1.785634765625,0.0059349612732417,0.0020245098312385,0.0432891066282987,0.0003563706995919,0.0037490362301468,0.0002644723572302
1.79561376953125,-0.0025166224634274,0.0107255200180225,0.0555576365709304,0.0005681066541001,-0.0009039500728249,-0.0015837817918509
1.8055927734375,0.0019553353188559,0.0029694990637712,0.0420908367544412,-8.25035385787e-05,0.0002915430814027,-0.0005336974281817
1.81557177734375,0.0061210766961798,0.0031972068724222,0.0450812507420778,0.0017523084534332,-0.0006068972870707,0.0002863024710677
1.82555078125,0.0093501034789718,0.0010150953266769,0.0440372946470975,0.0011251339456066,0.0004549054428935,0.0011212035315111
1.83552978515625,0.0060143283860757,-0.0091411186370998,0.0531616813451051,-0.0006847170880064,-0.0009914739057421,-0.0019737833645194
1.8455087890625,0.003682341774553,0.0009844079274684,0.0441840096414089,0.0006971971597522,-0.0019414229318499,-0.0002858718798961
1.85548681640625,0.0091046225516125,3.59663625247e-05,0.0471790998041629,0.0017031580209732,-0.0014350097626447,-0.0015820177504792
1.865466064453125,-0.0023221958698704,-0.0031029527177102,0.0396972196161746,0.0012496216222643,-0.0005700150504708,-2.30032601393e-05
1.87544482421875,-0.0091395477345213,0.0018190503870137,0.0361035790383815,-1.59404007717e-05,0.002689192071557,-0.0015513993566855
1.885424072265625,-0.003525324581936,0.0015998546783812,0.040891982358694,0.0014176391996443,0.0007107304409146,-0.0017545985756441
1.89540283203125,0.0002356353867799,-0.0003710618020966,0.0419417836725711,0.0013304637977853,-0.0001421701163053,-0.000615777389612
1.905382080078125,0.0031404534501954,-0.0046576348138041,0.056612114059925,0.0011578908888623,-0.0030761752277612,-0.0026642808225005
1.9153603515625,0.0020442557113245,0.0094275160967372,0.0563157614618539,0.000859557534568,0.0001063225790858,0.000335651129717
1.925339599609375,-0.0009424136829562,-0.0056375857618637,0.0397065719664096,-0.0028347796760499,-0.0006774459034204,-0.0025693248026072
1.935318359375,0.0126207043811678,0.0004074482897296,0.0501788661420345,-0.0006584299262613,0.0012327544391155,-0.0019613227341324
1.945297607421875,0.0007356025318615,-9.37974969856e-05,0.049127895784378,0.001582886558026,0.0017885565757751,-0.0012238933704793
1.9552763671875,-0.0005524279846809,0.0023420513478107,0.0534662172496318,-0.0004712388617917,0.000700837932527,-0.0002932402712758
1.965255615234375,0.0070205828191712,-0.0010030212963931,0.045832361370325,-0.0011364964302629,-0.0013308878988027,0.0004143615951761
1.975234375,0.0097953812947496,-0.0036385026328265,0.0479272878229618,-0.0005061830161139,-0.0016190502792596,0.0003124363429378
1.985213623046875,0.004948379654996,-0.000396159710735,0.0542132362246513,0.0003502895124256,-0.0013703117147088,0.0003244205436203
1.9951923828125,0.0024047595867887,-0.0001597571389749,0.0438899951308965,-0.0008002075483091,0.0018506431952118,0.0004039458872284
2.005171630859375,0.0053643765773624,0.0017607625948265,0.0543634583503007,0.0011241926113143,-0.000476692803204,0.0011030256282538
2.015150390625,0.0026787907551974,-0.0020044716902077,0.0519651650369167,-0.0005034254863858,-9.0355053544e-05,-0.0009303457918576
2.025129638671875,0.0022059673453681,0.0034732656011357,0.0375987860321998,0.0005517189856618,-0.0003135278820991,-0.0012576482258737
2.0351083984375,-0.0054037222070619,0.0056707939117215,0.053911622929573,-0.0007745237089693,-0.000468255020678,-0.0003948864759877
2.045087646484375,-0.0025503968688659,0.0015137655638158,0.0401420407742261,-0.0011777263134717,0.0022023627534508,-0.0007136669009923
2.05506640625,-0.0013076485324651,-0.0051273712174035,0.038346389529109,-0.0020776544697582,-0.0031879385933279,0.0003807960893027
2.065045654296875,0.0040357948547229,0.000483819727879,0.0399935722142457,0.0012965706409886,0.0019285259768366,-0.0014559860574081
2.0750244140625,0.0001528342078439,-0.0013030454225838,0.0491220505654811,-0.0009176184539683,-0.0003029257059097,-0.0014067641459405
2.08500341796875,-0.0014275668513961,-0.0070582114158198,0.040293431943655,0.0007852066773921,0.0003687236458063,-0.0019010468386113
2.0949814453125,0.0048554589408449,-0.0012485752889886,0.0420884986668825,0.0002804056275635,0.0018184706568717,0.0003463409666437
2.10496044921875,-0.0021391857194714,0.0064162785167805,0.0390975001573562,-0.0013561069499701,0.0001425435766577,0.0006323644192889
2.114939453125,0.0093883713964372,0.0034534283895045,0.0530143818289041,0.00022896414157,0.0022127302363514,-0.0035175634548068
2.12491845703125,-0.0018778861684724,0.0039192375366576,0.0426888026475906,0.0009946229401975,-0.0003004949539899,-0.0010485468665137
2.1348974609375,0.0093809552749618,-0.0026843254468403,0.0444873765021562,-0.0006483361357823,0.0009366003796458,0.0003444662434048
2.14487646484375,0.0038793073850683,0.0071531414239667,0.0428413628607988,-0.0002446009311825,-0.0011574430391192,-0.00019082914514
2.15485546875,0.0006102225865237,-0.0033654761114157,0.0443400769859552,-0.0001679982524365,-0.0002479124814271,-0.0011277594603598
2.16483447265625,-0.0049402876800857,0.0035619119989685,0.0343149420559406,-0.0010758698917925,0.0005694115534424,0.0002070167975034
2.1748134765625,0.0057788025971502,0.0088474511864595,0.0426940633445978,-1.41632044687e-05,0.0007691644132137,0.0002678194723557
2.18479248046875,0.010568722021114,-0.0003660933660343,0.0386526789993047,8.8102184236e-05,-0.0008726743981242,0.0013234965736046
2.194771484375,-0.0019006825221702,-0.002288421464432,0.0408966585338115,0.0009047745261341,0.0019319504499435,0.0026949397288262
2.20475048828125,-0.0037954467602074,0.0007482062851078,0.0456809702008962,-0.0010891341371461,0.0004349881783127,-0.0030167417135089
2.2147294921875,0.0006821370452642,0.002562580497004,0.0462795206159353,0.0014345798408612,0.0003129970282316,0.0005831430898979
2.22470849609375,0.0051869376512244,0.0054135129487141,0.0429880778551101,0.0006750462343916,3.17674130201e-05,-0.0009335271315649
2.2346875,0.0003034216596744,0.0070183360631577,0.0393996979743242,0.0011083403369411,-0.0018296800553798,-0.0009300813544541
2.24466650390625,0.01362027334515,0.0002143551367335,0.0474812976211309,0.0001330906525254,0.0019938200712203,0.000387650768971
2.254645751953125,-0.0002194514369592,0.0039277496366761,0.0426911407351493,-0.0027651591226458,-0.000787079334259,0.0011538768885657
2.26462451171875,-0.0051099816911853,0.0081409468849189,0.0393979444086551,-0.0015544861089438,-0.0015362268313765,-0.0004248449695296
2.274603759765625,-0.0054711796863935,0.0090559793706052,0.041790977025032,0.0009944742778316,-0.000165800563991,-0.0001557863433845
2.28458251953125,0.0025867650901898,-0.0082248805750161,0.0479243652135133,-0.0006870455108582,1.28978863358e-05,-0.0013243814464658
2.2945615234375,0.0056500251183286,-0.0049637598872184,0.0534586184650659,-0.0006653941236436,-0.0005791224539279,0.0018825586885213
2.30454052734375,0.0042218554787337,-0.002359477406647,0.0461263758808374,-0.0006864330498501,-0.0011293310672044,-0.0001765973574947
2.31451953125,0.0045045996765606,-0.00352775400104,0.0404401469379663,0.0004408123204484,0.001570638269186,0.0004723178863059
2.32449755859375,0.0027125651606358,-0.0074116462296806,0.0393868384927511,-0.0030575161799788,0.0004710191860795,0.0007711244979873
2.334476318359375,0.0034911300513893,-0.0048259588517248,0.0410316830903291,-0.0006122313789092,-0.0011564232409,0.0001149264571722
2.34445556640625,-0.0006656243018805,0.0025245317752473,0.0410328521341085,-0.0006654945900663,-0.002200648188591,-0.0017362368525937
2.354434326171875,-0.0028248846950009,0.001936301824823,0.0507575428128242,0.0007089478895068,0.0004557268694043,0.000588969036471
2.36441357421875,0.0037361177884042,0.0094686700910329,0.0482142880707979,-0.0013315661344677,0.0005420139059424,-0.0005375480977818
2.374392333984375,-0.0049935887699015,-0.002257240874879,0.0359445890843868,0.0007445368682965,0.0016677509993314,-0.0023629046045243
2.38437158203125,-0.0011576456025242,-0.0025507621950469,0.0555459461331367,-0.0008797250920906,3.65646556019e-05,-5.2078976295e-06
2.3943505859375,0.0018079992700368,0.0006187164202332,0.053743865147233,-0.0011281927581876,-0.0001368755474686,-0.0008303441572934
2.40432958984375,0.0033681795251555,-0.0062000419502146,0.0452110146015882,-0.0025255533400923,-0.0001882743090391,-0.0009288811124861
2.41430859375,-0.0007246244801208,-0.0095162355598062,0.0476046317398548,3.95633978769e-05,-0.003125861287117,-3.28351015923e-05
2.42428759765625,-0.0047197585308924,-0.0083936978032812,0.0447644398778677,-0.0012137201847508,-0.0001947861164808,-0.0006919674342498
2.4342666015625,0.0061354340150952,-0.0139156030299142,0.0378799410611391,0.0014290831750258,0.0013356180861592,0.0002225712523795
2.44424560546875,-0.0059363129801116,-0.0022632322242483,0.0564320813179016,-0.0014726971276104,0.0016834270209074,4.86668432131e-05
2.454224609375,-0.0072089449981227,0.0088921305784024,0.0398228918224573,-0.0003029660438187,-2.605561167e-05,-0.0022268428001552
2.46420361328125,0.0082494122280739,-0.001541913946066,0.0467056370735168,-0.000661960162688,0.0024887677282094,0.0007268692716024
2.4741826171875,0.0119435357719659,0.0036557094959542,0.0447609327465295,-0.0003726176801137,-0.0008822828531265,-0.0010304409079253
2.484161376953125,0.0050425972770899,0.0125979810927063,0.0401215825080871,-0.0012453355593606,-0.0004676282405853,0.0011173984967172
2.494140625,0.0068783613368868,-0.0045975203907117,0.0371299994766712,-0.001929389196448,0.0008917059749364,5.36688021384e-05
2.504119384765625,-0.0024708836255595,0.0027978688239119,0.0511935961425304,-0.0009562701452523,0.0024549812078475,0.0009407676989212
2.5140986328125,-0.0001213613573461,-0.0003787336518988,0.0459510193139314,-0.0023129964247345,0.0015991749241948,0.0004590196476783
2.524077392578125,-0.0022170915275812,-0.0094440653727389,0.0444528897106647,0.0012234151363372,0.0008883774280548,-0.0001316694542765
2.534056640625,-0.0025816505236551,-0.008923183303792,0.0416068526297807,-0.0012124310014769,-0.0009630545973777,-0.0005591125809587
2.544035400390625,-0.0022474136006087,-0.0083872132635675,0.0511859973579645,0.001125558046624,-0.0005228342488408,-0.001801743521355
2.554013671875,0.0033952501951716,-0.0116656321460381,0.044002807855606,-0.0010637384839355,0.0008833734318614,0.0012058271095156
2.563992431640625,0.004452084038034,-0.00372636357937,0.0377186130195856,-0.0005915600340813,-0.000879107043147,-0.0003459968720562
2.5739716796875,0.0035553178614005,-0.003302165084239,0.047298342269659,-0.0001752388780005,-0.0034366343170404,-0.0005054741050116
2.583950439453125,-0.0030470943446271,-0.0032653036725707,0.0540320344388484,0.0020847194828093,0.002222316339612,-0.0001739105500746
2.5939296875,-0.0046138687373138,0.0004696450720541,0.0495411527603864,7.59987160563e-05,-0.0004102541133761,0.0005363802192732
2.603908447265625,-0.0039402437920682,-0.0037945517110638,0.048943186867237,0.0016251595225185,-0.0003902809694409,-0.0003137008170597
2.6138876953125,-0.0052084005643613,-0.001834412352927,0.041762919974327,-0.0002329492126591,-0.0024243779480457,0.0001149372546933
2.623866455078125,0.0022758359774947,0.0028954109142534,0.05223872128129,0.0023489855229854,0.0010699555277824,-7.5681600719e-06
2.633845703125,-0.0014409377896226,-0.0037167737671174,0.0459533574014902,8.24540620669e-05,0.0004473635926842,0.0013299770653247
2.643824462890625,-0.0002004910081624,-0.0079483103896491,0.0522352141499519,-0.0001010377891361,0.0004106117412447,0.0009390250197611
2.6538037109375,0.0069839771358296,-0.0115790133085101,0.0537304211437702,-0.0010404306231066,0.0014391047880053,-0.0012794857611879
2.663782470703125,0.0029033932913094,-0.0094253972048871,0.0483440519303083,0.0007167230360209,-1.44485384225e-05,-0.0002184824261348
2.67376171875,-0.0033196459420025,-0.009186254686769,0.0475987865209579,-0.0015203487128019,-0.0009075636044144,0.0001652488426771
2.683740234375,-0.0155219605143181,0.0034653197566978,0.0398176311254501,-0.0038237166590988,0.0004407949745655,0.0003559312026482
2.693719482421875,0.0054106268718838,-0.0003557546351104,0.0404144279748201,-0.0006743389531038,0.0006785774603486,-0.0001251393114216
2.7036982421875,0.014465893856436,0.0006703370096161,0.0505886159867048,-0.0036509539932012,-0.0022319909185171,0.0010716852266341
2.713677490234375,-0.0031775523238815,0.0001817132424563,0.0386211148172616,-0.0003004142199642,-0.0017378544434905,1.4985416783e-05
2.72365625,-0.0066572476658038,-0.0030915362745523,0.0458066424071788,-0.001505228341557,-0.002610838972032,-0.0004433446156326
2.733635498046875,0.0060755205214023,-0.0089428195860236,0.0511935961425304,-0.0009402780560776,0.0008340654894709,-0.0010871131671592
2.743614501953125,0.0036177155731245,-0.007815897915326,0.0565811343997716,0.0005676037399098,-0.0010655671358108,0.0013616634532809
2.753593505859375,-0.0075240205629728,-0.0069972750088199,0.0543336477339267,0.0010223841527476,0.0006103171035647,-0.0008724611252546
2.763572509765625,0.0001475552445277,0.002027797766868,0.0462526326090097,0.0022106869146227,0.0017344374209642,-0.0007869736873544
2.773551513671875,0.0049838893597945,-0.0080874631320126,0.0492471382498741,-4.52767126262e-05,-0.0004070783033967,0.0002594311372376
2.783530517578125,0.0007852868924848,-0.0013776998276822,0.0495434908479452,-0.0040333606302738,0.0002352762967348,0.000150507868966
2.793508544921875,0.0026796492717228,0.0016517492623999,0.0405628965348005,0.001327795907855,-0.0007326900959014,-0.0001510419533587
2.803487548828125,-0.0036741402017883,0.0012632979340851,0.0465513232946395,0.0003829062916338,-0.0015478832647204,0.0014263482298702
2.813466552734375,-0.0051338557571172,-0.0022625198381952,0.0459521883577108,-0.0020513432100415,-0.0018149688839912,0.0003357786918058
2.823445556640625,0.000165675423108,-0.0084207502069883,0.0471469511002302,3.73739749193e-05,0.0017281007021665,-0.0019297724356874
2.833424560546875,-0.0068032320077531,-0.0076622599898837,0.0549257684081792,0.0002340074861422,0.000789014622569,2.14447500184e-05
2.843403564453125,0.0019606873474083,-0.004808350129798,0.0404132589310407,-0.0001199266407638,-4.90825623273e-05,-0.0014619360445067
2.853382568359375,-0.0061650985009968,-0.0021794263983145,0.0411626159936189,-0.0010988247813656,-0.0023496123030781,-0.0016647488810122
2.863361572265625,0.0012989355030469,0.0014312383795157,0.0454997684150934,-0.0030985926277935,0.0001199366524815,0.0012988166417926
2.873340576171875,-0.0008626081787049,0.0010527239233255,0.0543289715588092,-0.0010322735179215,-0.002098785713315,0.0001723003224469
2.8833193359375,-0.0002035962807014,-0.001751574641373,0.0463999321252107,0.0024873602669686,-0.0005877083167433,-0.000645822728984
2.89329833984375,-9.91129929199e-05,-0.0123082774311304,0.0438625226020812,0.0020708814263343,-0.0011972859501838,-0.0012587865348905
2.90327734375,0.0082819993234239,0.004050407901965,0.0513449873119592,-0.0009017388219945,-0.0001221681013703,-8.4323692135e-06
2.913255859375,0.0009219736831262,-0.0030396234242245,0.0401209979861974,0.0006145983934402,-0.0003330754116177,0.0004019088228233
2.923234619140625,0.0009024652650579,-0.0001097439847886,0.0468529365897178,-0.0009651887812651,-0.0007533216848969,-0.0023693763650953
2.9332138671875,0.0139398789546452,0.0073073638712987,0.0615191753238439,0.0021191430278122,-0.0008895555511116,-0.0002810481819324
2.943192626953125,0.0002058247704058,-0.0040724918696098,0.0449099858283996,-0.0005591981462202,-0.000594743527472,-0.0020856061019003
2.953171875,0.0046641558861359,-0.004123856730666,0.0356312853515148,0.0023132765199989,0.0011047162115573,0.0008425347623415
2.963150634765625,-0.005336173396185,-0.0058394467432051,0.0314431860119104,0.0004935384495183,-0.000231391750276,0.0007852767012082
2.9731298828125,-0.001831307080388,-0.0085396821452304,0.036977439263463,-5.1961978897e-06,-6.19981437921e-05,-0.0025864131748676
2.983108642578125,0.0018559300649911,-0.0082389821656048,0.0441623823314905,0.0001314239343628,-0.0001818407326936,2.61479290202e-05
2.993087890625,-0.0015583353579044,-0.0049870676975697,0.049549336066842,-0.0001723371096886,0.0013875281438231,-0.0025534075684845
3.003066650390625,0.0078205192915163,-0.0048877903078682,0.04505845438838,0.0002007717266678,0.0004532905295491,6.84744154568e-05
3.0130458984375,-0.0021490860589779,-0.0041399493489414,0.0381751246154308,0.0006684393156319,0.000653781928122,0.0012984692584723
3.02302392578125,0.0063533328157849,-0.0065270819474942,0.0549316136270761,-0.0012807282619178,-0.000528129749,0.001161316409707
3.0330029296875,0.0123024870111607,-0.0102036150357685,0.0501408722192049,-0.0020343926735222,-0.0021369159221649,0.0005772522999905
3.04298193359375,0.0053066915733739,-0.0035657113912515,0.0532826773762702,-0.0012516896240413,0.0004487466067075,0.0002243834605906
3.0529609375,0.0092000274837948,0.0006311740430071,0.0537286675781011,-0.0008374627796001,-0.0020728912204504,-0.0003149242838844
3.06293994140625,0.0021563195173628,-0.0005290471090935,0.0486415735721588,-0.0009170912671834,0.0005138367414474,0.0001916089677251
3.0729189453125,-0.0061971376070752,0.0067308608912862,0.0516302339941263,-0.0005986053729429,0.0004676878452301,-0.0007487497059628
3.082897705078125,0.0051373994210734,-0.0023113639486022,0.0499848048746585,0.0009963617194443,0.0008205566555261,-0.0003719123778864
3.092876708984375,0.0062212491350248,-0.0085752101163379,0.040558220359683,-0.0010340492008253,0.0009094644337892,-8.08402401162e-05
3.102855712890625,-0.0087323551731184,-0.0067489445372484,0.0471405213594436,-0.0007461615605279,-0.0009448947384953,-4.40886215073e-05
3.112834716796875,-0.0012295600612647,-0.0066021564777009,0.0404068291902542,0.0009265496628358,0.0018354607746005,-0.0016208532033488
3.122813720703125,-0.0051332895015366,-0.0002016965845599,0.0441471847623586,0.0023223124444484,-0.0009560650214552,-0.0033226129598915
3.132792724609375,-0.0104040512450039,-4.04964071698e-05,0.0522270308434963,0.0006422642618417,0.0005200058221817,0.0009643295779824
3.142771728515625,-0.0023143778895959,0.0013615341441705,0.0469879611462354,0.000125344726257,-0.0009266231209039,0.0011763172224164
3.152750732421875,-0.004052143201325,-0.0087930358517915,0.0420516737878322,0.0021126153878867,-0.0002187434583902,-0.0025606732815504
3.162729736328125,-4.79490612633e-05,-0.0030421259085647,0.0465413864225149,0.0002502668648958,0.0005373284220695,-0.0010458672186359
3.172708740234375,0.0048399691107682,-0.0085762330296449,0.0323217224121093,-0.0025323976296931,-0.0003648707643151,0.0008809402934275
3.18268798828125,-0.0006320508258417,-0.0116464525215327,0.0422018959134817,0.0010229224571958,-0.0009995019063353,-0.0024227111134678
3.192666748046875,0.0048512759560719,-0.0070132032303139,0.0465396328568458,-0.0001018772600218,0.0018952246755361,0.0005029063904657
3.20264599609375,0.0046019408375024,-0.0074471011355519,0.0414502007633447,0.0014613983221352,-0.0003367708995938,-0.001513106515631
3.212624755859375,-0.0016016995755955,-0.0046834268421866,0.0444458754479885,0.0010866911616176,-0.0004871077835559,-0.0025524301454424
3.22260400390625,-0.0011570062817074,-0.0022803660221397,0.0534276388049125,-0.0014425128465518,-0.0005965633317828,-0.0024131471291184
3.232582763671875,-0.0010620397409424,0.0020065723157487,0.0435527260005474,8.90585361048e-05,0.000701711513102,-0.0018558208830654
3.24256201171875,-0.0063292578204534,0.0059806818448007,0.0525292286604642,-0.0007951109437271,-0.0007078992202877,5.02035836689e-05
3.252539794921875,0.0038238874034024,0.0022404176042415,0.0457984591007232,0.0007166492287069,-0.0042138271965086,-0.0017459979280829
3.262518798828125,0.0063952722613699,0.0020014394829049,0.0498439350992441,-0.0004325047484599,-0.0007676966488361,0.0002404539554845
3.272498046875,0.0007493935951963,-0.0026506606392562,0.0525379964888095,-0.0006860682042315,0.0011791698634624,-0.002561863977462
3.2824765625,0.0016632935697212,-0.00359813408982,0.0393657957047224,1.78052578121e-05,-0.0011375145986676,-0.001457184785977
3.292455810546875,-0.0010486870690248,0.0007731397969648,0.0492430465966463,-0.0003411194193176,0.0017023226246237,-5.65035443287e-05
3.3024345703125,0.0038962767861783,0.001261197308544,0.0481967524141073,0.0013768858043476,0.0005979100242257,-0.0010368131333962
3.312413818359375,-0.0011747794004157,-0.0008979534867219,0.0504401474267244,-0.0017819904023781,0.0001262258738279,-0.0018277183407917
3.322392822265625,0.0028992651054635,-0.0086589246107265,0.0471469511002302,0.0022007669322192,-0.0012596836313605,0.0009022881276905
3.332371826171875,0.0005371756166219,-0.0114461807090789,0.043853754773736,-0.0018576768925413,0.0002611698582768,0.0003214531461708
3.342350830078125,0.0046194947605021,-0.0020724223598837,0.0501385341316461,-0.001130633871071,0.0006151041015982,0.0009779223473742
3.352329833984375,-0.0029111199400387,-0.0017478665806353,0.0480430231571197,0.0021074595861136,0.0003237538039684,8.13701481092e-05
3.362308837890625,-0.0093282387070357,-8.20157276466e-05,0.0475976174771785,0.0001002351054921,-0.0013433843851089,0.0022222853731364
3.372287841796875,-0.0085196988031268,0.0065268810180947,0.0380202263146638,-0.0006220078212209,0.0005738055333495,0.0006058817962184
3.382266845703125,0.0019015410386957,0.003463292196393,0.0460977343082427,0.0008536496898159,-0.0014616483822464,0.0012224037200212
3.392245849609375,7.5074530206e-06,-0.0049731670363806,0.0431055667549371,-0.0011845000553876,0.001031276769936,0.0008338618208654
3.402224853515625,0.0003350406406447,-0.0011706512145698,0.0564221444457769,-0.0023704057093709,-0.0011911317706108,-0.0003046395431738
3.412203857421875,0.002814180637896,-0.0024474662173539,0.0511854128360748,-0.0030475973617285,-0.0011724270880222,-0.0005738770123571
3.422182861328125,0.0068029032141901,-2.74542625062e-05,0.0480430231571197,-0.0008246568031609,-0.0008105030283331,0.0003664851537905
3.432161865234375,0.0001428973357193,-0.0046137226068414,0.0345721316874027,-0.0027537769638001,0.0020048273727297,0.0015593584394082
3.442140869140625,0.0012855097658932,-0.0088672335991635,0.0511795676171779,-0.0008312409045174,-0.0005813678726553,-0.0023869136348366
3.452119873046875,0.0042210517611354,-0.00597838028986,0.0463917488187551,-0.0015597576275467,-0.0033899061381816,-0.0009534648270346
3.462098876953125,0.0061477089747786,-0.00973174147401,0.048189738151431,0.0011635910486802,-0.0026290407404303,0.0012668124400079
3.472077880859375,0.005538217040617,-0.0016943645614199,0.0434007503092288,-0.0005459219100885,0.0024625184014439,-0.0031321463175117
3.482056884765625,-0.0010257080522365,0.0007769574555568,0.0579138443082571,-0.0002116952091455,0.0010233465582132,-0.0004122600657865
3.49203466796875,-0.0046922860020771,-0.0022529848248697,0.0469914682775735,0.0020898371003568,-0.00178983528167,-0.0025792829692363
3.502013916015625,0.0005845584223046,-0.0021215039323084,0.0504337176859378,-5.02790790051e-05,0.0001987470313906,0.0024676737375557
3.51199267578125,0.0068509618733078,-0.0067757412126287,0.0426519777685403,0.0005443014670163,0.0007245764136314,0.0006585393566638
3.521971923828125,0.0038632147667929,-0.0068001998004503,0.032771804267168,0.0025848154909908,-0.0002485429868102,0.0008620049338787
3.53195068359375,0.0073326627093367,-0.0074382967745885,0.0508773698002099,-0.0010654077632352,0.000101663172245,0.0008316100575029
3.541929931640625,0.0036252047598361,0.0001346774966455,0.0457891067504882,-0.0013916450552642,0.0002044616267085,-0.0001489659043727
3.55190869140625,-0.0001257270052097,0.0047556518281809,0.0484819990962743,0.0006202986696735,-4.20408323407e-05,-0.0004849052638746
3.561887939453125,0.0062435522983781,-0.0026718130251392,0.0484849217057228,-0.0004252583603374,-0.0002569574862718,-0.0014859875664114
3.57186669921875,0.0049762540426105,-0.0034213344844989,0.0555173045605421,-0.0028509902767837,-0.0001093735918402,0.0008271114202216
3.581845947265625,0.008111519861035,-0.0036990189147181,0.0513274516552686,0.0016580077353864,0.0021535139530897,9.847045294e-05
3.59182470703125,-0.0025876966719515,-0.007309537562076,0.0405541287064552,0.0015288201393559,0.0008858013898134,0.0009328700834885
3.601803955078125,0.0009874766673892,-0.0005345635344274,0.046692193070054,-0.0014453982003033,-0.0002548303455114,-0.0011619724100455
3.61178271484375,-0.004910586661566,0.0085381843078881,0.0472948351383209,0.0001221474958583,-0.0008561639115214,-0.0014462070539593
3.621761962890625,-0.0022975546189583,0.002229512617737,0.0419125575780868,-0.0001881107455119,-0.0046269339509308,0.0011905886931344
3.63174072265625,-0.0010245207421481,-0.0092476842841133,0.0426601610749959,-0.0015685842372477,-0.0004563340917229,-0.000580558204092
3.641719970703125,-0.0009389248179271,-0.0037525392002426,0.0487935492634773,0.0013752739178016,-0.0008880328387022,-0.0002870778553187
3.65169873046875,0.005057886177767,-0.0085952482573688,0.0562742604076862,-0.0009887759806588,-0.0008648764342069,-0.0003336435183882
3.661677978515625,0.0027446042667143,-0.0029166728979907,0.0484948585778474,-0.0004734542453661,0.0003239586949348,-0.0004873079014942
3.67165673828125,0.0006150631584227,0.0037900947316549,0.0577712209671735,-0.0014523940626531,0.000975688919425,0.0003264467231929
3.681635986328125,0.003862538913358,-0.007117558653932,0.0531318707287311,0.0026470096781849,-0.000120467506349,0.0003269793523941
3.69161474609375,0.0068206580665893,-0.0102800960717722,0.0434077645719051,-0.0008867301512509,-0.001734503544867,-0.0021064111497253
3.701593994140625,0.0029856099483557,-0.0073716978117823,0.0378735113203525,0.0029008174315094,0.001750242896378,0.0015114931156858
3.71157275390625,-2.89703661575e-05,-0.007754541383218,0.0429652815014123,0.0003279105294495,0.0002392567694187,0.0014957068488001
3.72155078125,0.002713332345616,-0.0098251371121965,0.0396715006530284,-0.0001362783950753,0.0011324817314743,0.0006972910487093
3.73152978515625,0.0088093476657755,-0.0064361705273389,0.0480494528979063,-0.0014584780437871,-0.0008210828527808,-0.0003289322485215
3.7415087890625,0.0078535265119746,-0.0089187263243831,0.0517944846451282,-0.0015676675830036,-0.0026738438755273,0.0003576306917238
3.75148779296875,0.0030017025666311,-0.0083482694926671,0.052992169997096,0.0032653855159878,0.0015326784923672,-1.48576655192e-05
3.761466796875,0.0048585459470748,-0.0076081003835424,0.0450619615197181,-0.0007823529886081,-0.001142201013863,0.0022118112538009
3.77144580078125,-0.007178896919731,-0.0031422070158645,0.0476069698274135,-0.0025762366130948,-0.0007478669285774,0.0005592366214841
3.7814248046875,-0.0015843100493773,-0.0003878120074979,0.0476069698274135,-0.0007069638231769,0.0005309833213686,-0.0010714168893173
3.79140380859375,0.0047258960107341,-0.0070814278946258,0.0434147788345813,0.0011347305262461,-0.001007973216474,-0.0010410988470539
3.8013828125,-0.004775434240885,-0.0049735688951797,0.0546422752916812,-0.0030496283434331,-0.0020197080448269,-0.0003119253087788
3.81136181640625,0.0087979677552357,-0.0085444861845113,0.0453647438585758,-0.002127113752067,-0.0010885978117585,0.0002948713954538
3.8213408203125,0.0098578338054008,-0.0063916920647956,0.0435679235696792,-0.0005308151012286,-0.0020627817139029,0.0024357866495847
3.83131982421875,0.0042596850047819,0.0011561294988729,0.0426700979471206,-0.0003521488397382,0.0005731405690312,-0.0013303277082741
3.841298828125,0.0039625104228034,-0.0052177529145963,0.0486561866194009,-0.0005721260095015,0.0001054899767041,-0.001613954314962
3.85127783203125,0.0056713419009931,-0.0104535529425367,0.0507528666377067,-0.0009664647514,-0.0020087379962205,-0.0022931320127099
3.8612568359375,0.0087064900794997,-0.0120388128399848,0.042525721040368,-0.0029784827493131,-0.000646797940135,0.0006113112322054
3.871236083984375,0.0095170940763317,0.0006829224965535,0.0465612601667642,-0.0014014699263498,0.0024795494973659,0.0009816128294914
3.88121484375,0.0030757907161489,0.0016421594501473,0.0413186833381652,0.0020878035575151,0.0017618276178836,0.0032687354832887
3.891194091796875,0.0006051993515342,-0.0037478082261979,0.0494032055944204,0.0023844165261834,-0.0020970236510038,-2.02339942916e-05
3.9011728515625,0.0053041160237975,-0.0104058778759092,0.0446212320148944,0.0024288913700729,-0.0028472365811467,-3.64792758773e-05
3.911152099609375,0.0062069466150365,-0.0027134784760884,0.0455237338125705,0.0025305275339633,-3.50642949342e-05,0.0004775651032105
3.921130859375,0.0066074537073262,-0.0046845776196569,0.0456716178506612,0.0004500660579651,0.0006251335144042,0.0001169731112895
3.931110107421875,0.0028480463748797,-0.0074011979009024,0.0525514404922723,-0.0007040693890303,0.0003333557397127,-0.0006977979792281
3.9410888671875,0.0105418157478794,-0.0027978688239119,0.0459650478392839,0.0002679844037629,-0.0005718525499105,0.0011789315612986
3.951068115234375,-0.0054220250487327,0.0007423975988291,0.0546469514667987,0.0012924710754305,-0.0003669811412692,-0.0014491364127025
3.9610458984375,0.0016146503887139,-0.0068728266452439,0.0571907907307147,0.0010455958545207,0.0009941598400473,0.0003239962388761
3.97102490234375,0.0060358643644489,-0.0127165294384583,0.0471668248444795,-0.0014444324187934,-0.0011034747585654,0.000680391152855
3.98100390625,0.0009844079274684,-0.0042276458987034,0.0435761068761348,-0.0016369789373129,0.0011690007522702,-0.0002882005355786
3.990983154296875,-0.0026986827657558,-0.0070118697897531,0.0468669651150703,0.0016084264498203,0.0011860812082886,-0.0009534951532259
4.000962158203125,-0.002795110611245,-0.0029426475894637,0.0405804321914911,0.0008640729356557,0.0008923346176743,-0.0012975755380466
4.01094091796875,-0.0020539185888133,-0.0061324200741015,0.0476122305244207,-0.0003106087679043,-0.0003959191963076,-0.0009288587607443
4.020919921875,-0.001368639738392,-0.0073188351133838,0.0506038135558366,2.04221578314e-05,0.0008656196296215,-0.0002585410838946
4.03089892578125,-0.0021404826274141,-0.0015154825968667,0.0465589220792055,0.0014179438585415,0.0021390207111835,0.001543034100905
4.0408779296875,0.0076454732518643,0.0037086452595889,0.0396732542186975,-0.0004766288620885,-0.0001856526359915,-0.0023627579212188
4.05085693359375,0.0004229563861154,0.0056982481742277,0.0462555552184581,-0.0014521437697112,-0.0016937311738729,-0.0019217781955376
4.0608359375,-0.0017830109592527,-0.0086492799995467,0.0609182868212461,0.0007441651541739,-0.0002204710617661,-0.0001515751064289
4.07081494140625,-0.004635057655815,-0.0034282026167027,0.0425157841682434,-0.0007177456282079,0.0012018717825412,-0.0008661325555294
4.0807939453125,0.001903038876038,-0.00215463901693,0.0368272171378135,-0.001447185408324,-0.0006186654791235,0.0036207612138241
4.09077294921875,0.008485833066143,-0.0136289681082591,0.0311427417606115,-0.0001103454851545,-0.0015109675005078,0.0010435211006551
4.100751953125,-0.0058958348392508,-0.006911679084599,0.0592740267455577,-0.0019985265098512,0.0004429938271641,0.0010200852993875
4.11073095703125,0.002263835012447,-0.0160119359883479,0.0464046083003282,0.0003346567391417,0.0003505190834403,0.0010936722392216
4.1207099609375,-0.0013762933218851,-0.0106815164795145,0.0456546667158603,-0.003708554431796,0.0002623684704303,0.0011906112777069
4.13068896484375,0.0031632863365113,-0.0081299870994873,0.0434083490937948,0.0009426355827599,-0.0008278861641883,-0.0002719071926549
4.14066796875,-0.0038894634529016,-0.0036049474230967,0.0432592960119247,-8.93393880687e-05,-0.0003394624218344,-0.0002559282002039
4.15064697265625,-0.0004496617299504,0.0022664288283325,0.0504424855142831,-0.0022428319789469,2.8945505619e-06,-0.0004197786620352
4.1606259765625,-0.0101493275652639,-0.0046200244834646,0.048794133785367,-0.0020478887017816,-0.0009824754670262,0.0026007785927504
4.17060498046875,-0.011041782892961,-0.0020538637898862,0.0489443559110164,-0.0012232726439833,-0.0005109477788209,-4.889006959274411e-07
4.180583984375,-0.0011782499991357,-0.0053217247457243,0.0336813203275203,-0.0003308473969809,0.0028805881738662,0.0013465379597619
4.19056201171875,0.0052526232985779,-0.0090349548488855,0.0441530299812555,0.0002601681626401,0.00166508089751,0.0006884493050165
4.200541015625,0.0062905880441889,-0.0078445029553025,0.0457984591007232,-0.0011470461031422,2.40411609411e-05,0.0014764787629246
4.21052001953125,0.0080837733375839,0.0010393164524808,0.0489390952140092,-0.0003010730142705,-0.0002854596823453,-0.0003571428824216
4.220498779296875,0.007175079261139,-0.0105851616992615,0.0453518843770027,8.66831978783e-05,0.0009766118600964,0.0004495286266319
4.23047802734375,0.0039856355700641,-0.0107413569079712,0.0419090504467487,0.0002933376817964,0.0014550210908055,-0.0019125179387629
4.240456787109375,0.0021007716715335,-0.0145129296022467,0.0465454780757427,0.0033527771010994,-0.0009474167600274,0.000710163032636
4.25043603515625,-0.0045550694884732,-0.0016908574300818,0.0350204599767923,0.0013651649933308,-2.34367325901e-05,-0.0009917995193973
4.260414794921875,-0.0024057277011685,-0.0030031821376644,0.0463952559500932,0.001559575786814,-6.63138926029e-05,0.000675605610013
4.27039404296875,0.0010318272657692,0.0015884199689142,0.0442985759317874,0.0024034040980041,0.000705836340785,0.0005120816058479
4.280372802734375,-9.26101868972e-05,0.001308671445772,0.0520779777616262,0.0011698277667164,-0.0011796811595559,-0.001071966602467
4.29035205078125,-0.0063265726730227,-0.00904933043411,0.0435521414786577,0.0039200275205075,0.000749540515244,-0.0004716663388535
4.300330810546875,0.0044546595876105,-0.0082926120489835,0.0440039768993854,-0.0003759177052415,-0.0009282510727643,7.1618516813e-05
4.31031005859375,-0.0064015558716841,-0.0056763834022916,0.0478910474658012,0.0009405226446688,0.0004845382645726,-0.0003347035963088
4.320288818359375,0.005097377937939,-0.0088380075046792,0.044148353806138,-0.0014818885829299,0.0003870669752359,-0.0004406974185258
4.33026806640625,-0.0035446686032228,-0.0073959920028224,0.0463958404719829,0.0001504883402958,-9.01594758033e-05,0.0012606233358383
4.340246826171875,-0.0048773967780172,-0.0084252802516333,0.0495388146728277,-0.002602154854685,4.9155205488e-06,0.0013245391892269
4.35022607421875,0.0065767115091904,-0.0050836599398404,0.0332248087316751,-0.000715649628546,-0.0001995004713535,0.0005393266910687
4.360204833984375,0.0079077043846249,0.0013849698186852,0.0362181453287601,-7.91541533544e-05,-0.0008290717378258,-0.0018969329539686
4.37018408203125,0.0053350591513328,0.0017857143729925,0.0525303977042436,-0.0009737096261233,-7.1506947278e-06,0.002136577386409
4.380162841796875,0.0077826714991591,-0.0039450843639671,0.0468412461519241,-0.0014863682445138,0.0009305486455559,0.0013970175059512
4.39014208984375,-0.0027716749367304,-0.0076324311072006,0.0386100089013576,0.0005598588031716,0.0010396065190434,0.0011588936904445
4.400120849609375,-0.0039813977863639,-0.0023830226790159,0.0457926138818264,0.0013353712856769,0.0007370710372924,0.0008715387084521
4.41010009765625,-0.0007944931122474,-0.0050544338453561,0.0451981551200151,0.000368173175957,-0.0007869023829698,0.0010381650645285
4.420077880859375,0.0083567633263766,-0.0107186153532005,0.0466992073327302,-0.0011700687464326,0.0002453392371535,0.0009793092031031
4.430056884765625,0.0042347332266159,-0.0027941790294833,0.0426566539436578,0.0010333324316889,-0.0005003083497285,0.0008903814596123
4.440035888671875,-0.0057681716052815,-0.0033978805436752,0.0446025273144245,0.0001393092097714,0.0017785588279366,-0.0008526574238203
4.450014892578125,0.0115715606544166,-0.0018156345872208,0.0475964484333992,-0.0011465932475402,-0.0024917321279644,-0.0012606148375198
4.459993896484375,0.0101903171627782,-0.0033557949676178,0.0467038835078477,0.0004169486928731,-0.0032288953661918,0.0014808431733399
4.469972900390625,0.0144162460284307,-0.011904044011794,0.0341372474014759,0.0032330022659152,0.0016559762880206,0.0010032000718638
4.479951904296875,0.0108816969604231,-0.0061004905658774,0.0324912337601184,0.00012855528621,0.0003853822126984,-0.001332125859335
4.489930908203125,0.0092258743111044,-0.0130630047885701,0.0487999790042638,-0.0016130747972056,0.0006208587437868,-0.0020755180157721
4.499909912109375,0.0040176381435245,-0.0044324112231843,0.0402706355899572,0.002108160406351,-1.909211277961731e-07,-0.0003596432215999
4.509888916015625,0.0058914874576963,-0.0063062605373561,0.0425181222558021,0.0027467592153698,-0.0002443185076117,-0.0025383383035659
4.519867919921875,-0.008819558532536,-0.0068471259484067,0.0353355172753334,0.00160080101341,-0.0006504505872726,0.0004659735423047
4.529846923828125,-0.0107123500091955,-0.0060224934262223,0.0455108743309974,-0.0004888472612947,-0.0015899231657385,0.0001814269926398
4.539825927734375,-0.0092721246056258,-0.0026634653219021,0.0438683678209781,0.0025383678730577,0.0009294273331761,0.0005052673514001
4.549804931640625,-0.0055406281934119,-0.0073086790455505,0.0432657257527112,-0.001566152786836,-0.0002683605998754,-0.0012869300553575
4.5597841796875,0.0042233167834579,-0.0034965003462508,0.0441658894628286,-0.0001386984949931,-0.0001184241846203,-0.0002315192832611
4.569762939453125,0.002912270717509,-0.0025415742415934,0.0491021768212318,-0.0001225613523274,0.0005264868959784,-0.0001887971011456
4.5797421875,0.0032470008308999,0.0034097719108685,0.0462584778279066,4.86798817291e-05,-0.0015401262789964,-0.0014157154364511
4.589720947265625,0.0071629138993099,-0.000942011824157,0.0492518144249916,-0.0008561901049688,-0.0008817221969366,-0.0007040593191049
4.5997001953125,0.0104587771069258,-0.0083402871156111,0.044911154872179,-0.0005805529654026,0.0027745319530367,-0.000835885759443
4.609678955078125,0.0108681981580331,-0.0042802711350843,0.0429687886327505,-7.46207660995e-05,-0.0019405512139201,0.0020598953124135
4.619658203125,-0.0037130657063797,-0.004383804574795,0.046114100921154,0.0021432596258819,-0.0029014199972152,-0.000530295248609
4.629636962890625,0.0100783994872123,-0.0009477109125815,0.0482119499832391,0.0009329126914963,0.0024768859148025,-0.0004880763299297
4.6396162109375,0.0126385505651123,5.8598319441e-05,0.0414741661608219,0.0016109534772112,0.0004448946565389,-0.0009778316598385
4.649593994140625,-0.0043620128680951,-0.002027121913433,0.039530630877614,-0.0009459024877287,-0.0001215199008584,0.0026569440960884
4.65957275390625,0.0023116927421651,-0.0088041965666227,0.0354880774885416,0.0010980735532939,-0.0012235362082719,0.0015392155619338
4.669552001953125,-0.001895421825163,-0.0086500289182178,0.0486620318382978,0.0017423587851226,-0.0004900423809885,0.0020581849385052
4.67953076171875,-0.0020147556222043,-0.0036654637049883,0.0431271940648555,-0.0005213281838223,0.0004809461534023,0.0022227682638913
4.689510009765625,-0.0049571840159595,-0.0015284699426032,0.0425303972154855,-0.0001911096042022,-0.0013715233653783,0.0011242567561566
4.699489013671875,-0.0026795944727957,-0.0085199910640716,0.0447767148375511,-0.0013794121332466,-0.0021536936983466,0.0013375759590417
4.709468017578125,0.0029544658914208,-0.0056589208108372,0.0557025979995727,0.0020639700815081,0.0001830970868468,0.0003060900198761
4.719447021484375,-0.001441065653786,0.0008802716995589,0.0453758497744798,-0.0020588696934282,0.000865931622684,-0.0006449248176068
4.729426025390625,-0.0067192617850378,0.0013858283352106,0.0419347694098949,-0.0017337206518277,-0.0009223455563187,-8.90382943907e-05
4.739405029296875,-0.001726641129516,0.0011074863178655,0.0540536617487669,0.0004615229554474,0.002579178661108,0.0008843470714055
4.749384033203125,0.0015187887988053,-0.0012523198823444,0.0384837521731853,-0.0033975872211158,0.0012388629838824,-0.0001363440678687
4.759363037109375,0.0132913519180379,-0.0054044893920421,0.049107437518239,0.0020469794981181,-0.0007529156282544,-0.000803199596703
4.769342041015625,0.0089357322581112,-0.0050172619064338,0.0525537785798311,0.0025627962313592,-0.0019021164625883,0.001164851244539
4.779321044921875,0.0035557379865087,-0.012691102736257,0.0470265395909547,0.0005792737356387,-0.0033679194748401,0.0031129536218941
4.789300048828125,-0.0069076970292255,-0.0154827792814001,0.0417938996344804,-0.001401969930157,0.0004906365647912,0.0025466415099799
4.799279052734375,-0.0046968160467222,-0.0080859287620522,0.0416442620307207,0.0010039298795163,0.001720217987895,0.0011495471699163
4.809258056640625,-0.0067386423389427,-0.0052562217614613,0.053167526564002,-0.0006783955614082,-0.0016305269673466,-0.0006788569153286
4.819237060546875,0.0006895166341215,-0.0004021693264134,0.05421557431221,-0.0013918564654886,-0.0010174671187996,-0.0001755194971337
4.829216064453125,0.0100459037234075,0.000950670054648,0.0395499200999736,0.0035532554611563,0.002121090888977,-0.0009394561639055
4.839195068359375,-0.0045781581031158,-0.0010680493566207,0.0476291816592216,0.0002245706273242,0.0002992218360304,-8.3249862655e-05
4.849174072265625,0.0112995753126218,-0.0017911759993992,0.050625440865755,0.0044176648370921,-0.0028019361197948,0.0020121149718761
4.85915283203125,0.007993008047901,0.0016574483508244,0.0509305612921714,0.0001009469269774,-0.0006176112219691,-0.0003831322246696
4.8691318359375,0.0077676565931178,0.0030071093941107,0.0435989032298326,0.0001605832367204,0.0010892702266573,-3.03892120427e-05
4.879110107421875,-0.0049291086989454,-0.0112299076098948,0.048833296751976,0.0008649892988614,0.0016495995223522,0.0013890756526961
4.8890888671875,-0.0018776304401457,-0.0151988843061029,0.0479319639980792,-0.0017575421370565,-0.0005372259765863,0.0005872321198694
4.899068115234375,-0.010517430225294,-0.0083232994481921,0.0521229859471321,9.94800939224e-05,-0.001837913878262,0.000724917568732
4.909046875,-0.003704882399924,-0.0097514325551688,0.0521259085565805,-0.0008726702653802,-0.0005988785997033,-0.0002219148736912
4.919025634765625,-0.0022024054151028,-0.0037863684046082,0.0421036962360143,0.000321224797517,-0.0015315171331167,0.000260383618297
4.92900439453125,0.0016301584850996,-0.0019133410743437,0.0473445194989442,0.0022485861554741,-0.0009668404236435,-0.0012360255932435
4.938983642578125,0.0018325674557127,-0.0025441497911699,0.0531838931769132,-0.000151188171003,0.0002667354419827,0.0023967921733856
4.94896240234375,0.0015445442945696,0.0034269605076871,0.0504904163092374,-0.0007151340832933,0.0002483045682311,0.0004472978471312
4.958941650390625,-0.0040896074011921,-0.0001057801957242,0.0367255103290081,0.0007693119114264,-0.0009349370375275,0.0008643488981761
4.96892041015625,-0.0004816643034107,0.0031372385798022,0.0563303745090961,0.0008769647101871,0.0021240543574094,-0.0014916129875928
4.978899658203125,0.002711231720075,-0.0019798852382227,0.0472094949424266,0.0011073281057178,-0.0034518060274422,0.0010961805237457
4.98887841796875,0.0044530521524138,0.0017243761071935,0.0481084896087646,0.0009734791819937,0.0034521054476499,0.0013601925456896
4.998857666015625,0.0121387843494303,-0.0137414703057147,0.0422720385402441,0.0023407461121678,-0.0006060190498828,-0.0007447699317708
5.00883642578125,0.0163485292652621,-0.0122227728384546,0.0467646737843751,-0.0008619337459094,0.0012918133288621,0.0002255706494906
5.018815673828125,0.0146880852397531,-0.0018537381079047,0.0475169534564018,0.0021777981892228,-0.0017063738778233,0.0012522193137556
5.02879443359375,0.0066598780143074,-0.0068843709525652,0.0505120436191558,0.0029761926271021,0.0014440957456827,-0.0011095206718891
5.038773681640625,-0.001521455679927,-0.00756842596028,0.0585913051784038,-0.0031813022214919,-0.0017628828063607,0.000712081498932
5.04875244140625,0.0065711402849294,-0.0027298450889997,0.0473696539402008,0.0025146382395178,0.0015093088150024,-0.0004788676742464
5.058731689453125,0.008837587379571,0.0043867454505525,0.0382435136765241,-0.0002358745550736,0.0004544304683804,0.0003456470440141
5.06871044921875,0.0004006349564529,-0.0021107085436582,0.0368944371551275,-0.0019332247320562,0.0020489757880568,-0.0008809156715869
5.078689697265625,-0.0046952086115255,0.0045276517585851,0.0452688822686672,-0.0010085752001032,0.0017626853659749,-0.0003823718870989
5.08866845703125,0.0067613473610952,7.70472915843e-05,0.0428735115647316,-0.0014452051836997,0.0007615843787789,0.0014790424611419
5.098646484375,0.0020291312074288,-0.0051561771867796,0.0421270771116018,-0.0004297419218346,-0.000654418952763,0.0014878308866173
5.10862548828125,0.0050070510396733,-0.0006414031760767,0.0485614940732717,0.0003129991237074,-0.0013824896886944,0.0028987983241677
5.1186044921875,-0.0029582835500128,-0.0092321579214185,0.0373421809226274,0.001579598407261,0.0011871941387653,-0.0012173833092674
5.12858349609375,0.0017658588950522,-0.0067552098812535,0.0530541293174028,0.0020602559670805,0.0014431504532694,0.0003189424751326
5.1385625,-0.003727751818858,0.0017913586624898,0.0352449163824319,-0.0010772141395136,-0.0006804540753364,-0.0013026562519371
5.14854150390625,0.0103117698516696,0.0016783815409988,0.050507951965928,-0.0002722952049225,0.0017126034945249,0.0001794654817786
5.1585205078125,0.0072260970623232,0.0003339629284106,0.0436199460178613,-0.0010201109107583,0.000824705697596,0.002041813917458
5.16849951171875,0.0029279614769853,0.000969374755118,0.0431727867722511,0.0024824398569762,-0.0018339594826102,0.0014912695623934
5.178478515625,-0.0017868651504628,0.0037054303891956,0.0451204137086868,-2.35946499742e-05,-0.000773754902184,0.0006822012364864
5.18845751953125,-0.0016373188782483,0.0024020744393579,0.0485626631170511,0.0017479092348366,0.0018364377319812,-0.0012710087466984
5.1984365234375,-0.0087849986758083,-0.0025156543490476,0.0470639489918947,0.0004120677476748,-0.0005934303626418,-0.0014457120560109
5.20841552734375,-0.0083295465258881,0.0096311123774386,0.0502069231927394,0.0007088421843945,-0.0021012499928474,-0.0001041748691932
5.21839453125,-0.0015556867430917,-0.0041067411990836,0.0413771355271339,-0.0015425942838191,-0.0015246756374835,-0.0002887319424189
5.22837353515625,-0.0036586503717117,0.0015443616314791,0.0515519080609083,-0.0007013888098299,-0.0012849429622292,-0.0008281976333819
5.2383525390625,-0.0022030812685377,0.0008063844794407,0.046164369803667,-0.0008300194749608,0.0007955180481076,-8.30451463116e-05
5.24833154296875,0.012214224205818,-0.0065688752626068,0.0439139605283737,-0.0024210719857364,-0.000531667843461,0.0007493717130273
5.258310546875,0.0139390204381197,0.0042749008402228,0.0527431636720895,-0.0005800286890007,-0.0029016146436333,-0.001051457831636
5.26828955078125,0.0064826034849509,0.0054371678189374,0.0530424388796091,-0.0013988511636853,0.0010217577219009,-0.0024021649733185
5.2782685546875,0.0051910475707612,-6.44983372651e-05,0.0470557656854391,-0.0008419841760769,-0.000661626458168,0.0013978995848447
5.28824755859375,0.0107819994456134,-0.0078204827588982,0.0443640423834323,0.0013836878351867,-0.0015481291338801,-0.0013178107328712
5.2982265625,0.015474066251982,-0.0040089799130335,0.0458627565085887,0.0023373656440526,0.0001349886879324,0.0023208663333207
5.308205810546875,0.0049342597980983,-0.002439867432788,0.0493044213950634,0.0014514116337522,-7.78958201408e-05,-0.0009791048942133
5.318184326171875,0.00219416730972,-0.0002651172095909,0.0496042811244726,0.0002734954468905,0.000663261860609,-0.001631845603697
5.328162353515625,-0.0049647280015982,-0.0013152838496491,0.0451151530116796,-0.0005029197782278,-0.0003045927733182,-0.001530825975351
5.3381416015625,-0.0020583755682222,-0.0014746391298249,0.0443652114272117,7.97797692939e-05,0.0006187250837683,0.0005227374495007
5.348120361328125,0.0051017983847297,0.0004199241788126,0.0422714540183544,0.0015078161377459,0.0012121191248297,0.0011803414672613
5.358099609375,-0.0046581097378395,-0.0034246224201284,0.049450551867485,-1.81750510819e-05,0.0014502061530947,-0.001477226964198
5.368078369140625,0.0042387152819894,-0.0043880423584952,0.0446592259377241,-0.0003198969061486,-0.0005048708990216,-0.0008834438631311
5.3780576171875,-0.0016004026676528,-0.0005650682705454,0.0383732775360345,0.0004913019365631,0.002103429287672,-0.0012142085470259
5.388036376953125,-0.0003589695055037,-0.0015543350362218,0.0472001425921916,0.0014968828763812,0.0010920297354459,0.0003835371171589
5.398015625,0.0060569984840229,-0.0067044660747051,0.0477940168321132,-0.001077328575775,0.0020419796928763,0.0003126969968434
5.407994384765625,0.0080194211307913,0.0006650580462999,0.0534749850779771,0.0023803289514034,0.0006392477080225,-0.0002782935043796
5.417974365234375,0.0098598430993966,0.0017885456508956,0.0441997917324304,0.0002652463736012,-0.0002342695370316,-0.0005051948246546
5.42795361328125,0.0139627666398882,-0.0102819592352956,0.0524286908954381,-0.0012803056742995,0.0011646328493952,0.0008871800964698
5.437932373046875,0.0042292898665182,-0.0006775887343101,0.0426999085634946,-0.0028065633960068,0.0004983097314834,-0.0003218950005248
5.44791162109375,-0.0028844328625127,-0.006665266575478,0.0458382065892219,-8.54296959005e-05,0.000305219553411,0.0014750465052202
5.457890380859375,0.0001988653066568,0.0023791319551877,0.0473351671487092,-0.0006785156438127,-0.0003086393699049,0.000578626524657
5.46786962890625,0.0008009776519611,0.0004396883252076,0.0509264696389436,-0.0005153170786798,0.0010909233242273,-0.0010471257846802
5.47784765625,0.0043953671484254,-0.0048642085028812,0.0467354476898908,-0.0021347852889448,-0.0009530531242489,0.0004538318025879
5.48782666015625,-0.0004959120244719,0.0019857669897377,0.0485351905882358,-0.0002805711119435,-0.0003599552437663,-0.0020946466829627
5.4978056640625,-0.0063209283835254,-0.0043500301693566,0.0525683916270732,-0.0026545128785073,0.0013521909713745,-0.0001390874676872
5.50778466796875,0.0060260918891057,-0.0011816110000014,0.0370060808360576,0.0012569278478622,-6.39054924249e-05,-0.0012143754865974
5.517763427734375,-0.0056971887283027,-0.0035710451534949,0.039698388659954,-0.0010760014411062,-0.0005475347861647,0.0011121621355414
5.527742431640625,0.0008840162929147,-0.0084204031471163,0.0435848747044801,9.91449924185e-05,-0.0016709081828594,-0.0004891098360531
5.537721435546875,-0.0019558467755094,-0.0026996508801355,0.0567570754885673,0.0014887824654579,-0.001785690896213,-0.0015402594581246
5.547700439453125,0.0123775980739854,0.00623483926896,0.0444891300678253,-0.0020240831654518,-0.0004375213757157,-0.0005252126138657
5.557679443359375,0.0044883791941218,-0.0024368717581033,0.0374509019941091,-0.0002996864495798,0.0015124455094337,0.002011714503169
5.567658447265625,0.0018098806998692,-0.0023755700249224,0.0489683213084936,-0.0005439925007522,-0.0007164878770709,0.0002935732482001
5.577637451171875,0.0081878730328753,-0.0011269034043885,0.0497170938491821,-0.0013442724011838,-0.0022800294682383,-0.003871344262734
5.587616455078125,0.0101919245979748,-0.0090532759568653,0.0494166495978832,-0.0006499108858406,-0.0010970532894134,0.0012428103946149
5.597595458984375,0.0129086910096928,-0.0121970721416175,0.049264089384675,4.59731090813e-05,0.0026279101148247,0.0010127132991328
5.607574462890625,-0.0052901422973722,-0.0061077970894984,0.0443231258511543,-0.001389589626342,-0.0004870854318141,0.000459314615
5.617553466796875,-0.0007279672146774,-0.0097620818133465,0.049411388900876,0.000363302999176,0.0005097361281514,-0.002665372332558
5.627532470703125,0.0012745134478434,-0.0057529375035315,0.0428308414667844,-0.002509756013751,-0.0005494095385074,0.0004404145292937
5.637511474609375,0.002167461965885,-0.0036954387181438,0.0459720621019601,-0.0016482234932482,-0.0011627357453107,-0.0003364295698702
5.647490478515625,0.0060862428448162,0.001025160062965,0.046869303202629,0.0009004253079183,-0.0001128166913986,0.0005149949574843
5.657469482421875,0.01164689091295,-0.0001019808034412,0.0458265161514282,0.001260750927031,0.0001870552077889,-0.0004775651614181
5.667448486328125,0.0025541597285307,-0.0021431860411539,0.0444780241519212,-0.0010018548928201,0.0017989845946431,0.000831313082017
5.677427490234375,0.0041892135844565,-0.0049202312727458,0.0423842667430639,-0.000558704836294,-0.0007142396643757,0.0011700671166181
5.687406494140625,0.0005563917737454,-0.00231372030247,0.0494172341197729,-0.0013977909693494,0.0028870552778244,-0.000583600718528
5.697384521484375,0.0010793014029972,-0.0065295478992164,0.0518061750829219,-0.0009935230482369,-0.0007913028821349,-0.0006808061152696
5.70736376953125,-0.0041740890805609,-0.002642623463273,0.0438753820836544,-0.0011179472785443,-0.0019307024776935,-0.0007882062345743
5.71734228515625,-0.0038949798782356,-0.0014909326774999,0.0561444965481758,0.0003465249901637,-0.0005418639630079,-0.0004417289746925
5.727321533203125,0.001547448637709,-0.0052762416361831,0.0447720386624336,-0.0014846895355731,-0.0016810251399874,-0.0001937297056429
5.73730029296875,0.004391439891979,-0.0059857050797902,0.0500105238378047,0.0001358439330942,0.0001341858878731,0.0004651363415177
5.747279541015625,0.0090531298263929,-0.0059998432029969,0.0335468802928924,-0.0004382902407087,0.0004311390221118,0.0002147164777852
5.75725830078125,-0.0017194442037492,-0.0056897726068273,0.0299561623245477,-0.0006622620858252,-0.0008237417787313,0.0007396255386993
5.767237548828125,0.0098028156825341,6.15391951985e-05,0.0465671053856611,0.0026904486585408,-0.0004837848246097,-0.0001958751236088
5.77721630859375,-0.0027200360810384,0.0031568017967976,0.0420803153604269,-0.0004659297701437,-0.0011791363358497,-0.0004243743314873
5.787195556640625,-0.0033677046011202,-0.0069210679674521,0.0477647907376289,-0.0022292807698249,-0.0002208594232797,5.861154932e-06
5.79717431640625,0.0042825726900249,-0.0003719751175493,0.0405821857571601,-0.0009059561416506,-0.0006067520007491,0.0017598189879208
5.807153564453125,0.0139740004199556,0.0003790807117708,0.0348982949018478,-0.002050541806966,-0.0025750873610377,-0.0020535755902528
5.81713232421875,0.0133361957067623,-0.010117124062404,0.0407364995360374,-8.14006780274e-05,0.0007948763668537,-0.0009028236963786
5.827111572265625,0.0215736800350248,-0.0170185374813154,0.0497170938491821,-0.0008389949216507,-0.0006520971655845,0.0006383414147421
5.83709033203125,0.0119638296413235,-0.0102558018807321,0.0468710567682981,-0.002073103794828,0.0016853595152497,0.0010010639671236
5.847069580078125,0.0093067575275897,-0.0059463229174725,0.049860886234045,-0.000259367225226,-0.0006239153444766,0.0014941311674192
5.85704833984375,0.0011745054057799,-0.0055996831705793,0.043130116674304,0.0012029744684696,-0.0011706622317433,-0.0011360066710039
5.867027587890625,-0.0024757241974584,0.0005022687000222,0.0477729740440845,-0.0008256296860054,0.000805128365755,-0.0004354681586846
5.87700634765625,-0.0045499914545565,-0.0021265271672978,0.0372942501276731,-0.0001803457271307,0.000263974070549,-0.001107916352339
5.886985595703125,-0.0059177726764231,-0.006071940324828,0.0414852720767259,8.25820607133e-05,-0.0010620597749948,0.0004308678035158
5.896964599609375,-0.0032350729310885,-0.0025888109168037,0.0429816481143236,-0.0009797529783099,0.0008980268612504,0.000758436624892
5.906943603515625,0.0023080577466636,0.0037196781102567,0.0426829574286937,-0.0002144713071174,0.0008437586948275,-0.0015508172800764
5.916922119140625,-0.0006560527559369,-0.002060037802346,0.0425315662592649,0.0010382796172052,0.0022813323885202,-0.0007207100279629
5.926901123046875,0.0074401051391847,-0.0003085910251364,0.0438806427806615,0.0007224514847621,-0.0008522411808371,-0.0011138812405988
5.93688037109375,0.005340685174521,0.0013445099441334,0.0464309117853641,0.0024218144826591,-0.0015776865184307,-0.0003735225182026
5.946859130859375,0.0068027936163358,-0.0019451244520954,0.0515174212694168,-0.0014189359499141,-6.4231455326e-05,0.0024708085693418
5.95683837890625,0.0040808213065378,0.0053436625828966,0.0512169770181179,0.0020836535841226,-0.000677291303873,-0.0004213843785692
5.966817138671875,-0.0039716070447117,-0.0045463016601279,0.0452320573896169,0.0014436705969274,0.0005541015416383,-0.0008862160611897
5.97679638671875,0.000969374755118,-0.0009885543796233,0.051671735048294,-0.0008541046991012,-0.0038425107486546,-0.00053254829254
5.986775146484375,0.0012997026880271,-0.0049004305937327,0.0380588047593832,0.0001976698986254,0.0015831366181373,0.0018608393147587
5.99675439453125,0.0079486026505939,-0.0085590626991353,0.0462917955756187,-0.0010617389343678,-0.0020653940737247,-0.0006672995514236
6.006733154296875,0.0033658049049787,-0.0060003363933414,0.0497346295058727,0.0026588640175759,-0.000970022752881,0.0007873827125877
6.01671240234375,0.0049573301464319,-0.0034530630633234,0.0488391419708728,0.00058532692492,-0.0013122390955686,0.0006065540364943
6.026691162109375,0.0041872408230789,-0.0071611420673318,0.0422580100148916,-0.000630373833701,0.0011176308616995,-0.0001684894086793
6.03667041015625,0.004910239601694,0.0018261559812352,0.0480874468207359,-0.001792310969904,0.0023682508617639,0.0003372448845766
6.046649169921875,-0.0011938859596848,-0.0004771707913838,0.041203532525897,-0.0007223033462651,-0.000647535547614,0.0001164861314464
6.05662841796875,-0.0017292166790924,-0.0074531107512302,0.042553778091073,0.0012311253231018,-0.0022558188065886,-0.0017005887348204
6.06660693359375,0.0056537879779934,-0.0032973793112672,0.0425567007005214,-0.0004602629342116,-0.0012859953567385,0.0005118342814967
6.076586181640625,0.000908383549191,-0.0145574811300262,0.0495902525991201,0.0006252415478229,-0.0016833394765853,0.0006748196901753
6.08656494140625,0.0037483562154695,-0.0062935471862554,0.0464519545733928,-9.2185800895e-06,-0.00110899284482,0.000683695427142
6.096544189453125,0.0115734968831762,-0.0057670756267383,0.0436146853208541,0.0007785445195622,-0.0005699694156646,0.0010903601069003
6.10652294921875,0.006150613317918,-0.0096613431189209,0.0599275222182273,0.000737031630706,0.0014958335086703,-0.0012725085252895
6.116502197265625,0.010856014529895,-0.0038539720144122,0.0454126746535301,0.0025533074513077,-0.0017622774466872,-0.0004400043690111
6.12648095703125,0.0009615202422253,-0.0036888993795029,0.0406242713332176,-0.0013959528878331,-0.0015889378264546,-0.0012911354424431
6.136459228515625,-0.0023559885416179,-0.0043712738867849,0.0448152932822704,-0.0015285782283172,-0.0026755072176456,-0.0008756823372095
6.146438232421875,-0.0035083003818988,0.0014641908010467,0.0451133994460105,-0.0021081392187625,-0.0003434866666793,-0.0005540989222936
6.156417236328125,-0.0019822050594724,-0.0012974924646317,0.0504997686594724,-0.0014652521349489,0.0004429444670677,0.0010978599311783
6.166396240234375,0.0043517472024075,0.0001925268974155,0.0536433273822069,-0.0011663041077554,0.0007588379085063,0.0010202859994024
6.176375244140625,4.4021804817e-05,-0.0053211584901437,0.0558861378729343,-0.0017700428143143,-0.0015575792640447,-7.93331710156e-05
6.186354248046875,0.0059089317828416,0.0085286127619445,0.0519914685219526,-0.0015003448352217,0.0019442252814769,0.0017794491723179
6.196333251953125,0.0072357964724302,-0.001029324781429,0.0578249969810247,-0.0040583107620477,-0.0007226634770631,0.0009256397606804
6.206312255859375,0.0070192859112285,-0.0051882528254762,0.0509410826861858,-0.0014456160133704,-0.0008338261395692,0.0025253023486584
6.216291259765625,0.0022188816258683,-0.0009461948089301,0.0516898552268743,1.29973050206e-05,-4.47314232587e-05,-0.0015056582633405
6.226270263671875,0.0087761760485358,0.0030272753993049,0.0437602312713861,-0.0013216107618063,0.0016651665791869,-0.0018381738336756
6.236249267578125,0.0185110410613939,-0.0011050386324524,0.0464513700515031,0.0012203764636069,0.0015501184388995,-0.000857331615407
6.246228271484375,0.0086340824304148,-0.0017395554100163,0.0338835649013519,0.0026360186748206,-0.0002153990790247,0.0024768020957708
6.256207275390625,0.013190887218248,-0.0020362185353413,0.0436146853208541,0.0022674372885376,-0.0008202027529478,0.0016666683368384
6.26618603515625,0.0061030295828357,-0.0006869958834722,0.03927694837749,-0.0001572298933751,2.62493267655e-05,0.000392378977267
6.2761650390625,0.0066885561195202,-0.0039469292611815,0.0310445420831441,-0.0004296713159419,-0.0021551456302404,-0.0005157589912414
6.28614404296875,0.0043381753347814,-0.0052687524494715,0.0382259780198335,-0.0016905463999137,0.0020175036042928,0.0001836487936088
6.296123046875,-0.0050131337205879,0.0009656666943803,0.0504939234405756,0.001794199924916,-0.0004850691184401,-0.000567628943827
6.30610205078125,-0.0009852299113757,-0.0023363157267682,0.0445078347682952,9.05761262401e-05,0.0002727201208472,-8.29407290439e-05
6.3160810546875,0.0017331987344659,-0.0011494988286867,0.0486947650641202,-0.0012348791351541,0.0006916346028447,0.0002600743900984
6.32606005859375,-0.0006898271613754,-0.0051843073027208,0.047494157102704,-0.000428429513704,-0.0007463749498128,0.0018020217539742
6.3360390625,0.0003732537591829,0.0063038676508702,0.0488408955365419,-0.0011501461267471,0.0002618981525301,-0.0006398306577466
6.34601708984375,-0.0014011172358877,-0.0012360446009784,0.044049569606781,-0.0031241765245795,0.0028184307739138,0.000208613142604
6.355996337890625,0.0084619407339021,-0.0064239686328917,0.0407546197146177,0.0020173219963908,0.0020908545702695,-0.0016252396162599
6.36597509765625,0.0088152111509814,0.0004715265018865,0.050927638682723,-0.0015538467559963,0.0005796272307634,0.000124424797832
6.375954345703125,0.0079568042233586,0.0038274310673587,0.0546679942548275,0.0004408609820529,-0.001975942403078,-0.0010332512902095
6.38593310546875,0.0056666657258756,-0.0041376843266189,0.0388110844314098,0.002463465090841,-0.0006283922120928,-0.0015296081546694
6.395912353515625,0.0063477981241419,0.0023839907933957,0.0433002125442028,0.0001867286628112,0.0008882777765393,-0.0019040486076846
6.40589111328125,-0.0029462825849652,-0.0072625383488833,0.0412029480040073,0.0015323309926316,0.0020194463431835,-0.0036109667271375
6.415870361328125,-0.0024283596580848,-0.0063069729234091,0.0374608388662338,0.000717403832823,-0.0006919177249073,-0.0002042512933257
6.42584912109375,0.002376099747885,-0.00850729597928,0.0489876105308532,0.0015088273212313,-0.0007849801331758,-0.0023964191786944
6.435828369140625,0.0081598707810975,0.0018551263473927,0.0376209978640079,-0.0015399593394249,-0.0004169316962361,0.0014230865053832
6.44580712890625,-0.0003921411227434,-0.0032454116620123,0.042408232140541,0.000611359719187,0.0006788531318306,0.0003261741367168
6.455786376953125,0.006954677976109,-0.004869706661906,0.0491401707440614,0.0005663522752001,-0.0010519353672862,0.0003594636800698
6.465764892578125,0.0083993055601604,0.0018610811641439,0.0507885224729776,-0.0025590404402464,0.0001981686800718,-0.0006214054883457
6.475744140625,0.0101237547325901,-0.0013612053506076,0.0548258151650428,0.0012500787852331,1.86720862984e-05,0.0007836782606318
6.485722900390625,0.0020730616807006,-0.0029014753288589,0.0468944376438856,0.000972879002802,-0.00244409032166,-0.0012832983629778
6.4957021484375,0.0084218461855314,-0.0108791396771557,0.0391173739016056,-0.0006423281738534,-0.002124510705471,-0.000636416603811
6.505680908203125,0.0047366913993842,-0.0109410259322263,0.059172904458642,-0.000261157634668,-0.0028078015893697,-0.0018487873021513
6.51566015625,0.0016415749282576,-0.0084888652734458,0.0543839166164398,-0.0011405334807932,0.0006769448518753,0.0010527267586439
6.52563916015625,-0.00241977449283,-0.0073475314849056,0.0397176778823137,-0.0009129236568696,-0.0006265249103307,0.0001980033121071
6.5356181640625,0.0007306158294901,-0.0082966306369751,0.0464566307485103,-0.0020607460755854,-0.0039280457422137,0.0011652633547782
6.54559716796875,0.0001839782647788,-0.0002081080590374,0.0467576595216989,-0.0006246735574677,-0.0008579222485423,-0.0017944534774869
6.555576171875,-0.0037168468323536,0.0031169081778265,0.0376297656923532,0.0014552550856024,0.0009314557537436,-0.0007907081162557
6.565553955078125,0.0017089410760439,0.0002434168344363,0.0365793798565864,0.0010095860343426,-0.0003299070522189,-0.0007105958648025
6.575533203125,0.0070682578857988,-0.0064259961931966,0.0446639021128416,-0.0004426356754265,-0.0019088955596089,-0.0010845037177205
6.585511962890625,0.0053893648881465,-0.0142797784334979,0.0522960044264793,-0.0015355020295828,0.0012758495286107,-0.0002654533600434
6.5954912109375,0.0030510764000006,-0.004454842250701,0.0470557656854391,-0.0023653430398553,0.0002774307504296,-0.0021166165824979
6.60547021484375,0.0105699823964387,-0.0081429927115328,0.0478057072699069,0.0021750074811279,0.0007764147594571,0.0002691337431315
6.61544921875,0.0080180876902304,-0.0060219089043326,0.0485538952887058,-0.0017531551420688,0.0006951885297894,-0.0005785503890365
6.625428466796875,0.0144159355011768,-0.0036619383073411,0.0494534744769334,0.0009413878433406,-0.0019930517300963,-0.0008978568948805
6.6354072265625,0.0130583286134526,-0.0068754935263656,0.0482552046030759,0.001416229410097,0.0015353700146079,-0.0014134448720142
6.645386474609375,0.0016798793783411,-0.0116465255867689,0.041820787641406,-9.60976467467e-05,0.0011859564110636,-0.0021977638825774
6.655365234375,0.0012950265129096,-0.0018589440059848,0.0524450575083494,0.0009358773240819,-0.0025571165606379,-0.0035927274730056
6.66534423828125,-0.0003466397468931,0.0049253275729715,0.050800797432661,-0.0013769275974482,-0.0001884801313281,-0.0010471562854945
6.675322998046875,0.0004904869306832,-0.0048116745980456,0.0430178884714841,0.0004920788342133,0.0015774620696902,0.000577105616685
6.68530224609375,0.0110837588711641,0.0017171791814267,0.0364320803403854,-5.26961521245e-05,-0.0005399333313107,-0.0022642838302999
6.695281005859375,0.0075240753619,-0.0097793069427832,0.0464566307485103,-0.0002556290128268,0.000958627089858,-0.001718069659546
6.70526025390625,0.0027401838199235,-0.0109213165847584,0.0504980150938034,0.0013462505303323,-0.0005755834281444,0.0022718778345733
6.715239013671875,-0.000607555705402,-0.0099397582015022,0.0470563502073288,0.0020296177826821,-0.0008456278592348,0.0021344588603824
6.72521826171875,0.0084274174097925,-0.0099402148592285,0.0419698407232761,-0.0014689436648041,-0.0008830446749925,-0.0004932980518788
6.735197021484375,-0.0022370018044486,-0.0031010164889506,0.0404752182513475,-0.003299334552139,-0.0014955718070268,-0.0009825207525864
6.74517626953125,0.007874806762021,-0.0052849729319103,0.0434685548484325,-0.001722911838442,-5.61568886041e-05,0.0008220153977163
6.755155029296875,0.0125164768217131,-0.0039558066873811,0.0493044213950634,-0.0003868039348162,-0.0005800006911158,0.0002273315767524
6.76513427734375,0.0061427588050253,-0.0003086092914454,0.0424199225783348,0.0003022766904905,0.001457892358303,-0.0013344157487154
6.775112060546875,0.00484957718933,-0.0066040379075333,0.0502022470176219,0.0005179926520213,-0.0010209782049059,-0.0015373486094176
6.78509130859375,0.0075711659066379,0.0002818856813013,0.0383849679738283,-0.0009022211888805,-0.0014914693310856,0.0011169878998771
6.795070068359375,-0.0012181070854887,0.0035221645104698,0.0533475593060255,-0.0008465611026622,0.0028681252151727,-0.001414080383256
6.80504931640625,0.0003479549211449,-0.0047547567790374,0.0527466708034276,-0.0014463152037933,-0.0011348370462656,-0.001074778381735
6.815028076171875,-0.0062770892417989,-0.0030520445143803,0.0546954667836427,0.0005286850500851,-0.0014075441285967,-1.85687458724e-05
6.82500732421875,0.0037802126584574,-0.0078430051179602,0.040929391759634,0.0003922244068235,0.0003531714901328,0.0002740713243838
6.834986328125,-0.0031326172036118,-0.0035358277096413,0.0404793099045753,0.0009954302804544,0.000179000198841,0.0002756692119874
6.84496533203125,0.0048699441239237,-0.0071077131133526,0.0545434910923242,0.0018100305460393,-0.0017102342098951,0.0011771358549594
6.8549443359375,0.0046223443047143,-0.0077322564861737,0.0455664039105176,-0.0006019943975843,9.83187928795e-05,0.0009323913836851
6.864923095703125,0.0082607738723047,-0.0024453290591947,0.0436228686273097,0.0020564449951052,-0.0006992230191826,8.5625215433e-06
6.874902099609375,0.0140693688195198,0.0005111278599128,0.0448211385011672,0.0034226467832922,0.0038494560867547,-0.0001946366683114
6.884881103515625,0.0111446770118549,-0.0012468217233195,0.0531996752679347,-0.0008965789456851,-0.0026174886152148,-0.0003679275396279
6.894860107421875,0.0084128774277865,0.0013245266020298,0.0509580338209867,-0.0004068236448802,0.000681634992361,0.0007436759187839
6.904839111328125,0.0143761149474419,0.0024996347960084,0.0406324546396732,-0.0014134001685306,0.0019947504624724,0.0008590201614424
6.914818359375,0.0067136174955405,-0.0003759389066137,0.0364414326906204,-0.0006794329965487,9.8962336778e-06,-0.0035575663205236
6.92479736328125,0.0104885511906817,-0.0019146197159774,0.0359925198793411,-0.0025722687132656,7.64653086662e-05,-0.0021888946648687
6.9347763671875,0.0042387335482984,-0.0080794990212656,0.0517044682741165,0.0005968930199742,3.54526564478e-05,-0.0006676969933323
6.94475537109375,0.0035630627764388,-0.0018020809859037,0.0499070634633302,-0.0023803119547665,0.0017400020733475,0.0006443805177696
6.954734375,-0.0027092224260792,-0.0100246417396701,0.033896424382925,-0.0013621853431686,-0.0023420918732881,0.0006390542257577
6.96471337890625,-0.0021674254332669,-0.0074594491604715,0.0386871657907962,0.0011401666561141,-0.0007865382358431,0.0013966794358566
6.9746923828125,0.0020975020022131,-0.0047418790311552,0.0473655622869729,-0.0010489516425877,-0.000644857995212,0.0022502224892377
6.98467041015625,0.0090275387274101,-0.0003776194070465,0.0386854122251272,-0.000140446529258,-0.0002883607521653,-0.0004422288620844
6.9946494140625,0.0034078174157999,-0.0040534035766497,0.0511053333371877,0.001105114002712,-0.0010100770741701,-0.0004675288801081
7.00462841796875,0.0048633865189738,0.0018103921565227,0.0557435145318508,0.0026048785075545,-0.0008345870301127,-0.0012992344563826
7.014607421875,0.0042345505635254,-0.0081378416123799,0.0446744235068559,-0.0010172870242968,-0.0023965314030647,-0.0021178901661187
7.02458642578125,0.0018923713515512,0.0007623078756965,0.0448240611106157,0.0013346436899155,0.0003721537068486,0.0001365681382594
7.0345654296875,0.0033068595256656,-0.0001082826800644,0.0385381127089262,0.0001031979918479,-0.000307485461235,0.0018151586409658
7.04454443359375,0.0092689462678506,-0.0070164546333253,0.0415296957403421,-0.0001244472223334,0.000342714600265,-0.0009024300961755
7.0545234375,0.0069903155450709,-0.007002152113337,0.0514051930665969,-0.0020227483473718,0.002020239830017,0.0006480623269453
7.06450244140625,0.0031624278199858,-0.0111917858229018,0.0470674561232328,-0.0005342855583876,-0.0010918714106082,0.0014913119375705
7.074481201171875,0.0026693653397262,-0.0094841781874187,0.047962359136343,-0.0001814166898839,0.001646657474339,0.0012452357914298
7.08446044921875,0.0017917422549799,-0.0122286545899696,0.0511012416839599,-0.001655810046941,0.0005329269915819,-0.0004115954507142
7.094439208984375,0.0045950909716077,-0.0053374703041277,0.0454138436973094,0.000528248376213,0.0008583655580878,-0.0026140296831727
7.10441845703125,-0.0075472005091607,-0.0054331309646368,0.0442138202577829,-0.0011658429866656,0.0004787417128682,0.0011278985766693
7.114397216796875,-0.0027282741864211,-0.009745605602581,0.0497480735093355,0.0026219710707664,-2.19326466321e-05,-0.001261489582248
7.12437646484375,-0.0001490896144881,-0.0085374171229079,0.0500514403700828,0.0005691197002306,-0.0012641958892345,0.0009222761727869
7.134355224609375,0.0019731267038732,-0.0035687253322452,0.0588835661232471,-0.0006388900801539,-0.0001299548894166,-0.0002971852663904
7.14433447265625,0.005183686248213,0.0100438213641755,0.0502028315395116,-0.0003598886542022,0.0009449766948819,-0.0012973928824067
7.154313232421875,0.0029033019597642,0.0019233144790865,0.0370329688429832,0.000888068578206,-0.001759729348123,3.12582124024e-05
7.16429248046875,0.0112763405675068,0.0058736412737518,0.0557359157472848,-0.0005704478244297,0.0008087288588285,-0.0014867943245917
7.174271240234375,0.0062311494745314,0.0052839317522943,0.0569341856211423,-0.0002210410893894,-0.0009215269237756,-0.0026402096264064
7.18425048828125,-0.0010328867116943,-0.0053596821359358,0.0546907906085252,-0.000150253647007,0.0008873660117387,-0.000226230447879
7.194228271484375,0.0001049764781259,-0.0083056541936472,0.0431657725095748,-0.0003015212132595,-0.0019433079287409,0.0010656689992174
7.20420751953125,0.0060689446501433,-0.0076098174165934,0.0537882888108491,-0.0001343389158137,-0.0003458578139543,0.0014473585179075
7.214186279296875,-0.0015257482625544,-0.0066836059497669,0.053939679980278,0.0010936446487903,0.0007063569501042,0.0004406836233101
7.22416552734375,0.0018066292968578,-0.0197065892552025,0.050498599615693,-0.0014797619078308,-0.0005478877574205,-0.0008355476311407
7.234144287109375,-0.00636133345915,-0.0108064032345078,0.0487029483705759,-0.0014081229455769,-0.0005140649154782,0.0004073496675118
7.24412353515625,0.0039383623622357,-0.0042955052368342,0.0463069931447505,0.0015498355496674,0.0003191456198692,0.000706231163349
7.254102294921875,0.0170991284368559,-0.0059038172163069,0.0488514169305562,-0.0004065225948579,-0.0003090938553214,8.57146442285e-05
7.26408154296875,0.0128231316180899,0.0027009660543873,0.0506435610443353,0.0002478875103406,0.0013667261227965,0.0015660722274333
7.27406005859375,0.0059305042938329,0.0006114829618483,0.0448076944977045,-0.0010799645679071,-0.0010956320911645,0.0002387527347309
7.284039306640625,0.004938990772143,-0.0010993030114099,0.0460012881964445,-0.0014960193075239,-0.0008850144222378,0.001261138706468
7.29401806640625,0.0017486337656155,0.0014485000415705,0.0368757324546575,-0.000296265236102,-0.0003337394446134,-0.0029136326629668
7.303997314453125,0.0020705409300513,-0.0047479251794517,0.0481008908241987,-0.0025249277241528,0.0019572945311665,0.0001621978590264
7.31397607421875,0.0052092408145777,-0.009905709801428,0.0536363131195306,-0.0015299709048122,0.0005492810159921,-0.0004197028465569
7.323955322265625,-0.0012262721256352,-0.0043701961745508,0.0512386043280363,-0.0002651658141985,0.0012492686510086,0.0006183678633533
7.3339345703125,0.003039459027443,-0.0048531756522133,0.0374696066945791,-0.0014209777582436,0.0007499260827898,0.0005110424826852
7.343913330078125,0.0018935403953306,-0.0080170282443054,0.0471966354608535,0.0004500141367316,-0.0004155999049544,-0.0010301884030923
7.353892578125,-0.0001207768354564,-0.0066258478805422,0.0452507620900869,0.0008612062083557,0.0017266469076275,-0.0013779973378404
7.363871337890625,-3.29706878401e-05,-0.0134729372963309,0.0465969160020351,4.5373220928e-05,0.0001603187993168,-0.000312601099722
7.3738505859375,0.0033034254595637,-0.0010822970776818,0.0492903928697109,-0.0007703530136495,-0.0007981527596712,3.17456360789e-05
7.383829345703125,0.0078944247779436,-0.0046747138127684,0.0513841502785682,0.000883710978087,-0.0001874286681413,-0.0004551109450403
7.39380859375,0.0148125518696382,-0.0048130080386064,0.0436041639268398,0.0014842539094388,-0.0004209885373711,0.0005909787141717
7.403787353515625,0.0065643634842708,0.0007590564726851,0.0421083724111318,0.000219170760829,0.0011280784383416,-0.0002974075614474
7.413765625,0.0042021278649568,-0.0087786237339489,0.0439051927000284,0.0005520658451132,-0.0006125634536147,-0.0003128538955934
7.423744384765625,0.0120199437427334,-0.0012072020989842,0.043159927290678,-0.0002968338667415,-0.0009377049282193,0.0002205249038524
7.4337236328125,0.0046857649297453,-0.0059255723903886,0.0436041639268398,-0.0018979262094944,0.0026042992249131,0.0013007030356675
7.443702392578125,0.0085338551926426,-0.0037276422210037,0.041507483908534,0.000930528040044,0.0003848457708954,0.001715304213576
7.453681640625,0.00222328380635,-0.0005110547946766,0.0443488448143005,-0.0025912360288202,-0.0007461989298462,-0.0003433193778619
7.463660400390625,8.4755674004e-06,-0.0039535964639857,0.0498860206753015,7.90669000707e-05,-0.0019854502752423,-0.0019673523493111
7.473639404296875,0.0017182386273518,-0.0090948866088874,0.0530289948761463,-0.0005350580904632,-0.0002298941835761,-0.0003960874164476
7.4836181640625,-0.0028099245878867,-0.0063787960506044,0.0452472549587488,0.0007569855661131,-0.0001335237175226,-0.0011175683466717
7.493597412109375,-0.0006565642125904,-0.0077032313210889,0.0491366636127233,-0.0019224206916987,0.0002515688538551,0.000897113000974
7.503576171875,-0.0010098346296697,-0.0073730129860341,0.039413141977787,0.0009132928680628,0.0005340203642845,0.0004511305014602
7.513555419921875,0.0023351284166797,-0.0088570409987121,0.0419581502854824,0.0005236723227426,6.23753294348e-05,0.000282286084257
7.5235341796875,0.0047949974578805,-0.0129366932614706,0.0513829812347888,-0.0001985626295208,0.0011308463290333,-0.0022870211396366
7.533513427734375,0.0035773835627362,-0.008258801110927,0.040459436160326,3.25997825711e-05,-5.71897253394e-05,-0.0018207016400992
7.5434921875,0.0018582316199317,-0.0018773016465827,0.040011692392826,-3.23361018672e-05,0.000328374095261,0.0005639194860123
7.553471435546875,0.0074726009029895,-0.0052524589017964,0.0434556953668594,0.00136449187994,0.0005400953814387,-8.26960240374e-05
7.5634501953125,0.0088630871470086,-0.0100259203813038,0.0467453845620155,-0.0001073698513209,-0.0004627956077456,0.0010255095548927
7.573429443359375,0.0128156972303055,-0.0023917722410522,0.0373193845689296,0.0033944207243621,-0.000441757030785,0.0007048649713397
7.583408447265625,0.0148706569987349,-0.0066393649492412,0.0504892472654581,-0.0043326895684003,-0.002049489878118,-4.92071267217e-05
7.593387451171875,0.0072636343274265,-0.0020581563725136,0.0382183792352676,-0.0013131974264979,-0.0008055279031395,-0.0009064786718226
7.603366455078125,0.0088665942783467,-0.0056295485858805,0.0525865118056535,0.0013278666883707,-0.0036687962710857,-0.0014153949450701
7.613345458984375,0.0033356654950417,-0.0008947020837105,0.0626110622137784,-0.001201337436214,0.0011185016483068,0.0011755945160984
7.623323486328125,0.0060197900124825,-0.0088184808203019,0.0504939234405756,-0.0001337582361884,-0.0034356899559497,-6.9726083893e-06
7.633302490234375,0.0061529514054767,-0.0057904017033986,0.0498959575474262,-0.0007580032106488,0.0015462860465049,0.0016985157271847
7.643281494140625,0.0112174317208118,-0.0036226109439507,0.0392722722023725,0.0010077465558424,0.0003893570974469,0.0009226183174178
7.653260498046875,0.0013770239742472,-0.0039291744087822,0.0379226111590862,-0.0007225091103464,-2.98246741294e-05,-0.0006443856400437
7.663239501953125,0.0094219631387852,-0.0045230669150128,0.0376256740391254,-5.7747238315e-06,-0.0011186162009835,0.0022727285977452
7.67321826171875,0.0046788419986143,-0.0036467772708274,0.0418196185976266,-2.04221578314e-05,-0.0028976080939173,0.0018799123354256
7.683197265625,0.0085105656486004,-0.0017714666519314,0.0466109445273876,0.0005512095522135,-0.0015743738040328,-0.0015433384105563
7.69317626953125,0.007336571699474,-0.003336122152768,0.0329962606728076,0.0011610734509304,0.0001827795058488,0.0008111622883006
7.7031552734375,0.0042110966227017,-0.0025759514352306,0.0434714774578809,-0.0004631942720152,-0.0006725862622261,-3.49435431417e-05
7.71313427734375,-0.0005913352229632,-0.0022331476132385,0.0409253001064062,0.0010617317166179,-0.0001061325892806,-0.0014765126397833
7.72311328125,0.0079217694425955,-0.004124569116719,0.0404734646856784,-0.0018501898739486,0.0008569518104195,-0.0008962946012616
7.73309228515625,0.0061013856150209,0.0006188990833237,0.0548375056028366,0.0031102139037102,-0.0001353416591882,0.0006054618861526
7.7430712890625,0.001244209641125,-0.0060319553743116,0.0491512766599655,0.0019402026664465,0.0014950996264815,-0.0012758724624291
7.75305029296875,-0.0017922719779424,-0.0011144457816146,0.0488531704962253,0.002033413387835,0.0020716739818453,0.0010309575591236
7.763029296875,-0.0018646248281002,-0.0071013747041113,0.0392746102899312,-0.0012082209577783,-0.000268024392426,-0.0009290567832067
7.77300830078125,0.0053544214389286,-0.0073773786338977,0.0418137733787298,0.0013076672330498,-1.26278027892e-05,1.21042976388e-05
7.7829873046875,0.0095611706800758,-0.0048516047496348,0.0564782585471868,0.0011021447135135,-1.60513445734e-05,-0.0005348299164324
7.79296630859375,-0.0033690197753719,-0.0163642382910475,0.0515425557106733,0.000640618847683,-0.0004094010218977,0.0033073124941438
7.8029453125,-0.002656140531972,-0.0039151824160479,0.0443593662083148,-0.0003667750861495,9.10433009266e-05,-0.0021387599408626
7.81292431640625,0.0100334643669426,-0.0038438159465789,0.0439086998313665,-0.0022877131123095,-0.0002237418666481,-0.0002734819136094
7.8229033203125,0.0076973861021921,-0.0098141590604558,0.0486982721954584,8.56969272717e-05,-0.0007368950173258,-0.0008617790881544
7.832881591796875,0.0056398873168043,-0.0064578161035664,0.0521457823008298,-0.0010285696480423,-0.0005890894681215,0.000445566693088
7.8428603515625,-0.0054005438692867,-0.0040640163022093,0.0383797072768211,-0.0021524338517338,0.0003256788477301,0.0009531746036373
7.852839599609375,0.0103560108521953,-0.0001091411965899,0.0395762235850095,-0.002486394252628,0.0010801525786519,-0.0009829434566199
7.862818359375,0.0050261941315606,0.0048904389226809,0.0491495230942964,-0.0014067121082916,-0.0018601603806018,-0.0016221615951508
7.87279736328125,0.0015640161800198,-0.0040377493497915,0.0427127680450677,-0.0020282939076423,0.0019348440691828,-0.0002162788878194
7.882776123046875,0.0009358560780063,0.0042927470241673,0.0458534041583538,-0.0013535133330151,0.0010555395856499,0.0001286125625483
7.89275537109375,0.0090722729182802,-0.0051836679819039,0.0483943208128213,0.0002249422250315,-0.0019634198397397,5.08482553414e-05
7.902734130859375,0.0049956345965154,-0.0086020250580273,0.0476490554034709,-0.000392238900531,-0.0009010806679725,2.42053356487e-05
7.91271337890625,0.0070404382971115,-0.0053524304112419,0.0379237802028656,0.0009851480135694,0.001191365532577,-0.0008027061703614
7.92269189453125,0.0042254356753081,-0.0116190895905718,0.0419610728949308,0.0018098170403391,0.0020838426426053,-0.0002356534241698
7.9326708984375,0.0037143808806315,0.0005076572611927,0.052434536114335,0.0017941044643521,-0.0007641417905688,0.0009507848299108
7.94264990234375,0.0064360974621027,-0.0058173810418695,0.0479477460891008,0.0026574260555207,-0.0010214420035481,0.0010582392569631
7.95262890625,0.0053837388649582,-0.0066632207488641,0.0476554851442575,0.002395104849711,-0.0028856545686721,-0.0003409855708014
7.96260791015625,0.0011147380425594,-0.0046019408375024,0.037926702812314,-0.0004350814851932,0.0028066355735063,-0.0015557225560769
7.9725869140625,-0.0037227103175595,0.0005929609244689,0.0485492191135883,0.0014986398164182,-0.0007454883307218,-0.0010204272111877
7.98256591796875,-0.0016277473323047,9.2427523806e-06,0.0512426959812641,0.0003197262994945,0.0008164169266819,-0.0012687928974628
7.992544921875,-0.0014354944295249,0.005104337401688,0.0491489385724067,-0.0007535276236012,0.0003586187958717,0.001574131543748
8.00252392578125,0.0015431560550816,0.001950878339447,0.0492979916542768,0.0004484467208385,-0.0009135892614722,0.001219319878146
8.0125029296875,0.0050058089306578,0.0080173205052502,0.041369536742568,0.000183195923455,-0.0012861657887697,-0.0009290522430092
8.02248193359375,0.0112109471810981,-0.0040755240769125,0.0394289240688085,0.0015946640633046,-0.0003705592826008,0.0021910176146775
8.0324609375,0.0039158217368647,-0.0083878891170024,0.0346381826609373,-0.0001377222943119,0.0021149683743715,-0.0015568491071462
8.04243896484375,0.003175999687612,-0.010336849493999,0.0371814374029636,0.0003906373749487,-0.0012697577476501,-0.0007794990669935
8.05241796875,0.0005112557240761,-0.0054693165228702,0.0464613069236278,0.0001906339894048,0.0003819344565272,-0.0014583388110622
8.06239697265625,0.0002826893988996,-0.0003557546351104,0.0484083493381738,-0.001586876111105,-0.0011121844872832,4.1637467802e-06
8.0723759765625,0.0047693332936614,-0.0028232772598043,0.0445130954653024,-0.0010936587350443,0.0013624252751469,0.0001895197492558
8.08235498046875,0.0023924846271052,-0.0034724618835374,0.0457125343829393,0.0018430149648338,-0.0007124971598386,0.0005419688532128
8.092333984375,0.0069822783690877,-0.0013230835636146,0.0451145684897899,0.0014752324204891,-0.0009290119633078,0.0007161396206356
8.102312744140624,0.0029460085903294,-0.0036642215959727,0.0446662402004003,0.0009460897417739,-0.0009598424658179,-0.0004599142121151
8.1122919921875,-0.0052354529680684,-0.000782930538617,0.0511024107277393,-2.64967093244e-05,-0.0003249440342187,0.0014546322636306
8.122270751953126,0.0031124329321086,-0.006682948362641,0.0482604653000831,0.0032297600992023,0.0010823477059602,0.0021383946295827
8.13225,0.0037451413450762,-0.0056473765035159,0.0392851316839456,0.0019602312240749,-0.0016987910494208,-0.0003364808508194
8.142228759765626,-0.0061878948546946,-0.0047410570472478,0.0431780474692583,-0.0013455396983772,-0.0011403197422623,-0.0014858153881505
8.1522080078125,0.0038922216655686,-0.0047585013723932,0.0418348161667585,0.0020318811293691,0.0023761186748743,6.84054393786e-05
8.162186767578126,-0.0022288732969202,-0.013948811179772,0.0496148025184869,-0.0005747141549363,0.0019942549988627,0.0022876812145113
8.172166015625,0.0009186857474967,-0.0069968731500208,0.0433282695949077,0.000800808542408,-0.0018196580931544,-0.0004937243647873
8.182144775390626,-0.0090199034102261,-0.0027938319696113,0.0520095887005329,0.0005125210154801,-0.0023752767592668,-0.0011485882569104
8.1921240234375,0.0018517105475999,-0.0042492732086218,0.0416840095192194,0.000460056704469,0.0011499496176838,-0.0013525863178074
8.20210302734375,0.0087179065226577,0.0099186423482373,0.0437742597967386,-1.47182727232e-05,-0.0005483645945787,0.0004279128625057
8.21208203125,0.0115435218700207,0.0058605625964701,0.047816813185811,0.0003282967954874,0.001711593940854,-0.0015998180024325
8.22206103515625,-0.0032821269432082,0.0024062026252038,0.0457213022112846,-0.0007262320723384,0.0006458135321736,0.002609719755128
8.2320400390625,-0.0008178191889077,-0.0007834602615796,0.0457218867331743,-0.0014727161033079,-0.0003829654306173,0.0013822688488289
8.24201904296875,0.0070957852135412,-0.0067043199442327,0.0506605121791362,0.00128150137607,0.0007002279162406,-0.0004933745949529
8.251998046875,0.0070446030155755,-0.0088108089704997,0.0404839860796928,0.0002497928217053,4.82853502035e-05,-0.0004030934360343
8.261975830078125,0.0074754869798198,-0.0060942069555632,0.0566483544170856,-0.001586087513715,-0.0012504234910011,0.0020469862502068
8.271955078125,0.0099808573968708,-0.0055925593100488,0.0391477690398693,0.0006690773880109,-0.0041274363175034,-0.0016569382278248
8.281933837890625,0.0041701252914965,-0.0115680352567695,0.0419914680331945,0.0003237270284444,0.0015447875484824,-0.002944717882201
8.291912841796876,0.0006562354190275,-0.003515625171829,0.0533615878313779,-0.0005636382265947,-0.0001367321237921,-0.0010701187420636
8.3018916015625,-0.0064887592311017,-0.0062328117086552,0.042288989675045,0.0004575384082272,-0.0004747519269585,-0.0014091826742514
8.311870849609376,0.0038030455447733,0.0072729684113524,0.0449824665427207,-0.0019680685363709,5.38853928446e-05,-0.0004922563675791
8.321849609375,-0.0012640833853743,0.0023263605883345,0.041986791858077,0.0023607783950865,-0.0004157377406954,-0.0014919736422598
8.331828857421876,0.0045935566016472,-0.0065077561925165,0.03271218303442,-0.0016052010469138,0.0003525838255882,-0.000450677704066
8.34180810546875,0.0117818241379223,-0.0034926461550407,0.0460275916814804,-0.0015173787251114,-0.0009069349616765,-0.0002735829912126
8.351786865234375,0.0083039371605962,-0.0063018400905653,0.0455786788702011,-0.0022161921951919,0.0035594524815678,0.0021008914336562
8.36176611328125,0.004378616943024,-0.0059254079936072,0.0530547138392925,0.000122383935377,-0.0010755760595202,-0.0012899076100438
8.371744873046875,0.0048680444277822,-0.0065108066661283,0.044081133788824,-0.0031913872808218,-0.0010976810008287,0.0001242308935616
8.38172412109375,0.0061413888318464,-0.0076486515896394,0.043932080706954,0.0003458578139543,-0.0028359210118651,0.0004520242800936
8.391702880859375,0.0022472492038272,-0.0062759384643286,0.0481219336122274,0.0011994008673354,0.0008187349885702,-0.0012539966264739
8.40168212890625,0.001920702396892,-0.006701306003239,0.0469219101727008,-0.0010812144028022,0.0005423622205853,0.0001661838759901
8.411660888671875,0.0056693691396154,-0.0049241950618103,0.0407896910279989,0.000912428018637,-0.0027005691081285,-0.000289216695819
8.42164013671875,0.0066662529561668,-0.0029433599755167,0.0443839161276817,8.24085436761e-05,0.0009406693279743,-0.0014419385697692
8.431618896484375,0.0131906132236123,-0.0065833239130675,0.0440823028326034,0.0002331434516236,0.0002232138067483,0.0009490475058555
8.44159814453125,0.0011016958978958,0.007807221418526,0.0404921693861484,0.0008980394341051,0.001867794431746,-4.94630075991e-05
8.451576904296875,0.0029159057130105,-0.0059320386637933,0.0445294620782136,0.0014828694984316,-0.0001926934346556,-0.0006137868622317
8.46155615234375,0.0102482396287843,-0.0038337146776728,0.0502162755429744,0.0005071585765108,-0.0008945055305957,-0.0023324454668909
8.471533935546875,-0.0014962299071252,0.0002586326698772,0.0476724362790584,-0.0002073675859719,-0.0014340616762638,0.0008194058318622
8.48151318359375,-0.0033878523400053,-0.0026890198882669,0.0545540124863386,-0.0005899849929846,0.0014497572556138,0.0020348723046481
8.49149169921875,-0.0010792831366881,-0.00122965139281,0.0529056607574224,0.001421766821295,-0.0011878367513418,-0.0004820810863748
8.501470947265625,0.0028833734165877,-0.0034522593457251,0.0422831444561481,0.0014451120514422,-0.0006133196875452,0.0006266691489145
8.51144970703125,0.0091120386730879,-0.0031157939329743,0.0448293218076229,0.0015087614301592,0.0012130755931138,0.0002298581821378
8.521428955078125,-0.002608648128435,-0.0004794358137063,0.0349509018719196,9.87435923889e-05,0.000781605951488,0.0005959377740509
8.53140771484375,0.0073015003860928,-0.0052655741116963,0.0436263757586479,0.0033296907786279,0.011930663138628,0.0003716995706781
8.541386962890625,-0.0050886101095937,0.0053623124844394,0.0840051478981971,-0.0008426872082054,-0.0066873389296233,-0.0003631672880146
8.55136572265625,0.0222185538098216,-0.0051908283750526,-0.0168441672950983,-0.0003321592230349,0.0061432383954524,0.0010179480304941
8.561344970703125,0.0063977564794011,0.0027143004599958,0.0665016399115323,-0.0045553841628134,-0.0068908957764506,0.0021094612311571
8.57132373046875,0.0062106546757742,-0.0008572378838434,0.0214683199644088,-0.0012581244809553,-0.0024098604917526,-0.0035721266176551
8.581302978515625,0.0009029036564752,-0.0027202370104379,0.0639700756072998,-0.0010946316178888,-0.0009836414828896,0.0013984941178932
8.591281982421876,-0.0013118497835472,0.0061199259187094,0.0554424857586622,-0.0004946214612573,-0.0036156433634459,-0.0016524231759831
8.601260986328125,0.0024764183172024,0.0031707207242958,0.0596340922296047,-0.0006264752009883,-0.0002809520810842,0.001483475905843
8.611239990234376,0.0036910548039712,0.0002838036437518,0.05664017111063,0.0024068653583526,-0.0003355471417307,4.93637053295e-05
8.621218994140625,0.0051894401355646,-0.0145463569478131,0.0352455009043216,0.0009312605252489,-0.0016025528311729,-0.0001954970066435
8.631197998046876,0.0084320753186009,-0.0080811429890803,0.040931145325303,0.0015999804018065,0.001692309975624,0.0007097114576026
8.641177001953125,-0.0020407668462954,-0.0095606226908043,0.0521568882167339,0.0058586886152625,-4.06885519623e-05,-0.0004045639652758
8.651156005859375,0.0093258092879317,-0.002017075443454,0.0487187304615974,0.0011744544608518,0.0007574604824185,-0.0004964430700056
