seconds_elapsed,ax,ay,az,gx,gy,gz
0.077622314453125,0.0002468326342292,-0.0059903629885986,0.0434083490937948,0.0009441169095225,-0.0002173501998186,0.0011481817346066
0.087601318359375,-0.0034687355564907,-0.0039307635776698,0.0438572619050741,-0.0009477927815169,-0.0001411838456988,-0.0001431851123925
0.097580322265625,-0.0040228257752954,-0.004570614117477,0.0537333437532186,-0.001774504315108,-0.0006352802738547,-0.0033353921025991
0.107559326171875,0.0053188204025849,0.003762731800694,0.0496942974954843,-0.0005617007263936,-0.0012605907395482,-0.0016578669892624
0.117538330078125,0.0047575332580134,0.0140032995796762,0.0456558357596397,-0.0014172410592436,0.0009147319942712,-0.0012630915734916
0.127517333984375,0.0050781069818884,0.0037461825246922,0.0474538250923156,-0.003297699149698,-0.0020648119971156,-0.0015435223467648
0.137496337890625,0.0079447301930747,-0.0025233079325407,0.0487988099604845,-0.0016770767979323,-0.0005762297660112,0.0015188721008598
0.147475341796875,0.0017173435782082,-0.011616404443141,0.053736266362667,-0.0002509540645405,0.0005305800586938,-0.0010646604932844
0.157454345703125,-0.0012702208652161,-0.0073811962924897,0.0417699342370033,0.000162744836416,-0.0018262732774019,0.0016313553787767
0.167433349609375,0.0011433065499179,-0.0053206287671811,0.0431160881489515,0.000620275910478,0.0008430136367678,0.0023935521021485
0.17741259765625,0.0007653218166902,-0.0018822700826451,0.0528437014371156,-0.0001848195679485,0.0007329629734158,-0.0001507150300312
0.187391357421875,0.00214114021454,-0.0081843841678462,0.0501502245694398,-0.0010420911712571,-0.0007373681291937,-0.0024349081795662
0.19737060546875,-0.0095888806709088,-0.0050013519512489,0.0552384876191616,0.0015710024163126,0.0010164827108383,-0.0004715493705589
0.207349365234375,-0.0061368770535103,-0.0028645773845724,0.0441623823314905,0.0029430629219859,0.000560550019145,0.002295474987477
0.21732861328125,-0.0046708048226311,0.0013354681211523,0.0446136332303285,0.0021260946523398,6.8610534071e-06,0.0014605233445763
0.227307373046875,-0.0108495847891084,-0.0008360854979604,0.0393763170987367,0.0011085008736699,-0.0001678429543972,-0.0022782883606851
0.23728662109375,-0.0074730758270248,0.0054568954327143,0.0354845703572034,0.0012198621407151,0.0014494070783257,-0.0002195974666392
0.247265380859375,0.0033074440475553,0.0043606428949162,0.0405681572318077,-0.0020648806821554,2.27512791752e-05,-0.001180732389912
0.25724462890625,0.0003335428033024,0.0030706030843779,0.0399649306416511,-0.0013682204298675,-0.0003728959709405,0.0014919429086148
0.267223388671875,0.0021536891688592,-0.0037367205766029,0.0405628965348005,0.0007263556472025,6.2265433371e-05,0.0013952701119706
0.277202392578125,0.0037542379669845,-0.0087581654678098,0.0513373885273933,-0.0005166101036593,-0.0043218038044869,-0.0005597101408056
0.28718115234375,0.0002338635548017,-0.0105146902789361,0.0562812746703624,-0.0011110276682302,0.0003895945847034,-0.0015999408205971
0.297160400390625,0.003558277003467,-0.005653294787649,0.0431155036270618,0.0005022534751333,-0.0001244768500328,-0.001200309023261
0.30713916015625,0.0002787438761442,-0.0110698034110479,0.0407236400544643,0.0003163648652844,-0.001306121237576,0.0010644431458786
0.31711962890625,-0.0023866211418993,-0.0033685083187185,0.0434223776191473,-0.0008847421268001,-0.0027247965335845,-0.0006537809967994
0.32709814453125,-0.0016961181270889,0.0063199968017637,0.0432768316686153,0.0003845204482786,7.92453065514e-05,-0.001526765176095
0.337077392578125,0.0036543760553933,0.0008144033891148,0.049411388900876,0.0001420375774614,0.0008014412596821,-0.0002620736486278
0.34705615234375,-0.0029798743273131,-0.0016789660628885,0.0438724594742059,-0.0032031589653342,-0.0001301327720284,-0.0013118918286636
0.357035400390625,0.0063868880255147,0.00179906704491,0.0464162987381219,-0.0002073125215247,-0.0019482411444187,0.0008924479479901
0.36701416015625,0.0012238244402222,-0.0006697890203446,0.0516565374791622,0.0017471814062446,0.000276830047369,-0.0007778866565786
0.376993408203125,-0.0036277620431035,-0.0006654964377172,0.0456722023725509,0.0021948122885078,0.0002149753272533,-0.0007284032180905
0.38697216796875,0.0030621823159046,-0.0011672902137041,0.0351958165436983,-0.000982871511951,-0.0010755928233265,-0.0012461217120289
0.396951416015625,0.0001005925639532,-0.0019994849878363,0.0497094950646162,-0.0009707403951324,0.0017787776887416,-0.0008798977360129
0.406930419921875,0.0017315365003421,0.0005976553658954,0.0431236869335174,-0.0006951031973585,0.0001957947388291,-0.0002426032588118
0.416909423828125,0.0071035301285795,-0.0024545718115754,0.0458159947574138,-0.0006071749958209,-1.479126513e-05,-0.0015337190125137
0.426888427734375,0.0068999703804962,-0.0050833676788955,0.0482096118956804,0.0009457142441533,0.0020054830238223,-0.0019824616611003
0.436867431640625,-0.0057984754119999,0.0009320018867962,0.0512035330146551,0.0026278982404619,-0.0021757837384939,-0.0004291164514143
0.446846435546875,-0.0009514372396282,-0.004939684891887,0.044021512556076,-0.0044976556673645,0.0001158658415079,-0.001636593719013
0.456825439453125,0.0050974692694842,-0.0056548474239185,0.038631636211276,-0.0031846268102526,0.0012593017891049,-0.0001301749725826
0.466804443359375,0.0004590140801854,-0.0052087293579243,0.052697570964694,0.0009693719330243,-0.000244584865868,0.0004285562317818
0.476783447265625,-0.0038909064913168,-0.0049468452850356,0.0535971501529216,0.0006351227057166,0.0017001526430249,-0.0023802176583558
0.486762451171875,-0.0112436073416844,-0.0083274824329651,0.0408785383552312,-0.0018546666251495,-0.0010801870375871,0.0004904037341475
0.496741455078125,-0.0002865253238007,-0.0049399223539046,0.0411772290408611,-0.0001473449519835,-0.0019668117165565,-0.000102338643046
0.50672314453125,0.0012481916964985,-0.0014988602556288,0.0419265861034393,0.0001293575041927,-1.95084139704e-05,0.0007272360380738
0.516702392578125,-0.0030812158099375,-0.0046155675040557,0.0467155739456415,-0.0010527000995352,0.0005939099937677,0.0002001265384024
0.52668115234375,0.0023774514547549,-0.0051451808687299,0.0468622889399528,0.0002421287936158,-0.0003416584804654,-0.0013698069378733
0.536660400390625,0.0038510859375819,-0.0093392898240126,0.0423725763052701,-0.0005848741857334,-0.0003978572785854,0.0006639446946792
0.54663916015625,0.0050518217631615,-0.0104590145689435,0.0518009143859148,0.0010713457595556,0.0008924435824155,6.55323965474e-05
0.5566181640625,0.0024058920979499,-0.0078510240276344,0.0462654920905828,0.0022130233701318,0.0016248021274805,-0.0002343761007068
0.56659716796875,0.001483680952806,-0.0004025711852125,0.0531505754292011,0.0027957230340689,0.0016543632373213,0.0014090605545789
0.576576171875,-0.0018298275093547,-0.0100502876375801,0.0556914920836687,0.0001169243478216,-0.0004835752770304,-0.0022669222671538
0.58655517578125,-0.006682619569078,-0.0043849370859563,0.0411783980846405,0.0028360118158161,-0.0019882610067725,0.0017821480287238
0.5965341796875,-0.0033292174879461,0.0028293782070279,0.0528513002216815,-0.0005413310718722,0.0021636122837662,0.0003964015631936
0.60651318359375,-0.006947024392616,-0.0017460947486571,0.0419254170596599,-0.0011107148602604,-0.0005964878946542,0.0012097309809178
0.6164921875,-0.0028765966159291,-0.0095916023509576,0.0434241311848163,0.0010512801818549,-0.0015002368018031,-0.0015740375965833
0.62647119140625,-0.0059040364120155,0.0011824147175997,0.0371446125239133,0.0021921785082668,-0.0021135620772838,-0.0009718968649394
0.6364501953125,-0.0076101462101563,-0.0017092881359159,0.0483680173277854,-0.0009840133134275,0.0001425687223672,0.0005503151915036
0.64642919921875,-0.0011361096241511,-0.0033137276578694,0.0428331795543432,0.0024695741012692,-0.0027943653985857,-0.0001945710100699
0.656408203125,-0.0003099792646244,0.0011805880866944,0.0503191513955593,0.0003684046678245,-7.19018280506e-05,-0.0004286263138055
0.66638720703125,-0.0068184113105759,-0.0043580125464126,0.04927344173491,-0.0003663615207187,-0.0021204054355621,-0.0005609853542409
0.6763662109375,0.0005264898258261,0.0019505860785022,0.04807984803617,0.0002296369057148,7.7802687883e-06,-0.0006357808015309
0.686345458984375,0.0092620416030287,-0.0012328479968942,0.0385065485268831,-0.0006342925480566,0.0001209648326039,0.0006694344338029
0.69632421875,0.0010799955227412,-0.0001271517773158,0.0456909070730209,0.0023585935123264,-0.0015415968373417,-0.000324730790453
0.706303466796875,-0.0012473879789002,-0.0020096958545967,0.0407581268459558,0.0014523199060931,0.0003633620217442,0.0011586499167606
0.7162822265625,0.0050982547207735,-0.0056362157886847,0.0537777674168348,-0.0017880399245768,-0.0005141822621226,0.002449846593663
0.726261474609375,0.0059390711927786,-0.0079057316232472,0.0421072033673524,0.0011430350132286,-0.0014351038262248,-0.0009350312175229
0.736240234375,0.0108884006958454,-0.0043984358883462,0.0510872131586074,0.0016447503585368,0.0014092568308115,0.0014829735737293
0.746219482421875,0.005660235985089,-0.0018852474910207,0.0534837529063224,0.0011238360311836,-0.0010730763897299,-0.0004041423671878
0.75619921875,-0.0014746208635158,0.0096225089458748,0.0609662176162004,0.0007447763928212,0.0001215152442455,-0.0011005206033587
0.76617822265625,0.0001253068801015,-0.000136230132915,0.05423427901268,5.3419789765e-05,0.0002059377729892,0.0022396158892661
0.7761572265625,0.0043208771401084,-0.0047754707735031,0.0489975474029779,0.0010954360477626,-0.000958364456892,-0.0004852918209508
0.78613623046875,0.0110038072364404,-0.0005710596199147,0.0482481903403997,6.29284768365e-05,0.0018930826336145,-0.0009665250545367
0.796115234375,0.002147369025927,-0.0091876794588752,0.0427092609137296,-0.0016904573421925,-0.0020216507837176,-0.0024684143718332
0.80609423828125,-0.008131631067302,8.66919027641e-05,0.0397176778823137,0.0001657659304328,-0.0010325526818633,0.000240020424826
0.8160732421875,-0.0105904771951958,-0.0074183316987939,0.048394905334711,0.0008747424581088,0.0010309573262929,0.0005375915789045
0.82605224609375,-0.0071592423711903,-0.0059401123723946,0.0431570046812295,-0.0013149086153134,0.0016890242695808,0.0020012650638818
0.83603125,-0.0097340430289506,-0.0050646081794984,0.0981815572887659,-0.0033454140648245,0.0292135179042816,-1.73129719769e-05
0.84601025390625,0.0188111382528208,-0.0023046602131798,-0.0278185657739639,-0.0016111636068671,-0.0275757275521755,0.0008639270090498
0.855989013671875,0.0079199062790721,0.0033972960217855,0.0326566534548997,0.0010219136020168,0.0104727074503898,-0.000102909769339
0.86596826171875,-0.0142937704262323,0.0052842240132391,0.0767997465640306,0.0016893019201233,-0.0057608564384281,-0.0015119882300496
0.875947021484375,-0.0107885205179452,0.0032067784183658,0.0305669876992702,-9.58499731495e-05,-0.0010218918323516,0.0001673875085543
0.88592626953125,-0.0094849636387079,0.0020372231823392,0.052121232381463,0.0011755430605262,-0.0021135210990905,0.0009378400282002
0.8959052734375,0.0012597360038198,0.0016201120151206,0.0485328525006771,0.0005975500680506,-0.0025474913418293,0.0016083881491795
0.90588427734375,0.0086477273632772,-0.0049284328455105,0.0426993240416049,0.0001605253200978,0.0004589511081576,0.0006443238235078
0.91586328125,0.0111587603361345,-0.0038236499413847,0.0486848281919956,0.0010855086147785,-0.0001369845122098,0.0014527222374454
0.92584228515625,0.0025080555644817,0.004558138228394,0.0446451974123716,0.002685802290216,0.0003000404685735,0.000133924811962
0.9358212890625,0.0089913714354857,0.0026046478067524,0.0533253474742174,0.0014523962745442,-0.0016954988241195,-0.0018621169729158
0.94580029296875,0.0090286895048804,0.0079601469579152,0.0555704960525035,0.0003003127640113,0.0020012352615594,-0.0001872548891697
0.955779296875,-0.0050564614056609,0.0128969275066629,0.0317775325328111,0.0009123574709519,-5.93978911638e-05,0.000230847945204
0.96575830078125,-0.0015699161978438,0.005223525068257,0.0437479563117027,-0.0016892845742404,0.0005805594846606,0.0008242002222687
0.9757373046875,-0.001840988224186,-0.0001628441452048,0.0359615402191877,0.0016942399088293,0.0012507084757089,-0.0023303593043237
0.98571630859375,-0.0014950973959639,-0.0023480792297981,0.0471861140668392,0.0003980792826041,-0.0024683959782123,-0.0028853621333837
0.9956953125,0.0071236961337737,0.0080261431325227,0.0546709168642759,0.000495441025123,0.0005814116448163,-8.04813753347e-05
1.00567431640625,0.0042582237000577,-0.0023513671654276,0.0419505515009164,0.0007074286695569,0.0005398662760853,-0.0014176545664668
1.0156533203125,0.0004638181194663,-0.0092936057850718,0.0510796143740415,-0.0017710648244246,-0.0009750537574291,-0.0011923066340386
1.02563232421875,0.0026164661087095,-0.0038405645435675,0.0440489850848913,0.0016574886394664,-0.0008767833933234,-0.0018322642426937
1.035611328125,0.0052209495186805,-0.0018653920130804,0.0477893406569957,-0.0007438836037181,3.93437221646e-05,0.0012693095486611
1.04559033203125,-0.002662387609668,0.0014342888531275,0.0392611662864685,0.0003120597684755,0.0001426748931407,0.0012285632546991
1.0555693359375,0.0049039742576889,-0.0009095891255885,0.0436024103611707,0.001452483353205,0.0005935747176408,-4.61854142486e-05
1.06554833984375,0.0028969452842138,-0.0108367618401534,0.0494423685610294,0.00274438271299,-0.0002168249338865,-0.0007069156854413
1.07552734375,-0.0025443689868785,-0.0005439889498986,0.0443564435988664,0.001586154452525,-0.0007664142176508,0.0004033839795738
1.085506103515625,0.0073177391348406,-0.0008171798680908,0.0482493593841791,0.0025949599221348,0.0006629042327404,-0.0013574981130659
1.095485107421875,0.0050640784565359,-0.0019077881163917,0.0537877042889595,0.0016450360417366,-0.0006629908457398,0.0002480233088135
1.105464111328125,-0.0007356755970977,0.0080836820060387,0.0493014987856149,0.0016527590341866,-0.00173145160079,9.6704061434e-06
1.115443115234375,0.0003291954217478,-0.0073358593134209,0.0464618914455175,-0.0006557778106071,-0.0016218265518546,0.003045113524422
1.125422119140625,-0.002934446016699,-0.0024375841441564,0.0490057307094335,0.0002118800184689,0.0004455856978893,-0.0003600042837206
1.135401123046875,0.0005606478237546,-0.0070304283597506,0.0466109445273876,0.0007485626265406,0.0001381477341055,0.0015217026229947
1.145380126953125,-0.0020230485265143,-0.006420242305845,0.0443693030804395,-0.0005292220739647,-0.0018333904445171,0.0013035897864028
1.155359130859375,0.0060926360529847,-0.0028031112546101,0.0433230088979005,0.0002637124271132,-0.0012654904276132,-0.0025452659465372
1.165338134765625,-0.0029465383132919,0.0028480463748797,0.0415291112184524,-0.0021413883659988,0.0002948557958006,-0.0002890357864089
1.175317138671875,0.0093086937563493,-0.0040492023255676,0.056492871594429,-0.0015436375979334,-0.0019355043768882,0.0004480543429963
1.185296142578125,0.0072420435501262,-0.0010826806701719,0.0398866047084331,-0.0014549542684108,-0.0015296386554837,0.0001098328793887
1.195275146484375,0.0028705870002508,-0.0060062729437835,0.0467734416127204,-1.4052609913e-05,-0.0024657770991325,-0.0004966235137544
1.205254150390625,0.0021925050755962,0.0001359926708973,0.0491664742290973,0.0007870262488722,0.001316444016993,-0.0002681243058759
1.215233154296875,0.006495462966524,-0.0039282062944024,0.0415302802622318,-0.0003450923832133,0.0025012586265802,0.0006442140438593
1.22521337890625,0.0012554616875015,-0.0103166104235686,0.039884851142764,-0.0003003512974828,0.0014687506482005,-8.65573674673e-05
1.235192138671875,-0.001498951587174,-0.0050072519690729,0.0424286904066801,0.0001422581844963,0.0008814353495836,-0.0008130340720526
1.24517138671875,0.0031009616900235,-0.0158405432105064,0.0481131657838821,-0.0015943890903145,0.0016883732751011,0.0015185633674263
1.255150146484375,0.0035669900328852,-0.0044927083093672,0.0415256040871143,0.0004453657893463,0.0005386592820286,-0.000460959796328
1.26512939453125,0.006534954726696,0.0018310696183703,0.0424234297096729,0.002023555105552,-0.0008762776851654,-0.00037813547533
1.275108154296875,0.0029270846941508,-0.0042118090087547,0.0527495934128761,0.0009868282359093,-0.0012511704117059,0.0024705547839403
1.28508740234375,-0.0009244031022302,0.001634432801418,0.0475134463250637,-0.0017253349069505,-0.0001933630555868,0.0003818374243564
1.295066162109375,0.0011173318584449,1.90517603419e-05,0.0521487049102783,0.0017793363658711,-0.0005282824859023,0.0018654041923582
1.30504541015625,0.0078789166815578,0.0008439582771621,0.0428735115647316,-0.0023357798345386,-0.0013629179447889,-0.0006893661338835
1.315024169921875,-0.0010713190259411,0.0037983328370377,0.0368880074143409,-0.0002196377608925,0.0003771418705582,-1.7021448002e-06
1.32500341796875,-0.003616126404237,-0.0034273441001772,0.0473643932431936,0.0004072703886777,0.001499930396676,0.0021344195120036
1.334982177734375,-0.0061526043456047,0.0030344540587626,0.0528980619728565,0.0003673736937344,0.0008000135421752,-0.0011008989531546
1.34496142578125,0.0011598192933015,-0.004500581088569,0.0443669649928808,-0.0006614053854718,0.0004735104739665,0.0021918332204222
1.354940185546875,0.0036301366632804,-0.0019993571236729,0.0454155972629785,0.0009301198879256,0.0003273636102676,0.0011492070043459
1.36491943359375,0.001170395486243,-0.007300185211841,0.0395773926287889,7.73756764829e-05,0.0008959490805864,0.0001710278738755
1.374898193359375,0.0008805822268128,0.0056039026879705,0.047505263018608,-0.0027436641976237,-2.45282426476e-05,0.0001582873082952
1.384877197265625,0.0083703717266209,-0.0088707955294288,0.0503466239243745,-0.0019569664727896,0.0004942556843161,0.002343411091715
1.39485595703125,0.007959032713063,-0.0014914806667715,0.0380722487628459,-0.0019835978746414,0.0004335353150963,0.000767016725149
1.404835205078125,0.0040172545510344,0.0089555512034334,0.0461544329315423,0.00082257471513,-0.0016959281638264,0.0009875264950096
1.41481396484375,-0.0022815715985372,0.0024477402119897,0.044060675522685,0.001272469991818,-0.0001523764804005,-0.0002138426498277
1.424793212890625,0.0007796426029875,0.0083641246489249,0.0454103365659713,-0.0004466005484573,-0.000778486020863,0.0010178693337365
1.434772216796875,-0.000185421303194,0.0040208530139178,0.0379272873342037,0.0008881983812898,0.0002683047205209,0.0002851299359463
1.444751220703125,-0.001399126208201,0.008190192854125,0.0513940871506929,0.0019481366034597,0.0022259950637817,-0.0005047636223025
1.454730224609375,0.0014652502469718,-0.0035545689427293,0.0588742137730121,0.0013699207920581,0.0015094261616468,5.68062387173e-05
1.464709228515625,-0.0010366678376682,-0.0065664093108847,0.0406190106362104,-0.0024791460018604,-0.0017899638041853,-0.0001128371222876
1.474688232421875,-0.0034407333047129,-0.0067174351541325,0.0481043979555368,0.0017893189797177,-0.0021261991932988,0.00119103200268
1.484667236328125,0.0058207420427352,0.0009722973645664,0.0536415738165378,0.0015712060267105,-0.0001440085470676,-0.0004649214679375
1.494646240234375,-0.0006636515405029,-0.0061686786975711,0.0484036731630563,-0.0001989711308851,0.0009832708165049,-0.0020100222900509
1.504622314453125,0.0046542920792475,-0.0059027943029999,0.0373287369191646,-0.0007166896248236,0.0008671572431921,-0.0001588591258041
1.51460107421875,0.0048391653931699,0.0025540501306764,0.0510948119431734,-0.0006642945809289,-0.0012538861483335,-0.0009555503493174
1.524580322265625,0.0062501647022552,0.0024872319721616,0.0484013350754976,0.0004393194103613,-0.0003950167447328,0.0012210512068122
1.53455908203125,0.0059520037395879,-0.0003647416591644,0.0431640189439058,-0.0023581073619425,-0.0005148872733116,-4.05170976591e-05
1.544538330078125,-0.0021491591242142,-0.0031875987938605,0.0557335776597261,0.0011857610661536,0.0013442654162645,0.0007445827359333
1.55451708984375,0.0031764198127202,0.0037125542497262,0.0457066891640424,0.0023604750167578,-0.0009435368701815,-0.0013827328803017
1.564496337890625,0.0101682331951335,-0.0013316687288694,0.0403197354286909,-0.0019511827267706,0.0006106840446591,-1.46670845424e-05
1.57447509765625,-0.0064199317785911,-0.0005464366353116,0.0498977111130952,0.0012987796217203,-0.0003652498126029,0.0007337856804952
1.584454345703125,-0.0045341910972259,0.0051876500372774,0.0457107808172702,-0.0015675807371735,-0.0010363664478063,-0.0002249522804049
1.59443310546875,-0.0004100421056151,-0.0052605691430158,0.0424146618813276,0.0013960482319816,0.0019304426386952,-0.0003501051978673
1.604412353515625,0.0015570749825797,-0.0095481833343394,0.0473509492397308,0.0006836525863036,0.0020793126896023,-0.0012683630920946
1.61439111328125,0.0048553128103725,-0.0014654329100623,0.0415127446055412,-0.0017519558314234,-0.0003895172849297,0.0001730666263028
1.624370361328125,0.0007452654093503,-0.0108810576396062,0.046153263887763,-3.66137828677e-05,-0.0019360147416591,0.0010769434738904
1.63434912109375,0.0022177856473252,-0.0087293594984337,0.0497486580312252,0.0026483663823455,0.0010269498452544,0.0002148498606402
1.644328369140625,0.003007200725656,-0.0010632453173398,0.0436141007989644,0.0022329131606966,-0.000185321085155,0.0008963527507148
1.65430712890625,0.0013856456721201,-0.0003712627314962,0.0478062917917966,-0.0008047090959735,0.000317595899105,-0.0002830198500305
1.664286376953125,0.0004653890220448,0.0074337301973253,0.0597773000925779,0.0023101242259144,0.001945586875081,-0.0013125980040058
1.67426513671875,0.0029072474825195,0.0057542526777833,0.0519955601751804,0.001119801774621,-0.0017536031082272,0.0002679432509467
1.684244384765625,0.0067595755291171,0.0069310413721948,0.0475076011061668,0.0028220941312611,-0.0004997868090867,-0.0003544375067576
1.69422314453125,0.0023260135284624,-0.000847392343264,0.0470604418605566,-0.0001053899759426,6.83171674609e-05,-0.0006670273724012
1.704202392578125,0.0037555714075453,0.0085579849869012,0.0497550877720117,-0.0011253806296736,-0.000510387122631,0.0002618832222651
1.71418115234375,-0.003563464635238,0.0013487659941427,0.051554246148467,-0.000128447310999,-0.0005663931369781,0.0002268477110192
1.724160400390625,-0.0002893748680129,0.0010912293028086,0.0359895972698926,-0.0026083830744028,-0.0009778514504432,-0.0004527909914031
1.734138916015625,-0.0055018122866749,-0.0043227403036318,0.0407780005902051,-0.000577688391786,0.0008966121822595,-0.0008644213085062
1.7441181640625,-0.00488389958404,-0.0039699630768969,0.0475134463250637,-0.0007135096238926,-0.0029295515269041,8.95229750312e-05
1.754096923828125,-0.0009890475699678,-0.0023001667011529,0.0461678769350051,0.0002721432829275,-0.0011445386335253,-0.0035849811974912
1.764077392578125,0.0091571929890662,-0.0094078980808146,0.0527501779347658,0.0013584465486928,0.0010520368814468,-0.0002088918699882
1.774056396484375,0.0055342532515525,0.0009531360063701,0.0461655388474464,0.0001582310069352,-0.0019424287602305,0.0001893437001854
1.78403515625,0.0027965719159692,0.0011678016703575,0.0445230323374271,0.0015433410881087,-0.0023384410887956,0.0001243625592906
1.79401416015625,0.0052749995271675,0.0068481305954046,0.0458744469463825,0.0021324490662664,-0.0007579289376735,0.0012491163797676
1.8039931640625,0.0023809951187111,0.0042394459343515,0.0434837524175643,0.0007012662827037,-0.0013898964971303,-0.0020164516754448
1.81397216796875,0.0019312968561425,0.003322933877632,0.0491699813604354,8.80713341757e-05,8.14674422144e-05,0.0003928685910068
1.823951171875,0.0032760259959846,-0.00306265723994,0.047522214153409,0.0002302841749042,0.0006708251312375,0.0013710476923733
1.83393017578125,0.0015655870825983,0.0027949096818454,0.0415326183497905,-0.002159297466278,-0.000980575568974,0.0008485191501677
1.8439091796875,0.0147197224870324,-0.0053082442096434,0.0578454552471637,0.0017150691710412,0.0004535363987088,0.0002501068520359
1.85388818359375,0.006472940607462,-0.0008586443896405,0.0412368502736091,0.002564838156104,0.0005956869572401,0.0010753705864772
1.8638671875,0.0018752923525869,-0.0026022549202665,0.0400444256186485,0.0034311646595597,0.0008889008313417,0.0002436653885524
1.87384619140625,0.00857420546934,-0.004934862586297,0.0466284801840782,4.91042155772e-05,0.0009675985202193,0.001153432065621
1.8838251953125,0.0037616358221508,0.0012085720721632,0.0488695371091365,-0.0002473056083545,0.0006773136556148,-0.0012535329442471
1.89380419921875,-0.0005530673054978,0.0041406800013035,0.0352519306451082,-0.0017420497024431,-0.0007232939824461,-0.0011616302654147
1.903783203125,0.00631351226205,-0.0060544412007555,0.0490180056691169,-0.002236598636955,-0.0008814856410026,-0.0012420577695593
1.91376220703125,0.0037063437046483,0.0012744221162982,0.0505137971848249,-0.0022646626457571,0.0013488931581377,0.0003159612533636
1.9237412109375,0.0052383755775168,-0.0050104485731571,0.0479611900925636,0.0017335410229861,0.0003848280757665,-0.0005634145345538
1.93372021484375,0.0025687362431548,0.0008483421913348,0.0473632241994142,0.0001814147108234,-0.0008921939879655,-0.0012296709464862
1.94369921875,-0.0022786489890888,-0.0063681102598086,0.0443745637774467,0.0025766617618501,-0.0016719680279493,3.63957951776e-05
1.95367822265625,0.0023834062715061,0.0019535452205687,0.0481201800465583,0.00132397422567,-0.0004213359206914,-0.0008804142125882
1.9636572265625,-0.0028913192610256,0.0016272724082693,0.043180385556817,0.002523195464164,0.0022668587043881,0.0003164103836752
1.97363623046875,0.0086028105093166,0.0037534890483133,0.0533551580905914,0.0029289203230291,-0.0009060883894562,0.0026104883290827
1.983615478515625,-0.0025131153320893,0.0020088556043803,0.0557528668820858,0.0013874827418476,-0.0008027572184801,0.0003904772456735
1.99359423828125,-0.0003297434110194,-0.0011315978458151,0.0473743301153182,0.0022170008160173,-0.0005090860649943,0.0005483565037138
2.003573486328125,-6.7238283623e-05,-0.0044257805529981,0.0369014514178037,0.0008422773098573,-0.001235862262547,-6.36379045317e-05
2.01355224609375,0.0003871909529902,-0.003461922223214,0.0425888494044542,0.0014297070447355,0.0002986071631312,0.0029739483725279
2.023531494140625,0.0027284020505845,0.0051740233707241,0.0509691397368907,0.0002952003851532,0.0001822272315621,-0.0001051982762874
2.033510009765625,0.0046761385848745,-0.0004912723819725,0.0406482367306947,-0.0013017880264669,-0.0007624821737408,-0.0013102610828354
2.0434892578125,0.0020617183027788,-0.0034354726077057,0.049625908434391,0.0003200770588591,0.0026508914306759,-0.0019859049934893
2.053468017578125,0.0012694536802358,-0.0055053924832493,0.0461836590260267,0.0004385981010273,-0.0020645270124077,-2.29796933126e-05
2.063447265625,-0.0036231406669132,0.0023332652531564,0.0548679007411003,-0.0001920384238474,-0.0017950152978301,0.0017336412565782
2.073426025390625,-0.0019639204841107,-0.0009587437632493,0.0545715481430292,0.00167975819204,0.0014678984880447,-0.0032328669913113
2.0834052734375,0.0024884923474863,-0.0036759120337665,0.0454448233574628,-0.0014071118785068,0.0032570101320743,-0.0012248436687514
2.093384033203125,0.0068491535087116,-0.0022123422872275,0.0423018491566181,-0.0009302179678343,0.00290531758219,-9.59469471126e-05
2.10336328125,0.0042793760859407,-0.0075655398834496,0.0415507385283708,-0.0008953305659815,0.0008150031790137,0.0003075219574384
2.113342041015625,0.0116680067662149,0.0001007934933528,0.0446913746416568,-0.0005265541840344,0.001195004209876,0.0046764989383518
2.1233212890625,0.0053421464792452,0.010799169776123,0.0500765748113393,-0.0010828885715454,0.0007358752191066,-0.0012189410626888
2.133300048828125,-0.001724905830156,0.0072005790285766,0.0508212556988,-0.001356181455776,0.000645013526082,0.000456377165392
2.143279296875,-0.0101508802015334,0.0124972606645897,0.0490203437566757,-3.68513865396e-05,-0.0006479518488049,-0.0003665395779535
2.153258056640625,-0.001216846710164,0.0072945591886527,0.0481219336122274,0.0012895197141915,-0.0002983445301651,0.0024909903295338
2.1632373046875,0.0035176709984429,0.0056334941086359,0.0472252770334482,0.0016072348225861,-0.0010602753609418,-0.0033969925716519
2.173216064453125,0.0014138305869884,0.011794866282586,0.0413894104868173,5.34987775608e-05,0.0002780063077807,0.001748714945279
2.1831953125,-0.0026126119174994,-0.0009223755419254,0.0443827470839023,0.0009280809899792,-0.0019137756898999,-0.0001184273642138
2.19317431640625,-0.0044870092209428,-0.0089894169404171,0.0487239911586046,-0.0009998374152928,-0.0002164738252758,-0.0007775732665322
2.2031533203125,0.0030021044254302,0.0004503741160035,0.0337608153045177,0.0022998191416263,-0.0003224676474928,-0.0021104854531586
2.21313232421875,-0.0073113093940541,-0.0051915224947966,0.0389987159579992,-0.002225267002359,-0.0010922588407993,-0.0005101960850879
2.223111328125,0.0052791825119405,-0.0081725658658891,0.044539983472228,0.002150572836399,0.0001847269013524,0.0004575966158881
2.23309033203125,0.006016849136725,0.0030594971684738,0.0431955831259489,-7.42551637813e-05,-0.0001986566931009,0.0012128608068451
2.2430693359375,0.0065661901151761,0.0038131650799885,0.0451420410186052,0.0015923511236906,2.31843441724e-05,0.0015540118329226
2.25304833984375,0.0067620414808392,0.0038619909240864,0.0529220273703336,-0.0010538540082052,-4.3734908103e-06,0.0002730023697949
2.26302734375,6.55943158082e-05,0.005025299082417,0.0526227521628141,0.0010383253684267,0.0002779215574264,-0.002368587302044
2.273006103515625,0.0042016712072305,0.0068055518290027,0.0427478393584489,0.0005840432131662,-0.0006966581568121,-0.0003728705924004
2.282985107421875,0.0049003392621874,-0.0038809513528831,0.0354161812961101,-0.000806659576483,6.97998329997e-05,-0.0003805937594734
2.29296533203125,-0.0036707792009226,-0.0031895898215472,0.0502279659807682,0.001073146238923,3.45138832926e-05,0.0010115059558302
2.3029443359375,-0.0031438509836792,0.0014041677094995,0.0565162524700164,0.0008859259542077,-0.0003303391858935,0.0009145669755525
2.31292333984375,-0.0026510259654372,0.0004281074852682,0.0440928242266178,-0.0015187978278845,0.0001869993284344,0.0014222436584532
2.322902099609375,-0.001350263831485,-0.0016968122468329,0.0457370843023061,0.0016032258281484,0.0005965940654277,0.0010912127327173
2.332881103515625,-0.0004202347060665,-0.0023754786933772,0.0559112723141908,-0.0001766063505783,0.0002678344026207,-0.001246937084943
2.342860107421875,0.0076226403655484,0.0006681450525298,0.0521709167420864,-0.0009787505259737,-0.002932752482593,-0.0007947324193082
2.352839111328125,0.0088095668614842,0.0074074449785985,0.0454372245728969,0.0017987197497859,0.0001379176974296,0.0012358898529782
2.362818115234375,0.0025321488261222,0.0017620960353873,0.0431932450383901,-0.0009169055847451,-0.0020099217072129,-7.01243407092e-05
2.372797119140625,0.0040985213600099,0.006389408776164,0.0409445893287658,-0.0027608647942543,-0.0004073455929756,6.63781393086e-05
2.382776123046875,0.0138326739868149,0.0121544568425975,0.0554617749810218,-0.0009517793077975,-0.0030191075056791,-0.001059339963831
2.392755126953125,0.0052501573468558,0.0041914055415429,0.0427443322271108,0.0014256977010518,0.0018440447747707,0.0003700425149872
2.402734130859375,-0.0011840769517235,-0.000135864806734,0.04364098880589,0.0011167710181325,-0.0010167229920625,-0.0034180376678705
2.412713134765625,0.0107668749417178,-0.0015987221672199,0.0452875869691371,-0.0008331628050655,0.0025258082896471,-0.0004366419452708
2.422692138671875,-0.0016381225958466,-0.0031163236559368,0.0455868621766567,0.0007721907459199,-0.0008697221055626,0.0001159639650722
2.432671142578125,-0.007431209446676,-0.0067749374950304,0.052169747698307,-0.0028534780722111,0.0010169493034482,0.0001802168262656
2.442650146484375,-0.0049039377250708,0.0010184015286155,0.0458820457309484,-0.0013424004428088,-0.0020491480827331,0.0001591778564034
2.452629150390625,-0.0064468015192076,0.0004259885934181,0.0318184490650892,0.0017498126253485,-0.0012991921976208,7.52909108996e-05
2.462608154296875,-0.0001389335466548,0.0070094586369581,0.040647652208805,0.0014075962826609,-0.0020392844453454,0.0006223042146302
2.472587158203125,0.0104391956236213,0.0007265972414985,0.0542699348479509,0.0024045116733759,0.0006963685154914,0.0001907906116684
2.482566162109375,-0.0009933401525951,-0.0088744122586213,0.056063832527399,0.0015994380228221,0.0024484628811478,0.0005210225936025
2.492545166015625,0.0003477722580544,-0.0030824579189531,0.0409486809819936,0.0023508500307798,-0.000230448320508,-0.0012601552298292
2.50252734375,0.0029969533262774,0.0113922585647553,0.0472317067742347,-0.0016263145953416,5.23794442415e-05,0.0016514786984771
2.512506591796875,-0.0050463784030638,0.0122858281373046,0.0554588523715734,0.0023744963109493,0.0018359282985329,-5.75653320993e-05
2.5224853515625,-0.0092931125947274,0.0065577328140847,0.0434860905051231,-0.0012452724622562,6.01327046751e-05,-0.0004932584706693
2.532464599609375,0.0021117862558923,0.0064714793027378,0.0509632945179939,-0.0010688991751521,-0.0003898767754435,-0.0002321871870663
2.542443359375,-6.43339404836e-05,0.005633895967435,0.0464770890146493,0.0011015770724043,-0.0018873726949095,0.0004293420352041
2.552422607421875,-0.001277819649782,-0.0031603819933719,0.0433376219451427,0.0002219248563051,0.0005891826003789,0.0016348732169717
2.5624013671875,-0.0013174210078082,-0.0021799013223499,0.0515676901519298,0.0008059560786932,0.000262944959104,0.0013523118104785
2.572380615234375,-0.0085177808406762,-0.0041201121373102,0.0502232898056507,-0.0002072542556561,-0.0025336649268865,0.0021244983654469
2.582359375,0.0039429106731899,-0.0007348353468813,0.0418435839951038,-0.0009793046629056,-0.0005940841510891,-0.0018172463169321
2.592338623046875,0.0030758637813851,-0.0101544786644168,0.0407943672031164,-0.0014899387024343,-0.0005555227398872,-0.0019870258402079
2.6023173828125,0.0002541026252321,-0.0005969064472243,0.0375029244422912,0.0008592355297878,0.001566749997437,0.0025203742552548
2.612296630859375,-0.0002025003021582,0.0004764218727126,0.05740472574234,-5.69850672036e-05,-0.0024114921689033,-0.0014533570501953
2.622275390625,0.0036003443132154,-0.0005407192805781,0.0503746809750795,-0.0013877666788175,-0.0004836302250623,0.0012883673189207
2.632254638671875,-0.0012915193815715,0.010858791008871,0.0521691631764173,-0.0008452613838016,9.71453264355e-05,-0.0032996523659676
2.6422333984375,0.0074940638161264,0.004069806722179,0.0497708698630332,-0.0003640282084234,0.0004604002460837,-0.0013225215952843
2.652212646484375,0.0001896590868942,0.0057422882453538,0.0460305142909288,0.0007807092042639,-0.001367837190628,-0.0007003041100688
2.66219140625,-0.0001257818041369,0.0055663471565581,0.0454372245728969,0.0006502142641693,-0.0013159057125449,0.0013945383252575
2.672170654296875,0.0020831446832977,0.0037877749104052,0.0503776035845279,0.0014992656651884,0.0039396081119775,0.0011464462149888
2.6821494140625,-0.0105453594118356,-0.0019621669184416,0.0529191047608852,0.000622020335868,0.0002580545842647,0.0023920065723359
2.692128662109375,-0.0031991065685637,-0.0010936587219126,0.0562105475217103,0.0004076465265825,-1.29584223031e-05,0.0034597713965922
2.702107421875,-0.0076885269423015,0.0040241226832382,0.0484299766480922,0.0008843523683026,-0.0006308117881417,0.0002226992801297
2.712086669921875,-0.0003591156359761,-0.0023877536530606,0.0461895042449235,-0.0012569073587656,-0.0004631672054529,0.0015012806979939
2.7220654296875,0.0033300029392354,-0.0013403817582875,0.0400531934469938,-0.0001612828345969,0.0017765518277883,0.000407520448789
2.73204443359375,0.0086442932971753,-0.0047830695580691,0.0472340448617935,-0.0003414247767068,6.62580132484e-05,0.0007676731911487
2.742023193359375,5.03419477492e-05,0.0064654696870595,0.0366121130824089,-0.0005539450212381,-0.0044981334358453,0.0002997558331117
2.75200244140625,-0.010879925128445,0.0043079993922263,0.0405050288677215,-0.0036698605399578,0.0021876208484172,-3.53319992427e-05
2.761981201171875,-0.0085994129758328,-0.0008591193136759,0.0436433268934488,-0.0013632967602461,0.0038749994710087,-0.0003711566096171
2.77196044921875,-0.0037334874399006,0.0006789952401071,0.0433405445545911,-0.0002947051543742,-0.0013806875795125,0.0013144415570423
2.781939208984375,-0.0037961774125695,0.0044858401771634,0.055164837861061,-0.0010941860964521,0.0016854098066687,-0.0018597801681607
2.79191845703125,0.0054432870324701,-0.0010761413315311,0.0464811806678771,-0.0017319340258836,-0.0007330803200602,0.0005471319309435
2.8018974609375,0.0043176805360242,-0.0014932159661315,0.0458785385996103,-0.0011335217859596,3.41767445206e-05,-0.0011013647308573
2.81187646484375,0.0093102098600007,0.0029926242110319,0.0446790996819734,-0.0006577998865395,0.0009893383830785,0.0002682971826288
2.82185546875,0.0023272008385509,0.0009985460506752,0.0467746106564998,0.0003917518770322,-0.0004274630919098,0.0002728245744947
2.83183447265625,-0.0101555015777237,-0.0027479104686528,0.057100774359703,0.0012524547055363,0.0012604314833879,-0.0011733756400644
2.8418134765625,-0.0072266998505219,-0.0032987858170643,0.0493190344423055,0.0012375412043184,0.0004473682492971,0.0013632852351292
2.85179248046875,0.0058692208269611,-0.0079179883166216,0.0443827470839023,0.0013277754187583,-0.0009166430681943,-0.0019877357408404
2.861771484375,-0.003674724723678,-0.007186532236915,0.0366033452540636,-0.0025857398286461,-0.000409310683608,-0.0005858477088622
2.87175146484375,-0.0045791262174956,-0.0054081791864708,0.0469242482602596,0.0024414020590484,0.0026806192472577,-0.0006957043078728
2.88173046875,-0.0039443171789869,0.002845379493758,0.0457248093426227,-0.0008710375986993,0.0009293248876929,-0.0005268598906695
2.89170947265625,0.0026737309875898,-0.0045032845023088,0.046623219487071,3.96098475903e-05,-0.0011007701978087,0.0014619565336033
2.9016884765625,-0.0028888715756125,0.0005558620507828,0.0503629905372858,-0.0017060921527445,-0.0003068819642066,-0.0005607142811641
2.91166748046875,0.0070563117196783,-0.0010887268184684,0.0539525394618511,0.001046011224389,0.0010614143684506,0.0002059778198599
2.921646484375,0.0029177506102249,0.0078062533041462,0.0455716646075248,0.0003812861395999,0.000638504512608,-0.000383912352845
2.93162548828125,0.0052737574181519,0.0036739027397707,0.0557470216631889,0.0001432338031008,-0.0001098811626434,0.0006125413347035
2.9416044921875,-0.0002490793902426,0.0014721366454847,0.0518552749216556,-0.0038768076337873,0.0005346043035387,0.0011771314311772
2.95158349609375,-0.0006475223896093,0.0047352666272781,0.041830139991641,-0.0008105470333248,-0.00012066680938,0.0023162872530519
2.9615625,0.0021748050221242,0.0019701858281157,0.0437736752748489,-0.0026103113777935,0.0013525942340493,-0.0010267788311466
2.971541748046875,0.0029762393318116,-0.0029187187246046,0.0427221203953027,0.0002709185937419,0.0001101586967706,0.0009206835529766
2.9815205078125,-0.0018787081523798,0.0034182292119599,0.0584334842681884,0.0010200657416135,0.0022811675444245,0.0003076239372603
2.991499755859375,0.0021609591598622,0.0034025749851018,0.0543891773134469,-0.0003434239770285,0.0022008651867508,0.0001029607010423
3.001478515625,-0.004623988272529,0.0016947846865281,0.0392711031585931,-0.0023884652182459,-0.0014886781573295,0.0004449105763342
3.011457763671875,0.0033059279439039,-0.0080895820238627,0.0460047953277826,-0.001271731685847,-0.0015811426565051,0.0008747281390242
3.021436279296875,-0.0014450842417776,0.0041105040587484,0.040763387542963,-0.0005793098243884,0.0017696460708975,-0.002311477670446
3.03141552734375,0.0025619777088053,0.00438448042823,0.0549742837250232,-0.0007437084568664,0.0025217859074473,-0.0008181325392797
3.041394287109375,0.0075678962373174,0.0053868806701153,0.0524281063735485,0.0023785815574228,0.0003507770597934,-0.0003046751080546
3.05137353515625,0.0039932343546301,0.007232252808474,0.0503343489646911,0.0013346349587664,-0.0010262858122587,-0.0012026642216369
3.061352294921875,-0.0026880883065052,0.0007969773302786,0.0453951389968395,-0.0033405441790819,-0.0017272299155592,-0.0002332736039534
3.07133154296875,-0.0086701035918667,-0.0011079429755918,0.0527285506248474,-0.0008244283962994,-0.000656122341752,-0.0010313395177945
3.081310302734375,0.0021147453979589,-0.0082975987513549,0.0341740722805261,-0.0008819526992738,0.0017431192100048,0.0021617906168103
3.09128955078125,0.0022667210892774,0.0026581498259678,0.0459931048899888,0.000367215834558,-0.0010204389691352,0.001247948501259
3.101268310546875,0.0061362559990026,-0.0057763001128099,0.0416524453371763,-0.0016828855732455,0.0020328750833868,0.001418124535121
3.11124755859375,0.0045067551010288,0.0010306582219898,0.0450929411798715,-0.0003742066328413,9.09166410565e-05,-0.0011909236200153
3.121226318359375,-0.0007944748459383,-0.0033135267284698,0.0428442854702472,-0.0026152567006647,6.351619958877563e-07,0.0002210843085777
3.13120556640625,-0.0026085385305806,-0.0022015468985773,0.0397001422256231,-0.0013813984114676,-0.0013310220092535,0.0002017258375417
3.141184326171875,0.0008140197966247,-0.0048196752414107,0.0377589450299739,-0.0022490562405437,-0.0029334453865885,0.0013548745773732
3.15116357421875,0.0104137689214199,0.0004873268592171,0.0432920292377471,-0.0023043050896376,0.0007331706583499,-0.0009926557540893
3.161142333984375,0.0106661545136012,-0.0003910268778912,0.0476285971373319,0.0003458064747974,0.0002290345728397,0.0007357357535511
3.17112158203125,0.0020610059167258,0.00585844370462,0.0549643468528985,-1.96412438526e-05,-0.0013413447886705,-0.0010564494878053
3.181100341796875,0.0051347508062608,0.00340299511021,0.0467342786461114,0.001599294366315,0.0009537674486637,-0.0015331553295254
3.19107958984375,0.0133043027311563,0.0012766323396936,0.0507750784695148,0.0003802778664976,0.0001085521653294,-0.0003149377007503
3.201058349609375,0.0043433447002433,-0.0050373548463918,0.0471861140668392,-0.0006200054776854,0.0003250669687986,0.0004621726984623
3.21103759765625,-0.0021426015192642,-0.0038868513707071,0.0428448699921369,0.0024436644744127,0.0009949272498488,-0.0013992900494486
3.221016357421875,-0.0116743999743834,0.0003353146352805,0.0468833317279815,0.0001581397373229,0.0001794677227735,0.0008151283836923
3.23099560546875,0.0053199346474371,-0.0034628903375938,0.045683308288455,0.0006913950201123,0.0008971206843852,0.0004584336129482
3.240974365234375,-0.0059552186099812,-0.0009051869451068,0.0513712907969951,0.0033265929669141,0.0010230876505374,0.0007388644735328
3.25095361328125,0.0065575136183761,-0.0017178367685526,0.0555611437022686,0.0024406623560935,-0.0003231717273592,0.0003000679134856
3.260932373046875,0.0054864320544525,0.0037080242050811,0.0435936425328254,-0.0008454121998511,0.0002219770103693,0.0003799627593252
3.270911376953125,0.0005691416574642,-0.0050159649984911,0.047630350703001,-0.0016451270785182,0.0030602226033806,0.0010133717441931
3.280890380859375,-0.0105383268828503,-0.0046670967618934,0.0438859034776687,0.0020910217426717,0.0009054588153958,2.66706556431e-05
3.290869384765625,-0.0011435440119355,0.0055716991851106,0.041046880659461,-0.0011133310617879,-0.0025136098265647,0.0018779429374262
3.3008486328125,-0.0054074668004177,0.0077706522678025,0.0525695606708526,-0.0008486128645017,-0.0002483250573277,-0.0001772183459252
3.310827392578125,-0.0056683096936903,0.0041259208235889,0.0527186137527227,0.0001603245036676,0.0007079215720295,0.000104059887235
3.320806640625,0.0033204313932918,0.005356284602452,0.033859014981985,-0.0024692807346582,0.0012895558029413,0.0021845214068889
3.330785400390625,0.0063172568554058,-0.0023209172282367,0.0355015214920043,-0.0037245969288051,-0.0005427757278084,0.0012147254310548
3.3407646484375,0.0128680302057415,-0.0078006638135761,0.040293431943655,0.0016278242692351,-0.0019276197999715,0.0004602519038598
3.350743408203125,0.0018043094756081,-0.0048498329176567,0.047326399320364,-0.0011177246924489,0.000222067348659,0.0013274222146719
3.36072265625,-0.0053276247635483,-0.0075739241193048,0.0527075078368186,-0.0024506368208676,0.001546723768115,-0.0015767549630254
3.370701416015625,2.25954242981e-05,-0.0072961848901584,0.0419300932347774,-8.48246272653e-05,-0.0008476134389638,0.0012821441050618
3.3806806640625,-0.0020875833963975,0.0008957797959446,0.0446224010586738,0.0006438163109123,-0.0002052597701549,0.0009593689464963
3.390659423828125,0.0042159737272188,0.0023015001417137,0.0528507156997919,0.0008579487912356,0.0013973219320178,0.0022881582845002
3.400638671875,0.0109497206953354,0.006516268292535,0.0474637619644403,0.002625222550705,3.11201438307e-05,0.000465224526124
3.410617431640625,0.0103102172154001,0.0076685253338888,0.0513555087059736,0.0015548281371593,0.001041249372065,0.0002327826805412
3.4205966796875,0.0027221915055066,0.0058836877437308,0.0500064321845769,5.25389332324e-05,0.001851649954915,-0.0003254158655181
3.430576416015625,0.0004905417296104,0.0025440949922427,0.0452139372110366,0.0001211491180583,-0.0005346620455384,0.001135743339546
3.440555419921875,2.26502232253e-05,9.25005890429e-05,0.058978843191266,-0.0007840592879801,0.0020206412300467,0.0010936654871329
3.450534423828125,-0.001199146656692,-0.011145389397908,0.0351858796715736,-0.0012063165195286,-0.0002674730494618,2.69943411694e-05
3.460513427734375,-0.001990370099619,-0.0084449530664831,0.0375800813317298,-0.0014334841398522,-0.0005737366154789,-7.76678934926e-05
3.470492431640625,-0.0017813487251289,-0.0061697564098052,0.0390782109349966,0.00112839078065,-0.0003960756585001,0.002239964203909
3.480471435546875,0.0048433849105611,-0.0026757220152765,0.0378857862800359,0.0013427751837298,-0.002713824622333,-8.65731635713e-05
3.490450439453125,-0.0034173706954345,-0.0014134835271164,0.0444739324986934,0.0003470298834145,-0.0003350293263792,-7.54721404518e-05
3.500429443359375,-0.0061590340863913,0.003436276325304,0.0477630371719598,-0.0004340753075666,-0.0005803070962429,0.0011708872625604
3.510405029296875,-0.001121167783346,0.0037258338564075,0.0416267263740301,-0.0012549676466733,0.0003568995743989,0.0012979297898709
3.5203837890625,0.0071276416565291,0.0023318222147412,0.0458124876260757,0.0011746342061087,0.0016480004414916,0.0002864612615667
3.530363037109375,0.0006521437657997,0.001635839307215,0.0449210917443037,0.0020443582907319,-0.0043640597723424,0.000336754892487
3.540341796875,-0.0115981016014702,0.0014463446171022,0.0461205306619405,0.0011268992675468,0.0017050178721547,-0.0002906858571805
3.550321044921875,-0.0085226214125752,-0.000608596885018,0.0477653752595186,0.0002210225211456,-0.0003246758133172,0.0012267954880371
3.5602998046875,-0.0058103667791932,-0.0011713636006228,0.0525549476236104,7.7033182606e-06,2.63294205069e-05,-0.0003282242687419
3.57027880859375,0.0075009867472574,-0.0043032684181816,0.0595890840440988,-0.0014364488888531,0.0004328396171331,8.87624046299e-05
3.5802578125,0.0091861268226057,-0.0010595189902931,0.0535971501529216,-0.0018577609444037,0.0013361843302845,-0.0001866084494395
3.59023681640625,0.0079824318549595,-0.005707691856008,0.0577840804487466,9.56881558522e-05,-0.0005159601569175,-2.52461577474e-05
3.6002158203125,-0.0011060798120684,-0.005353489857167,0.0437163921296596,0.0017204827163368,0.0016776854172348,0.000242401525611
3.61019482421875,0.0026246311488561,-0.0061280178936198,0.0332388372570276,-0.0015035565011203,-0.0008120266720652,-0.0004456092719919
3.620174072265625,-0.0073400970971211,-0.0012585852263495,0.038329438394308,0.0005718449829146,0.0021422179415822,-0.0004575934726744
3.63015283203125,-0.0139268368099816,-0.0003400273430161,0.0438660297334194,-0.0008729640394449,-0.0001101735979318,-0.0016122341621667
3.640132080078125,-0.0031955629046075,0.000729885177128,0.0426718515127897,0.0013957828050479,-0.0031296657398343,4.34531357313e-05
3.65011083984375,0.0002123823753558,0.0063443092591129,0.0488110849201679,0.0011784245725721,-0.0010629212483763,-0.0004822929040528
3.660090087890625,-0.0075020827258005,0.0090220223020762,0.0462649075686931,-0.0022706352174282,0.00198027305305,-0.0013129328144714
3.67006884765625,0.0026041728827171,0.0046076033933088,0.0477583609968423,0.0002614429686218,-0.0024269046261906,0.0004734490066766
3.680048095703125,-0.0088909067356958,0.0040280316733755,0.0516501077383756,-0.0003071419196203,-0.0010303426533937,3.6956895201e-05
3.69002685546875,0.0030253574368543,0.000989138901513,0.0446212320148944,-0.0001903247903101,-0.0010922038927674,8.89477087184e-05
3.700006103515625,0.0085502400718629,-0.0029916012977249,0.0440209280341863,-0.0011828849092125,-0.0020677195861935,0.0003723080444615
3.70998486328125,-0.005865037842188,0.0033049598295241,0.0534504351586103,4.38462011516e-05,0.0002688122913241,0.0016058234032243
3.719964111328125,-0.0068281107206828,-0.0011508140029385,0.051056233498454,0.0003889919025823,-0.0006883274763822,-0.0003116526058875
3.72994287109375,-0.0025908567434176,-0.007513353038486,0.0465671053856611,0.0008315602317452,0.0006211018189787,-0.0004913759767077
3.739922119140625,0.0016962094586342,-0.0017490538907237,0.0459621252298355,-0.0014531656634062,0.0016381638124585,0.0005014504422433
3.74990087890625,0.0020331132628023,-0.0080016297457739,0.0489531237393617,0.0026205843314528,-0.000458288937807,-0.0003692865138873
3.759880126953125,0.0007383607445284,0.0004166179768741,0.0464051928222179,0.0003097594017162,0.0009297505021095,-0.0014499973040074
3.76985888671875,0.006703059568908,-0.0038155214338563,0.0359323141247034,-0.0005358592025004,-0.001818916760385,0.0014071034966036
3.779838134765625,-0.0039371202532202,-0.0018737762489356,0.0404237803250551,0.0007475181482732,0.0031968811526894,-0.0031524945516139
3.78981689453125,-0.0003459273608401,0.0088047628222033,0.0456587583690881,0.0018783156992867,-0.0008823657408356,0.0004880207998212
3.7997958984375,-0.0055544740556739,0.0024571838937699,0.036380642414093,-0.0015521021559834,0.000900886952877,0.0007319663418456
3.809774658203125,0.0014489566992968,-0.0061725328887812,0.0504442390799522,-0.0004962855018675,-0.0017540054395794,-0.0006856170366518
3.81975390625,0.0040875067756511,0.0040179486707784,0.0467056370735168,-0.0002677862648852,-0.0008149743080139,-0.0004475304449442
3.829732666015625,0.0095192129681818,-0.0014692323023453,0.0435650009602308,0.0002871350152418,8.18101689219e-05,0.0014698675367981
3.8397119140625,0.0103945162316784,-0.0083598868652246,0.0420680404007434,-0.0015280754305422,9.2995353043e-05,-0.0002827587304636
3.849690673828125,0.0036472887274809,0.0043062458265572,0.0464063618659973,-0.0025969916023314,0.002850379794836,-0.0002899825049098
3.859669921875,-0.005460932287015,-0.0064610127076506,0.0453559760302305,0.000112774898298,0.0016490276902914,-0.0019792255479842
3.869648681640625,0.0030881752736866,-0.0111522027311846,0.0487964718729257,0.0007057369221001,0.0022270083427429,-0.0006019212887622
3.8796279296875,-0.0037063254383392,-0.0023533399268053,0.0487970563948154,-0.0007664585718885,0.0020315330475568,-0.0001848702668212
3.889606689453125,-0.0091912048565223,-0.002017057177145,0.0432622186213731,7.57884699851e-05,-0.0010144244879484,-0.0003741385298781
3.8995859375,-0.0132167705781757,0.00160739866402,0.0458072269290685,-0.0004717574338428,-0.0031119305640459,5.43640780961e-05
3.909564697265625,-0.0011834924298338,0.0071208831221796,0.034884850898385,-0.0001269069034606,0.001113417558372,-0.0012034444371238
3.9195439453125,-0.0033435565405525,0.0063356327623128,0.0410199926525354,0.0015636676689609,4.04296442866e-05,-0.0014756195014342
3.929522705078125,-0.0039196211291477,0.0081916358925402,0.0459562800109386,-0.0008695884607732,0.0014588916674256,-0.0014355620369315
3.939501953125,-0.0022282522424124,0.0062596083840355,0.0493956068098545,0.0019661453552544,0.0005209269002079,0.0023117717355489
3.949480712890625,-0.0012108005618676,0.0043621041996404,0.0492523989468812,0.0026328698731958,-0.000627240166068,0.0005262538325041
3.9594599609375,0.0064441163717769,0.0015410371632315,0.0574795445442199,-0.0012691935990005,0.0001277662813663,-0.0001451290881959
3.96943896484375,0.0065224240386858,-0.0001412716342136,0.0496972201049327,-0.0015536443097516,9.276997298e-05,0.0003034792025573
3.9794189453125,0.0009024469987489,-0.0034460122680291,0.0481996750235557,0.0011808894341811,0.0016712248325347,0.0001010789710562
3.98939794921875,0.0074453841025009,-0.0067850752965547,0.0441600442439317,-0.0010908173862844,-0.0006283381953835,0.0004575950151775
3.999376953125,0.0004899389414116,-0.0013779007570818,0.0387754285961389,-0.000785352778621,-0.0019942726939916,0.0014019518857821
4.00935595703125,0.0015254742679186,-0.0072994728257879,0.0384802450418472,-0.0023753300774842,-0.0026636375114321,0.0010285765165463
4.0193349609375,-0.0037744953037239,-0.0015410736958496,0.0459632942736148,-0.0034059735480695,0.0002967324107885,0.0013641348341479
4.02931396484375,-0.000883431771025,-0.0063690966404974,0.0375800813317298,0.000242612324655,0.0019196541979908,-0.0003151804266963
4.03929296875,-0.0013037030097097,-4.95016975328e-05,0.0377279653698205,0.0017715331632643,0.0020056739449501,-0.0004584584676194
4.04927197265625,2.66322785988e-05,0.0009810651929117,0.0464110380411148,0.0019650030881166,0.0002861348912119,-0.001269498723559
4.0592509765625,-0.0021485563360154,0.0073565002426505,0.0392255104511976,-0.0006630043499171,-2.5518238544e-06,0.0013111043954268
4.06922998046875,-0.0068155069674365,-4.03502766974e-05,0.0405704953193664,0.0008331699064001,0.0006578126922249,-0.0003432590747252
4.079208984375,0.0061652080988511,-0.001665978717152,0.0422135863512754,-0.0012390356278046,0.0004817778244614,0.0001670025958446
4.08918798828125,-0.002184814959485,-0.0030007344522513,0.0380243179678916,0.0032671215012669,-0.0003927797079086,0.0005394895561039
4.099166748046875,0.0036683497818186,-0.0108793223402462,0.049997079834342,0.0015334034105762,-0.0001805257052183,0.0007767772185616
4.109145751953125,0.0064088806616142,-0.0039816717809997,0.0485018728405237,0.001875253743492,1.42436474561e-05,-0.0005520423292182
4.119124755859375,-0.0103910638992674,-0.0043766989805735,0.0511953497081995,0.0004659090191125,0.001597492955625,0.0001201395425596
4.129103759765625,-0.00816869340837,0.0022748495968058,0.0389256507217884,0.0003516189754009,5.4435804486e-06,0.0013103930978104
4.139082763671875,0.0080959021667949,-0.0015646737671457,0.0522469045877456,0.0028131788130849,-0.0003895023837685,0.001252602552995
4.149061767578125,0.0045446759586222,0.007357377025485,0.0532931987702846,0.0012446283362805,-0.000289062038064,0.0001410616241628
4.159041015625,0.0054112296600826,7.59878456592e-05,0.0441629668533802,-0.005823933519423,-0.0002882629632949,-0.0009215396712534
4.169019775390625,0.0057429458324797,0.011588310859818,0.0426642527282238,-0.0003091063117608,-0.0019076587632298,0.0005429980810731
4.1789990234375,-0.0018770276519469,0.0075384144145064,0.0473036029666662,-0.0006393382791429,0.0018998626619577,7.48143575037e-05
4.188977783203125,-0.0042209421632811,0.0006346811743453,0.0484977811872959,-0.0006391695933416,0.0001736674457788,0.0004538984503597
4.19895703125,-0.0011488229752518,-0.0029453144705854,0.0471469511002302,-0.002038660692051,0.0007028374820947,-0.0002712803252507
4.208935791015625,-0.0051177996714599,-0.0019349866505712,0.0469984825402498,-0.0010987711139023,-0.0010428866371512,0.0004354458651505
4.2189150390625,0.002427062750142,-0.0038225356965325,0.0395130952209234,0.002172655891627,0.0022887280210852,-0.0011960066622123
4.228893798828125,-0.0007858896806836,-0.008885079783108,0.0462514635652303,-0.001625905977562,-0.0003296285867691,0.0012481863377615
4.238873046875,0.0021373042896389,-0.0092393000482581,0.0489484475642442,0.0005067534511908,-0.0010492149740457,0.0019840179011225
4.248851806640625,0.0073332289649173,-0.0011736834218725,0.0449070632189512,0.0022901282645761,0.0016680499538779,-0.0014731477713212
4.2588310546875,0.0015802549287676,0.0068138812659308,0.0393698873579502,0.0001486805267632,0.0001633642241358,-0.0001106745621655
4.268809814453125,-0.0096345829761587,0.0062529411812312,0.0401128146797418,-0.0014270454412326,0.0019094767048954,-0.0005266137304715
4.2787890625,-0.0079273224005475,-0.0006457870902493,0.0499865584403276,0.0013783284230157,-0.0010176040232181,-0.0017253026599064
4.288767822265625,0.0010793379356153,0.0069922883064486,0.0502864181697368,0.0006087379297241,-0.0011546155437827,0.0025945154484361
4.2987470703125,-0.0051689088041894,0.0044298722062259,0.0540314499169588,0.0020931838080286,-0.0004922877997159,0.0033511195797473
4.308725830078125,0.0003431691481731,-0.0028206103786826,0.0469967289745807,-0.0004777056747116,-0.0004492662847042,-0.0003144602233078
4.318705078125,0.0081382252048701,0.0053498913942836,0.039217327144742,0.0026278065051883,0.0014972388744354,0.0003894132387358
4.328683837890625,0.0081947594313882,-0.004051430815272,0.0475964484333992,-0.0007532883901149,-0.0016730306670069,2.5713561626e-06
4.3386630859375,-0.0055919199892319,-0.0063407107962295,0.0508873066723346,0.0006552574923262,-0.0007800729945302,-0.0003276606148574
4.3486416015625,-0.0019945530843921,-0.0071063431401737,0.0487923802196979,0.0006485782796517,0.0008879723027348,-0.0009294447954744
4.358620849609375,0.0051774757031351,-0.0034352899446152,0.0419072968810796,-0.001838015159592,0.0007361723110079,-0.0019851219840347
4.368599609375,-0.0031976452638395,-0.0032289354512467,0.0526800353080034,-0.0009550811955705,-0.0005673114210367,0.0011344964150339
4.378578857421875,0.0036102081201039,0.007675521330256,0.062108373388648,-0.0014245965285226,-0.0008714441210031,-0.0002074704098049
4.3885576171875,0.0036709435977041,-0.0024016177816316,0.0498351672708988,9.43823251873e-05,0.0009245872497558,-0.0022641743998974
4.398536865234375,-0.0020906704026274,-0.0046704942953772,0.046397594037652,0.0006408629706129,-0.0020251302048563,-0.0006140797049738
4.408515869140625,0.0013346278709359,0.0014160590766929,0.0461029950052499,0.0003557270392775,0.001749375835061,0.0007053398294374
4.418494873046875,-0.0049087782969698,0.0013482545374892,0.0486456652253866,0.0011344352969899,0.001471341587603,5.63274952583e-05
4.428473876953125,-0.0133326520428061,-0.00640568405753,0.054929860061407,-0.0012041797162964,0.0009866710752248,0.0013967195991426
4.438452880859375,-0.0032120939143002,-0.0033334552716463,0.0431026441454887,-0.0006140233017504,0.0012761568650603,-0.0009231599979102
4.448431884765625,0.0061548693679273,-0.0023441702396608,0.0417559057116508,0.0011333553120493,0.0010857032611966,-0.0009302443359047
4.458410888671875,0.0073387088576331,-0.0030000951314345,0.0472878208756446,-0.000307681155391,0.0014620078727602,-0.0013073480222374
4.46839013671875,0.003308740955498,-0.0017655849004164,0.0478811105936765,-0.0002771815634332,0.0028208475559949,0.0007059233030304
4.478368896484375,-0.0011701397579163,-0.0025556758321821,0.0435398665189743,0.0014906247379258,-0.0009552491828799,-0.0002245852083433
4.48834814453125,0.0029680012264288,-0.0050077634257264,0.0540185904353857,0.0016177758807316,-0.0009954338893294,-0.0009325834107585
4.498326904296875,-0.0044851277911104,-0.0037279892808757,0.053422962629795,-0.0015183625509962,-0.0002923598513007,-0.0002683910424821
4.508305908203125,-0.0009442220475524,0.0078478822224773,0.047434535869956,5.61941415071e-05,0.0007312186062335,-0.000194723252207
4.51828466796875,-0.0087250121168792,0.0038227548922412,0.0402525154113769,-0.000169109320268,-0.0012416504323482,-0.0009444031165912
4.5282646484375,-0.0101910295488312,-0.0016217194503173,0.0522229391902685,-0.00084746372886,0.0007043797522783,0.0002356049662921
4.53824365234375,-0.0018302111018449,0.0012385470853187,0.0492331097245216,0.0021813493221998,0.0008018519729375,0.0024449634365737
4.54822265625,-0.0057986580750904,0.0045439818388782,0.0439940400272607,-0.0024938248097896,-0.0017059817910194,-0.0003575149457901
4.55820166015625,-0.0029384463383816,0.0028405389218591,0.0465408019006252,0.0001893100561574,-0.002236483618617,-0.0009511335520073
4.5681806640625,-0.0028565402085892,-0.0003900587635114,0.0363660293668508,-0.0023091551847755,-0.0011949045583605,0.0012560040922835
4.57815966796875,0.0042911395889706,-0.0047096937946043,0.0425040937304496,0.0001646550372242,0.0004035243764519,-0.0009024879545904
4.588138671875,0.0047873621406964,0.0010410334855318,0.0425064318180084,0.0002409643493592,-0.0005127349868416,-0.0007484427769668
4.59811767578125,0.0043762057902291,0.0052593635666184,0.0396615637809038,0.0004777194699272,0.0009006047621369,-0.0020717675797641
4.6080966796875,0.0074039743798784,0.0011715462637133,0.0398147085160017,0.0004529486177489,0.0005668476223945,0.0005244886269792
4.61807568359375,-0.0011568418849259,-0.0021238420198671,0.0419119730561971,0.0012015630491077,0.0026081604883074,-0.0009897847194224
4.6280546875,-0.014374397914391,0.0065919090783223,0.0383165789127349,0.0034801322035491,0.0018946761265397,0.0018026240868493
4.638033447265625,0.0012041698916815,-0.0042708639859221,0.0456529131501913,0.0004294810350984,-0.0010129632428288,-0.0004072669544257
4.6480126953125,-0.0013004698730073,0.0101090868864208,0.0484971966654062,0.0015056154225021,-0.0022601354867219,0.0009982752380892
4.657991455078125,-0.0072819919680245,0.0028353512900881,0.0489443559110164,-0.0023897900246083,-0.0007370738312602,-0.0009090806706808
4.667970703125,0.0006157938107848,-0.0015392470649443,0.048344636452198,0.0022626132704317,0.0011840285733342,-0.0008113709045574
4.677949462890625,-0.0004204539017751,-0.0051904265162535,0.0550765750557184,0.0016258514951914,0.0003762925043702,0.000400900025852
4.6879287109375,0.0002610438226722,-0.0027782325416803,0.0505921231180429,0.0015982916811481,-0.0002771019935607,0.0001906377729028
4.697907470703125,-0.0001741692568175,-4.40035385079e-05,0.0452028312951326,-0.0003823011647909,0.0036398759111762,-0.0018352288752794
4.70788671875,-0.010858443948999,0.0042569815910421,0.0371177245169878,0.0017661083256825,-0.000332424417138,-4.38182760262e-05
4.717865478515625,0.0027128939541988,0.0001551174964755,0.0392167426228523,-0.0018499317811802,-0.0020751971751451,-0.0006619379273615
4.7278447265625,-0.0006069163845852,0.0032552754689007,0.0465484006851911,-0.0001698380801826,-0.0010827165096998,0.0002074941585306
4.73782373046875,-0.0050662338810041,0.0033655491766519,0.0480447767227888,-0.0009586663800291,0.0010571330785751,-0.0015339468372985
4.747802734375,0.0007486629428341,-0.0034200375765562,0.0413093309879303,-0.0020168998744338,-0.0020615477114915,-0.0006026861374266
4.75778173828125,0.0015937354648485,-0.0042683432352729,0.0466945311576127,-0.0022477959282696,-0.0007611261680722,0.0018317094072699
4.7677607421875,-0.0045996758151799,-0.002582308110781,0.0454974303275346,-0.0014145798049867,-0.0007133921608328,-0.003286785678938
4.77773974609375,0.0073874616364948,-0.0035172326070256,0.0326285964041948,0.0012855993118137,0.001288772560656,9.88910032901e-05
4.78771875,0.0068963536513037,-0.0056825939473696,0.0432534507930278,0.0004825216019526,0.0004441849887371,0.0029211794026196
4.79769775390625,-0.0047081411583349,-0.0079002882631495,0.0342769481331109,-0.0014749018009752,-0.0007457146421074,-0.0032725343480706
4.8076767578125,-0.0051843255690298,-0.005034322639089,0.0351782808870077,0.0012753460323438,-0.0022456934675574,-0.00061489403015
4.81765576171875,0.0018400931750424,-0.0059926280109211,0.0347276145100593,0.0005885168211534,0.0014339964836835,0.0012003165902569
4.827634765625,-0.0145886799858883,-0.00053547684988,0.0496872832328081,0.0020655216649174,0.0017499290406703,0.0009324628626927
4.83761376953125,-0.0051769459801726,0.0073229815655387,0.0472919125288724,-0.0012043073074892,-0.0025324337184429,-0.0002419911761535
4.8475927734375,-0.00255494517982,0.0092047219252213,0.0532803392887115,-0.0005452299374155,0.0008848365396261,-0.0005705464282073
4.85757177734375,0.0003031111324205,0.004017455480434,0.0459434205293655,-0.0029167747125029,-0.0006534056738018,-9.6847388704e-06
4.86755078125,0.0037497627212665,-0.001454235662613,0.0454956767618656,0.0025852192193269,0.0008490094915032,0.0010846676304936
4.877529541015625,-0.0015666465285234,-0.0074487816359847,0.0468465068489313,0.0003686702111735,-0.0018575610592961,-0.0021220445632934
4.887508544921875,-0.0135952485017478,-0.0094499105916358,0.0399643461197614,-0.0007385377539321,0.0024059889838099,-0.0013071905123069
4.897487548828125,-0.0063772251480259,-0.0116060474459081,0.0501397031754255,-0.0032664102036505,-0.0011045904830098,-0.0004051778814755
4.907466552734375,-0.0106141503317281,-0.0065605458256788,0.0517839632511138,-0.0011227274080738,0.0009419787675142,-0.0014100114349275
4.917445556640625,-0.002261040267162,-0.0041711664711125,0.0568739798665046,-0.0001698483829386,-0.0006652390584349,0.00027363904519
4.927424560546875,-0.002641235223785,-0.0039541261869482,0.0483452209740877,-0.0039706309325993,-0.0005278289318084,0.0006224305834621
4.937403564453125,-0.0026633922566659,-0.0039213381621986,0.0483452209740877,0.001360218739137,-0.0001328820362687,-0.0014716128353029
4.947382568359375,-0.0059215538023971,0.0013647307482548,0.0389221435904502,-0.0007150787278078,-0.0001332350075244,-0.0008137660333886
4.957361572265625,0.0075584708218462,0.0066255008206702,0.0544850389033556,0.000256442464888,-0.0021953210234642,-0.0001229420595336
4.967340576171875,0.0069956858399324,-0.0062132667579688,0.0461076711803674,-0.0021261693909764,-0.0016783010214567,-0.0006950341630727
4.977319580078125,0.0029748876249417,-6.60509735345e-05,0.0468576127648353,-0.0011333428556099,0.0005880491808056,-0.0011909148888662
4.987298583984375,-0.017386128684692,0.0023671857890672,0.0559860911160707,0.0014203116297721,-5.30164688825e-05,-0.0002576947154011
4.997277587890625,-0.0044688707760535,0.0018572087066248,0.0485065490156412,0.0025103434454649,-0.0005004275590181,-0.0001287976920139
5.007256591796875,-0.0123285165015608,-0.014335253214091,0.0446194784492254,0.0006840435089543,-0.000784927047789,-0.0011686544166877
5.017235595703125,0.0007214278760366,-0.0105414869543164,0.0483621721088886,0.0008124078158289,-0.0011705523356795,-2.26962511078e-05
5.027214599609375,-0.0060731276349164,0.0004887516313232,0.0497071569770574,0.0015627274988219,0.0031739864498376,0.002209213329479
5.037193603515625,0.0025198556001298,-0.0084380666679702,0.0582353313475847,0.0021243882365524,0.0001571578904986,0.0007668452453799
5.0471728515625,-0.0010441752906888,0.0077132777910679,0.0538987634479999,0.0015873829834163,0.0024492545053362,0.000916544930078
5.057151611328125,-0.0001117715450935,0.0028819669107906,0.0516506922602653,-0.0011460855603218,0.0014244699850678,-0.0021404975559562
5.067130859375,-0.0017508622553199,0.0057400597556494,0.0480599742919206,0.0019657956436276,-0.0010932469740509,-0.000267573777819
5.077109619140625,-0.0016453377879224,-0.0015454028110951,0.0486614473164081,-0.0013266702881082,0.0014351587742567,9.54150673351e-05
5.0870888671875,-0.0059238005584105,-0.0017447247754782,0.0402788188964128,-0.001087125740014,0.0010362593457102,0.0022864241618663
5.097067626953125,-0.0050172984390519,-0.0028468042658641,0.0488075777888298,1.30260596051e-05,0.0006831241771578,0.0023737759329378
5.107046875,-0.001285783760529,-0.0033432825459167,0.0440180054247379,-0.0006236406043171,-0.0009005349129438,0.0008994559757411
5.117025634765625,0.0036780309256166,0.0032899997224099,0.0390817180663347,-0.0008577324915677,0.001222270540893,-0.0007626228616572
5.127004638671875,0.0029699739878065,-0.0049414567238651,0.0491080220401287,0.0014857903588563,0.0006252322345972,-0.000885589106474
5.1369833984375,0.0060287222376093,-0.0045776101138442,0.0374327818155288,-0.0016623323317617,0.0001695649698376,0.0022558756172657
5.146962646484375,-0.0024025858960114,0.0030455051757395,0.0410229152619838,-0.0006875339895486,0.0002226661890745,-0.0012823727447539
5.15694140625,-0.0066161667367443,0.0003466214805841,0.0473047720104455,-0.002104069571942,-0.0018434142693877,0.0002326995600014
5.166920654296875,-0.0029991635496728,-0.0053755738248117,0.0502975240856409,-0.0011812304146587,0.0007266970351338,0.0026495766360312
5.1768994140625,-0.0059452452052384,-0.0009887005100958,0.0486497568786144,0.0005141378496773,0.0012673186138272,0.0016745935427024
5.186878662109375,-0.0037182898707687,0.000568045678921,0.0366828402310609,0.00177445076406,-0.0005210805684328,0.0001500995131209
5.196857666015625,-0.0061141537650488,-0.0019776384822092,0.0485077180594205,-0.0013361212331801,-0.0030473554506897,0.0001157447331934
5.206836669921875,-0.0034169323040172,-0.0051214346669614,0.0359352367341518,-0.001750886440277,-0.000657751224935,0.0016454762080684
5.216815673828125,0.0044521388369612,-0.0100794589331373,0.0395224475711584,-0.0012424889719113,0.001617120578885,-0.0002003606787184
5.226794677734375,-0.007202131664846,-0.0040686194120906,0.0535854597151279,-0.000146290694829,3.71439382433e-05,3.65614905604e-05
5.236773681640625,-0.002191372564435,-0.0023659984789788,0.0437099623888731,-0.0014025038108229,0.00020731985569,0.0004839725443162
5.246752685546875,0.0029172026209533,-0.0040811866327188,0.0477455015152692,-0.0004492196603678,0.0016024364158511,0.0018968450604006
5.256731689453125,-0.0046164077542722,-0.0041238384643569,0.0462497099995613,0.0008860893431119,-0.0008245026692748,-0.0014361010398715
5.266710693359375,-0.0008517214585095,0.0006196480019949,0.0380219798803329,0.0026562949642539,0.0008757719770073,-0.0005380154470913
5.276689697265625,0.0005537066263146,-0.0026502953130751,0.0443114354133605,6.1832834035e-06,-0.0020699510350823,5.2694049372e-06
5.286668701171875,-0.0022453495076857,0.0005532499685883,0.0446165558397769,0.0016638938104733,0.0001223236322402,0.0003741016844287
5.296647705078125,-0.0083871219320222,-0.0019005363916978,0.0529910009533166,-0.003089316189289,-0.0021528145298361,0.0006904852343723
5.306626708984375,0.0063648223241791,-0.0015418591471388,0.0482025976330041,-0.0008524474105797,-0.000428250990808,0.0011650045635178
5.316605712890625,-0.0003733085581101,-0.0037161709789186,0.0398240608662366,0.0015654365997761,-0.000387504696846,0.0002683182246983
5.326584716796875,-0.0032740349682979,-0.0044318449676036,0.0506003064244985,-0.0022604402620345,-0.0004963390529155,-0.0013048542896285
5.336563720703125,0.0012171389711089,-0.0046294864315539,0.0559866756379604,0.0003015206893905,0.0006546787917613,0.0010451190173625
5.346542724609375,-0.0005243526676669,0.0018452442741952,0.0485007037967443,-0.0014772180002182,0.0001503583043813,-0.0009312466136179
5.35652197265625,-0.0096495796158909,0.0049150253746658,0.0428133058100938,-0.0006857264670543,-0.0009995950385928,-0.0002217804722022
5.36650048828125,-0.004383092188742,0.0083247607529163,0.0390758728474378,0.0001834658905863,-0.0018685311079025,0.0007695324602536
5.376479736328125,0.0111293150459416,0.0014982209348119,0.0404261184126138,0.0009232921293005,0.0010020900517702,-0.0016451557166874
5.38645849609375,0.0092814769558608,-6.52655222453e-05,0.0420721320539712,0.0009095517452806,0.0004816893488168,0.0013106717960909
5.396437744140625,0.0006426452850922,-0.0026096345091238,0.0500040940970182,0.0015929188812151,0.0006649149581789,0.0011737853055819
5.40641650390625,-0.0011847710714675,-0.0019736929594539,0.0479091676443815,-0.000843366025947,0.0018271440640091,0.0021598394960165
5.416395751953125,-0.0013393405786715,-0.0001799231441691,0.0468611198961734,0.0003020595177076,0.0019350023940205,-0.001516121556051
5.42637451171875,0.0064084422701969,-0.0012543109100311,0.0357867681741714,0.0007617949158884,-0.0007250998169183,0.0001795379939721
5.436353759765625,0.0018308321563526,0.0034884266376495,0.0434188704878091,-0.0009069418301805,0.0001755813136696,0.0001505095278844
5.44633251953125,0.0096130835304036,-0.0024325791754759,0.0372860668212175,-0.0012468269560486,0.0028963331133127,0.0027213734574615
5.456311767578125,-0.0053759756836108,-0.0027558745793998,0.0452156907767057,0.0001124503905884,0.0014009680598974,-0.0014336906606331
5.46629052734375,0.0075458305359818,0.0048146702727302,0.0543400774747133,-0.0006943176267668,0.0009465673938393,0.0003786597517319
5.476269775390625,0.0008728921107016,0.004154014406912,0.0519487984240055,0.0015797556843608,-0.001705409027636,0.0008785350946709
5.48624951171875,0.0022817177290096,0.007128646303527,0.0432739090591669,-0.001458371290937,0.0002611530944705,0.0025996800977736
5.496228515625,-0.0007604812447912,0.0001339468442834,0.0390805490225553,-0.0006628850824199,-0.0007625659927725,0.00013812018733
5.50620751953125,-0.0051659313958138,-0.0067279565481469,0.0366886854499578,-0.0021214806474745,0.0001066615805029,-0.001079493202269
5.51618701171875,0.0010257993837818,-0.0010675013673491,0.0423760834366083,0.0002705706865526,-0.0012568775564432,-0.0003604397352319
5.526166259765625,0.0004781754383817,0.0001271152446977,0.0392348628014326,-0.0010247241007164,0.0006588287651538,-0.0014346097595989
5.53614501953125,-0.002973261923436,-0.0098348913212306,0.0458159947574138,0.0015430958010256,0.0014207595959305,-0.001117959851399
5.546124267578125,-0.0005762472516857,-0.0088472319907508,0.039981881776452,-0.000148965162225,0.0001487871631979,-3.47108507412e-05
5.55610302734375,-0.0006136749189347,-0.0040699345863424,0.0449164155691862,0.0001266720355488,-0.0005803862586617,0.000553048797883
5.566082275390625,0.0004488762786611,-0.0022722557809203,0.0547930819392204,0.001615920336917,0.0030821794643998,0.0012806062586605
5.57606103515625,-0.00297222074382,-0.0017213438998907,0.0540431403547525,0.0008143088780343,0.000611032359302,0.0008587614865973
5.586040283203125,-0.0008728373117744,0.0004891534901224,0.0462584778279066,-0.0002743027871474,0.001468832604587,0.0016328620258718
5.59601904296875,0.0071268927378579,-0.0009963723598979,0.0504465771675109,0.001381118199788,0.0010765483602881,-0.0003205664979759
5.605998291015625,0.0050795317539945,-0.0080955368406139,0.0444610730171203,-0.0025040730834007,-0.0021278010681271,-0.0007920046919025
5.61597802734375,0.0027659575819969,-0.0040462614498101,0.0353349327534437,0.0010507140541449,-0.0006912918761372,-0.0007579162484034
5.625957275390625,-0.0014627477626316,-0.0039372115847654,0.0375806658536195,0.00023747573141,0.0017720768228173,0.0015256293118
5.63593603515625,-0.0058079738927073,-0.0048965581362135,0.0429699576765298,-0.0016429822426289,-0.0028509041294455,-0.0006371238268911
5.645915283203125,-0.0046460722401738,0.0003946070744656,0.0374333663374185,0.0021376099903136,0.0014734845608472,7.2182701842e-06
5.65589404296875,-0.0023983663786202,0.0069785520420409,0.050750528550148,0.0015644975937902,0.0008005034178495,0.0034466907382011
5.665873291015625,-0.0049056182255037,0.0079237604702822,0.0459597871422767,0.0007234869408421,0.001657829619944,0.0013558778446167
5.67585205078125,0.0010641951654106,0.0099508823837153,0.0456581738471984,-0.0007969117141328,0.0007038852199912,-7.363960321526974e-07
5.685831298828125,-0.001046312448848,0.0064227447901852,0.0453659129023551,0.0022731269709765,-0.0016528768464922,0.0002000773674808
5.695809814453125,0.0040975897782482,-0.0021695991240441,0.0428249962478876,0.0001034497399814,-0.0004728296771645,0.0010826489888131
5.7057890625,-0.0002653729379177,0.000606185732223,0.0425263055622577,-0.001495555974543,0.0006464850157499,-0.0012006479082629
5.715767822265625,-0.0006536050705239,0.0010666611171327,0.0491086065620183,0.0015889171045273,-0.000775909051299,0.0010385379428043
5.7257470703125,-0.0100066494252532,-0.0028784597794525,0.0515033927440643,0.0027039842680096,-0.0004508858546614,-0.0006172775174491
5.735725830078125,-0.0095814828157424,-0.0127656658098101,0.0419224944502115,0.0022618996445089,0.0015174560248851,0.0005001848912797
5.745705078125,0.0007367533093318,-0.0052317266410216,0.0338426483690738,0.0004822606570087,-0.0011913636699318,-0.0017052105395123
5.75568408203125,0.0018210962136276,-0.0024632300420664,0.0477624526500701,-0.0004093656898476,-0.0036755604669451,0.0012527623912319
5.7656630859375,-0.0041851401975378,-0.0014304163956083,0.0512064556241035,0.0001625439617782,0.0003736987709999,0.0018688158597797
5.77564208984375,0.0060701502265408,0.0020656090266071,0.0521013586372137,-0.0009975290158763,0.000106849707663,0.0005375016480684
5.78562109375,0.0035551899972371,0.0028022162054665,0.0501566543102264,-0.0022387993521988,0.000695769675076,0.0002005450951401
5.79560009765625,0.0035349509268067,0.0007245879475027,0.0429711267203092,-0.0003335740184411,-0.0007149074226617,0.0015387834282591
5.8055791015625,-0.0087063987479545,0.0017877419332973,0.053147068297863,-0.0010992567986249,0.0005086651071906,0.0008029491291381
5.81555810546875,-0.0096179241023026,0.0016109788605943,0.0453618212491273,-0.000225207360927,0.002669021487236,0.0015592868439853
5.825537109375,-0.0031410927710123,-0.0036802046163938,0.0444604884952306,-0.0012532609980553,-0.0004584211856126,-0.001062240335159
5.83551611328125,-0.0086353976046666,0.001257014323771,0.0426660062938928,-0.0006559140165336,-0.0009601600468158,-0.0020643877796828
5.8454951171875,-0.0091058646606281,-0.0016772490298375,0.0591302343606948,8.09124321676e-05,-0.0019036391749978,0.0024036194663494
5.85547412109375,0.0003817110602743,0.0022726576397195,0.0461082557022571,-0.00189994671382,0.0020580794662237,0.0013865584041923
5.865453125,0.0036138613819144,0.0004473784413188,0.0362298357665538,-0.0015064270701259,0.0003100372850894,-0.0023686692584306
5.87543212890625,0.0006589023001492,-0.0036771724090911,0.0477513467341661,0.000953268550802,-0.0015906607732176,-0.0025947715621441
5.8854111328125,-0.0040420419324189,0.0039181963570415,0.0461070866584777,-0.0001002859789878,-0.0017662085592746,-0.0014906234573572
5.89539013671875,-0.0016731756429187,0.0034207316963002,0.0455067826777696,-0.0011034987401217,-0.0006183860823512,9.63541679084e-05
5.905369140625,-0.002258610848058,0.0056869595952332,0.0326385332763195,0.0003966573276557,-0.0004695318639278,0.0002220688329543
5.91534814453125,5.63880960457e-05,0.0058198104609735,0.0473047720104455,0.0001873329165391,-0.0016873953863978,0.002009049989283
5.9253271484375,0.0028332141319289,-0.0032372100892476,0.0371335066080093,0.0018234616145491,-0.0031442064791917,0.0016384752234444
5.93530615234375,0.0025771935442462,0.00012996478891,0.0482113654613494,0.0006516707944683,0.0003778245300054,0.0008286079973913
5.945284912109375,0.002308879730571,-0.000622789807152,0.0477659597814083,0.0012408823240548,-0.0001814505085349,-0.0005791840376332
5.95526416015625,0.0071768876257352,-9.79256828315e-05,0.0462701682657003,-0.0008246654178947,-0.0001513566821813,0.0014189857756718
5.965242919921875,0.0024226423033513,-0.0023498875943943,0.0543500143468379,0.0018088372889906,0.0020267181098461,-3.51603521266e-05
5.97522216796875,-0.0020475253806449,-0.0077866718208417,0.0461164390087127,-0.0008820206858217,-0.0004156669601798,0.0009499429143033
5.985200927734375,-0.0014241693179123,-0.0065389367820695,0.0519511365115642,-0.001853713998571,-0.0020463829860091,-0.0013797598658129
5.99518017578125,-0.0024153723123483,0.004759487753082,0.0486614473164081,0.0020550074987113,-0.0001315707340836,0.0010602283291518
6.005158935546875,0.0008140015303157,-0.0002587605340406,0.0483656792402267,-0.0009667314589023,0.0004430310800671,-0.0023845066316425
6.01513818359375,-0.0029144078756682,-0.0040482159448787,0.0582400075227022,0.0020668753422796,0.0018286742269992,-0.0007432005950249
6.025116943359375,-0.0009384316275827,0.0035542401491664,0.0408791228771209,-0.0014133634977042,0.0005466975271701,0.0013410503743216
6.03509619140625,-0.0005368285567499,-0.0051979339692741,0.0407300697952508,-0.000786189106293,-0.0010543949902057,-0.0001162313274107
6.045074951171875,0.0022961846457794,-0.001799761164654,0.0537479568004608,-0.0006690514273941,0.0009699296206235,-0.000643776205834
6.05505419921875,0.0003534713464789,-0.0033692389710806,0.0483621721088886,0.0015999616589397,0.0017789984121918,-0.0002903747372329
6.065033203125,0.0045702305249869,-0.0056608205069787,0.0413256976008415,0.0004678308614529,0.0007573422044515,-0.0015041478909552
6.07501220703125,0.0083050331391394,0.0001642506510019,0.0404284565001726,-0.0001263204030692,-0.0003417441621422,0.0003195848839823
6.0849912109375,-0.0006048888242803,0.0022360336900688,0.0441705656379461,0.0022183884866535,-0.0004612579941749,0.0012420165585353
6.09497021484375,-0.0041783451305702,-0.0049255285023711,0.0532990439891815,-0.0001028224942274,-0.0004261042922735,-0.0015127572696655
6.10494921875,0.002869965945743,-0.0030724479815922,0.0447685315310955,-0.0024256887845695,-0.0006433827802538,-0.0001497624034527
6.11492822265625,0.0077997504981234,-0.0066408810528926,0.0386368969082832,0.0013022040948271,-0.0019363481551408,0.0004630309704225
6.1249072265625,0.0050538858560845,0.000316098478157,0.0368377385318279,-0.0010741471778601,0.0028524380177259,-0.0003303315606899
6.13488623046875,0.0077751275135204,0.0018010398062877,0.0426706824690103,-0.0001870481646619,-0.0021484456956386,0.0026731814723461
6.144865234375,-0.0029290757218375,-0.0013927330000326,0.0353366863191127,-0.0034468034282326,-0.0011005848646163,-0.0022370172664523
6.15484423828125,-0.0110546789071522,0.0067501683799549,0.0526958173990249,0.0004107854329049,0.0004419181495904,0.0016245663864538
6.1648232421875,0.0018030673665925,-0.0041881906711496,0.0393774861425161,-0.0006082931649871,-0.0020766388624906,0.0013666263548657
6.17480224609375,0.0064997555491514,0.0020563480079174,0.0498527029275894,0.0003587006358429,0.0017700316384434,-0.0012848167680203
6.184781005859375,-0.00047897915598,-0.0094754103590734,0.0446130487084388,0.0003147536772303,-0.0014650905504822,0.0019075802993029
6.194760009765625,0.0027331147583201,-0.0055618353782221,0.047757191953063,9.07818903215e-05,0.0005802167579531,0.0001536224444862
6.204740234375,0.0118776491952128,-0.0066055174785666,0.0522469045877456,-0.0018623688956722,0.0004685465246438,0.0027024755254387
6.214718994140625,0.0067679962975904,-0.0038579540697857,0.0437216528266668,-0.0001627394813112,-0.0017072558403015,0.0032646688632667
6.2246982421875,0.013102478282433,-0.0047544279854744,0.0479126747757196,-0.0004302053712308,-0.0015634940937161,-0.001204841537401
6.2346767578125,0.0032063948258757,0.0008672843538224,0.040285833159089,0.0003623513039201,-0.0015549724921584,-0.0010828686645254
6.244656005859375,-0.0046973092370666,0.0013770057079382,0.0416337406367063,-0.0009523147018626,-0.0001537827774882,-0.0003940267197322
6.254634765625,0.0047249644289724,0.0020855010371655,0.0539034396231174,-0.0002574959653429,0.0016989782452583,-0.0001538095966679
6.264614013671875,-0.0013300978262908,-0.0032573943607509,0.0482201332896947,0.0008362982771359,-0.0020673982799053,0.0009051777306012
6.27459326171875,-0.0028632987429387,-0.0028697467500343,0.0302647898823022,0.0033050486817955,-0.0009427452459931,0.0002969117776956
6.284572021484375,0.0039295397349633,0.0005428381724283,0.0441810870319604,0.001386275049299,-0.0002011805772781,-0.0007928654667921
6.29455126953125,-0.0040813692958094,-0.0012718465667217,0.0494160650759935,-0.0008526444435119,0.0015615653246641,0.0003496306017041
6.304530029296875,0.0017177637033164,-0.0032974341101944,0.050164837616682,0.0016174775082617,0.0001019826158881,-0.0001542544632684
6.31450927734375,-0.0032482977388426,-0.0106079945855773,0.031011224335432,-0.000929303409066,-3.75667586922e-05,-0.0001356123248115
6.324488037109375,-0.001455970961973,-0.0018071772861294,0.0479196890383958,-0.0006971101975068,-0.001710201613605,-0.0012506552739068
6.33446728515625,-0.003415470999293,0.0020965338878333,0.0521089574217796,0.0029642037115991,0.0001425594091415,-0.0012892710510641
6.344446044921875,0.0070368581005372,0.0028256701462902,0.036548400196433,3.92541987821e-05,0.0002906527370214,-3.02381195069e-05
6.35442529296875,-0.0032982926267199,-0.0044026736720465,0.0401414562523365,-0.0015607730019837,0.0001060953363776,0.0008720408659428
6.364404052734375,-0.0055025794716551,-0.0054271396152675,0.0533107344269752,0.0026997032109647,0.0007122736424207,-0.0007773035904392
6.37438330078125,-0.0119745519647374,-0.0001062551197595,0.0498696540623903,-0.0002532097278162,-0.0005407435819506,-0.0009229785064235
6.384362060546875,-0.0030436968111433,-0.0001353898826986,0.0390916549384594,-0.0026074587367475,0.0008680205792188,0.0003462890163064
6.39434130859375,-0.0017392266164533,-0.0038649317998439,0.049715340283513,0.0011318859178572,0.00096389465034,0.0016166168497875
6.404320068359375,-0.0039714791805483,-0.0058123943394981,0.0419341848880052,0.0009042469318956,0.0016129482537508,-0.0025105488020926
6.41429931640625,-0.0024348259314894,-0.0066716232510283,0.0461222842276096,-0.0014119042316451,0.0002392902970314,0.000424254569225
6.424278076171875,0.003543024635408,0.0004787782265804,0.0465706125169992,0.00086478079902,-0.000988139770925,-0.0009120076429098
6.43425732421875,-0.0023502346542663,0.0021906053794547,0.042533319824934,0.001314322464168,0.0003423746675252,0.0001434030855307
6.444236083984375,0.0015602533203549,0.0087329031623899,0.0507633880317211,0.000635854084976,-0.0007593110203742,-0.0008101561106741
6.45421533203125,-0.0027525683774612,-0.0077167483897879,0.0440337875157594,0.0024875500239431,-0.0014959415420889,0.0010311534861102
6.464194091796875,-0.00061241454361,0.0027624139180406,0.048374447068572,0.0005789907299913,-0.0014854352921247,0.0015583358472213
6.47417333984375,0.0047606750631704,-0.0096246826366521,0.0465828874766826,-0.0008708341629244,-0.0005077887326478,-0.0009948366787284
6.48415185546875,-0.0084707633611746,-0.0006540251956321,0.0518219571739435,0.0005159352440387,0.000712645240128,0.0027937267441302
6.494131103515625,0.001085128355585,-3.48886502906e-05,0.0414969625145196,0.0002482875715941,-0.0018575713038444,-0.0013908984838053
6.50410986328125,-0.0017608721926808,0.0067011050738394,0.0447913278847932,0.0029957734514027,-0.0010687140747904,0.0003890746447723
6.51408935546875,-0.0074274831196293,-0.0010663871224969,0.0471890366762876,-0.000104944803752,0.0012554265558719,0.0005616474663838
6.524068115234375,0.000164305449929,0.0022971892927773,0.0507838462978601,-0.0007050762069411,-0.0002717766910791,0.0006273605395108
6.53404736328125,0.0041014987683855,0.0037962504778057,0.0494324316889047,-0.0020726094953715,0.001937847584486,0.0025144764222204
6.544026123046875,0.009899133930169,-0.0014985131957568,0.0422474886208772,-0.0022110778372734,0.0003981376066803,0.001017891918309
6.55400537109375,0.0014420703007839,-0.002122070187889,0.0371580565273761,-0.0018792479531839,0.0015848418697714,0.0002029647002927
6.563984375,0.0088388842875137,-0.0106797629138454,0.0438888260871171,-0.0015354494098573,0.0007578264921903,-1.65051642397e-05
6.57396337890625,0.0087330310265533,-0.0023737981929443,0.0446358450621366,-0.0002153203822672,0.0017104391008615,0.0014575545210391
6.5839423828125,-0.0026463680566288,0.006177318661753,0.0407458518862724,0.0014686802169308,-0.0004599848762154,-0.0005001178360544
6.59392138671875,-0.0053618923593312,-0.0060543498692102,0.0449392119228839,-0.0013593306066468,-0.000630160793662,-0.0017163835000246
6.603900390625,-0.0024405432862229,-0.0002182641268707,0.051222237715125,0.0016245922306552,-4.60157170891e-05,0.0012447731569409
6.61387939453125,-0.0096505477302707,-0.0007063764373771,0.0606505757957696,0.0001555926864966,0.000557723455131,-0.0003691024903673
6.6238583984375,0.0015639248484745,-0.0030933994380757,0.0509241315513849,0.0002922517014667,-0.001313935033977,-0.0008285859366878
6.63383740234375,-0.0064127896517515,0.0018963168743066,0.0606540829271078,-0.0009900603909045,0.0003809006884694,-0.0014261992182582
6.64381640625,-0.0065447454683482,0.0034527160034514,0.0394067122370004,0.0009647996630519,0.0003198329359292,-0.0010318902786821
6.65379541015625,-0.00547028463725,0.0008045761148445,0.0456932451605796,-0.0001446731621399,0.0008529974147677,3.57709650415e-05
6.6637744140625,0.0005021043032407,-0.007441255916655,0.0434480965822935,-0.0009759690728969,-0.0007547996938228,0.0004548791039269
6.67375341796875,0.0078412332859821,-0.0056267173079773,0.0458463898956775,0.000128177460283,-0.0010972823947668,-0.0025006970390677
6.683732421875,-0.0011438180065713,-0.0031498788656666,0.0477899251788854,-0.0006229579448699,0.0012110257521271,-0.0006343924906104
6.69371142578125,-9.64643781073e-05,-0.0115191728800535,0.0349187531679868,-0.0010456016752868,-0.0007655723020434,0.0012814856600016
6.7036904296875,0.002602784643229,-0.0031722916268743,0.0497322914183139,-0.0001659438130445,-0.0002825977280735,0.0003081477771047
6.71366943359375,0.0014346176466904,-0.0052707252108491,0.0555693270087242,-0.000961163721513,-0.0021758396178483,0.0011023023398593
6.7236484375,0.0002479834116995,0.0022864121704362,0.0471907902419567,-0.0004655988304875,0.0007985401898622,0.0005280355690047
6.73362744140625,-0.0054048181856051,0.0029109555432572,0.0430021063804626,5.07880467921e-05,-0.0006403652951121,0.0007639916148036
6.743606201171875,-0.004045896123629,0.0078646141615696,0.0473421814113855,-0.0015514970291405,-0.0004847422242164,0.0008338881889358
6.753585205078125,-0.0111475448223762,0.0057264696217142,0.0450987863987684,-0.000989570049569,0.00022285990417,0.0018994191195815
6.763564208984375,-0.0079945241515524,0.0094205383666791,0.0455436075568199,-0.0018660339992493,0.003686792217195,0.0001908915292005
6.773544677734375,0.0065177113309502,0.0068647894692607,0.0540694438397884,0.0012858171248808,0.0016484083607792,-0.0015542779583483
6.7835234375,-0.0044291780864819,-0.0023613953690975,0.042846623557806,0.0018751751631498,-0.0017398726195096,-0.0009911814704537
6.79350244140625,-0.0045815191039815,-0.0052785797237418,0.0444978978961706,0.000819231965579,-0.000399237498641,0.00191432738211
6.803481201171875,0.001625774570927,-0.0059392721221782,0.0458475589394569,0.0002228308003395,0.0016780709847807,-0.0001833328133216
6.81346044921875,0.0045676184427924,-0.003194375594519,0.0323795900791883,0.0012995467986911,0.0012509003281593,0.0012803404824808
6.823439208984375,0.0076223663709126,0.0009037439066916,0.0415039767771959,0.0005281656049191,-0.0013094553723931,-0.0001083957904484
6.83341845703125,0.0064241147633641,-0.0060687619870528,0.0436035794049501,0.0002421421231701,-0.0021547423675656,-0.0026149631012231
6.843397216796875,-0.0039891609677113,0.0036846798621118,0.0440571683913469,0.0022147861309349,-0.0010265791788697,0.0008059716783463
6.85337646484375,0.0062209934066981,-0.0015584084231406,0.0362789356052875,0.0013897386379539,6.98491930961609e-08,-0.0023972783237695
6.863355224609375,0.0119529611874371,-0.0066114905616268,0.0407698172837495,0.000147872720845,-0.0002082167193293,-0.0001100899098673
6.87333447265625,0.0001268229837529,0.0023333383183926,0.0446621485471725,-0.0007850326364859,-0.0012116953730583,-8.79856816027e-05
6.883313232421875,-0.0041319852381944,0.0013209098728373,0.0440635981321334,-0.0018792775226756,-0.000418646261096,0.0004294049576856
6.89329248046875,-0.0029420082686468,-0.000447104446683,0.0455605586916208,0.0010081216460093,-0.001262336038053,0.0015005284221842
6.903271240234375,-0.0078127378438599,-0.0005033646785654,0.0560381135642528,8.22915462777e-05,-0.002529620192945,-0.0017811420839279
6.91325048828125,-0.0014775800055824,-0.0004176043575629,0.0425701447039842,0.0005914879729971,0.0021945610642433,-0.0001496895420132
6.923229248046875,0.002304386218544,0.0041205139961093,0.0430173039495944,-0.0001474778400734,7.80746340751e-05,-0.0009957243455573
6.93320849609375,-0.0055116212946362,-0.0035601401669904,0.0454097520440816,-0.0010191304609179,-0.0003890441730618,-0.001501458697021
6.943187255859375,0.002211483770702,-0.004427461053431,0.0433177482008934,-0.0005396703490987,0.0006456403061747,-0.0010394523851573
6.95316650390625,0.0036020248136483,-0.0002215520625002,0.0508031355202198,0.0021149688400328,0.0008240723982453,-0.0017960564000532
6.963145263671875,-0.000594403962884,0.0045337892384268,0.0379337170749902,0.0007482286309823,-0.0012101223692297,0.0012942887842655
6.97312451171875,-0.0024730025174096,0.0021650690793991,0.0458627565085887,0.002433743327856,0.001696185208857,-4.44822762801e-05
6.983103271484375,-0.0005906411032192,0.000674446929153,0.0527449172377586,-0.0001299232826568,7.08606094121e-05,0.0009862324222922
6.99308251953125,-0.0015146971455775,-0.0120225010260008,0.0382271470636129,-0.0047656879760324,-0.0008556535467505,0.0013375034322962
7.003061279296875,-0.0008728190454654,-0.0026516652862541,0.043913376006484,0.0013799713924527,-0.0010877344757318,-0.0003273235925007
7.01304052734375,0.00055418155035,-0.0004668868593871,0.0590279430299997,0.0004276250256225,-0.0006360625848174,-0.0009398506954312
7.023019287109375,0.0004998575472272,0.0027258812999352,0.0436181924521923,0.0002805329859256,-0.0015076389536261,-0.0012034057872369
7.03299853515625,-0.003268536809273,0.0022060769432224,0.0509545266896486,-0.0012723562540486,-0.0012256102636456,-0.0004886133247055
7.04297705078125,0.0022939196234568,-0.0031110264263115,0.0430231491684913,0.000590230920352,0.0015274817124009,0.001871197251603
7.052956298828125,0.001259443742875,-0.0006399418713524,0.0469154804319143,-0.0002910091425292,-0.000318887643516,-0.0015200719935819
7.06293505859375,0.004382069275435,0.0073377224769443,0.0497585949033498,0.0002016973448917,0.0005725417286157,-0.0001229167828569
7.072914306640625,0.0085665336195379,0.011281948324386,0.0472130020737648,-0.0008840733789838,-0.0019167149439454,-0.0021322718821465
7.08289306640625,0.0041140294563956,0.0030615612613968,0.0407797541558742,-0.0013949580024927,-0.0006095478311181,0.0001239156117662
7.092872314453125,0.0017248327649198,0.0004951083068735,0.0428776032179594,-0.0004964075051248,-0.0015437845140695,0.0003912969841621
7.102851318359375,-0.0050250798867084,0.0035350239920429,0.0436263757586479,0.0015859447885304,0.00021234434098,0.000520056230016
7.112830322265625,0.0055142881757579,-0.00012340718396,0.0517062218397855,-0.0007520443759858,0.0018744226545095,0.0012593497522175
7.122809326171875,0.0033079920368269,-0.0002846073613502,0.0518500142246484,0.0028755529783666,0.0027525592595338,-0.001042405841872
7.132788330078125,-0.0038262620235793,-0.0029513606188818,0.0455664039105176,-0.0004371530958451,-0.0021441951394081,0.0009011690854094
7.142767333984375,-0.0024679975487291,0.0037845965726301,0.0448211385011672,0.0039065456949174,0.0009005004540085,-0.00068221159745
7.152746337890625,-0.0024477767446078,4.65973543934e-05,0.0347960035711526,0.0004561538808047,-0.0009677074849605,0.0005705393850803
7.162725341796875,0.0027468144901096,-0.0052022448182106,0.0502075077146291,0.0023449345026165,0.0015315311029553,-0.0018456316320225
7.172704345703125,-0.0055421808296814,0.0076031319474801,0.0569447070151567,0.0008951094350777,-0.0011838283389806,-0.0025795989204198
7.182683349609375,0.0020724406261928,0.0010155702507123,0.0445277085125446,0.000163682620041,-0.000726394355297,-0.0011263313936069
7.192662353515625,0.0033276465853676,0.0014528656894341,0.0482727402597665,0.0032974241767078,0.000773231498897,0.00090060045477
7.202641357421875,-0.0044765608921647,0.0077767897476442,0.0677256287485361,0.0004889197880402,0.0017878767102956,-0.0003327227896079
7.212620361328125,-0.0003978219448588,0.0041478769270703,0.0388455712229013,-0.0017121827695518,0.0004216749221086,-0.0026874898467212
7.222599365234375,-0.0032576135564595,0.0005522453215904,0.0461778138071298,-0.0009565650252625,0.0005591204389929,0.0034156099427491
7.232578369140625,0.0077055694086477,0.0012765592744573,0.0520136803537607,0.0008469276945106,-0.0017740754410624,0.0013471328420564
7.242557373046875,0.0054406384176574,0.0058257652777247,0.047671267235279,-0.0012656592298299,0.0006162365898489,0.0026312009431421
7.252536376953125,-0.0106286355148069,-0.0070666687169112,0.0410854591041803,-0.0023748658131808,0.0008956016972661,-0.0009853717638179
7.262515625,-0.0070755644094198,-0.0049820261962711,0.043180385556817,-0.0030646165832877,-0.0023617055267095,0.0010804837802425
7.272494384765625,-0.0024821904708631,-0.0034372444396838,0.0496153870403766,0.0013463768409565,0.0004777563735842,0.0006676938501186
7.282473388671875,0.0033864823668263,0.0052707434771582,0.0397410587579011,-5.67092793062e-05,-6.2508508563e-05,0.0022575203329324
7.2924521484375,-0.0001392075412906,0.0046222712394781,0.0502162755429744,-0.000836749211885,-0.0013530766591429,-0.0030421700794249
7.302431396484375,0.0037340354291722,0.0002009476658888,0.0431815546005964,-4.74379630759e-05,0.0006572687998414,0.0010963913518935
7.31241015625,-0.0018969013961963,0.0015412928915582,0.0403361020416021,-0.0004229436744935,0.0004767058417201,-0.0005718127358704
7.322389404296875,0.0042421128154732,0.0065268444854766,0.0415314493060112,-0.0005112617509439,0.0018329937011003,-0.0004497746704146
7.3323681640625,0.0022204342621378,0.0001556472194381,0.0581406388014554,0.0002501360722817,0.0003829021006822,-0.0007973171304911
7.342347412109375,-0.0053348216893151,0.0020724406261928,0.0442190809547901,-0.0029120163526386,0.0017855176702141,-0.0007997476495802
7.352326171875,-0.0041203495993278,0.0030662009038962,0.0449608392328023,0.0013929835986346,9.78717580437e-05,-0.0004066650872118
7.362305419921875,-0.0001221650749444,0.0082648837918415,0.0436158543646335,-0.0008533771615475,0.00030008982867,0.0004925963003188
7.372285400390625,-0.0063202342637814,-0.0001499481310136,0.0460118095904588,-0.0016600487288087,-0.0005577141419053,0.0003892656532116
7.38226416015625,-0.0028791721655055,0.0044248489712364,0.0473544563710689,-0.0011182542657479,0.0006205923855304,0.001013740664348
7.392243408203125,0.0031248722885735,0.0044124096147716,0.0359790758758783,0.0021569011732935,-3.08165326714e-05,0.002199912443757
7.40222216796875,0.0104661566957831,0.0024550650019198,0.0419669181138277,-0.0009678145288489,0.000693985261023,-3.4229742595925934e-08
7.412201416015625,-0.0024074630005285,0.0080399707284756,0.043463878673315,0.002622659318149,-0.0003046998754143,-0.0004045683890581
7.42218017578125,0.0034151056731119,0.0087838478983379,0.0422726230621337,-0.0003425717586651,-0.0008459137752652,-0.0022622682154178
7.432159423828125,0.0023605916514992,0.0065529105084948,0.0491594599664211,-0.0014584362506866,-0.0008254069834947,0.0025868155062198
7.44213818359375,0.0057221405064687,0.0066839530096389,0.0443722256898879,-0.001142272609286,-0.0003377217799425,0.0002190192462876
7.452117431640625,-0.0026195165823213,-0.0072950889116153,0.0431751248598098,-0.0017018027137964,0.0009358013048768,0.0007511188159696
7.46209619140625,0.0102828542844392,-0.0083137644348666,0.0388315426975488,-0.0022891347762197,-0.0027409605681896,0.0011860134545713
7.472075439453125,0.0123496140885166,-0.0075457026718184,0.0569382772743701,-0.0021770158782601,-0.0019923457875847,-0.0008835289627313
7.48205419921875,0.0021305640215985,-0.0001540580505505,0.0479611900925636,-0.0004471668507903,-0.0006488608196377,0.0004923535743728
7.492033447265625,-0.0074501333428546,0.0039027978585101,0.040177696609497,0.0045353416353464,0.0007096175104379,-0.0018911755178123
7.50201220703125,-0.0061886437733657,-0.0028412695742212,0.0364344184279441,0.0002051567425951,-0.0010023945942521,0.0002069731126539
7.5119912109375,0.0003637004795484,-0.005115059725102,0.0413689522206783,-0.0006723548285663,0.0005150754004716,5.09118726768e-05
7.52197021484375,-0.0003011201047338,-0.0050703072679229,0.0539350038051605,0.0004297367995604,-0.0005834279581904,-0.0019292553188279
7.53194921875,-0.0043861243960447,-0.0003359356897883,0.0416629667311906,-0.0025508729740977,-0.0005607912316918,0.0013051538262516
7.54192822265625,0.0004381356889382,0.0051472449616529,0.0395674557566642,-0.0019581420347094,-0.0010405406355857,0.0007705467287451
7.5519072265625,0.0093123652844689,0.0003985160646028,0.0428588985174894,-0.0008883500704541,-0.0025518843904137,0.0016232909401878
7.56188623046875,0.0085078805011697,-0.000356649684254,0.0475023404091596,0.0012578904861584,-0.00053321570158,0.0001089691577362
7.571865234375,0.0044484673088416,0.0031345534323714,0.0443570281207561,0.0001814407296478,0.0016638915985822,-0.0004172714834567
7.58184423828125,0.0003401004082523,-0.0009941256038844,0.0518418309181928,-0.0001562777324579,-0.0006963815540075,-0.000476583634736
7.5918232421875,-0.0002117430545389,-0.0063094754077494,0.0475046784967184,0.0012466756161302,-6.41476362943e-05,0.0004922744119539
7.60180224609375,0.0056967320705763,-0.0023914982464164,0.0489969628810882,-0.0017845885595306,0.0028169592842459,0.0023952997289597
7.61178125,0.001007496542111,-0.0086969550661742,0.0497463199436664,-0.0011286520166322,0.0004691164940595,-0.0004289825737942
7.621760498046875,-0.0067465151181444,-0.0053345659609884,0.0463040705353021,-0.000415502116084,-0.0014384491369128,-0.0007466103998012
7.6317392578125,0.004006386097148,-0.0018178448106162,0.0469002828627824,-0.0004178989911451,0.0014422927051782,0.0012544888304546
7.641718505859375,-0.0064480618945322,-0.0074167607962153,0.0494429530829191,-0.0002279886975884,0.0023356862366199,-0.0003177406033501
7.651697265625,0.0033734402221627,-0.0097323077295906,0.0382113649725914,-0.0026626505423337,0.0022978689521551,-0.0006354557699523
7.661676513671875,-0.0022280695793218,-0.0027994762591086,0.045839960154891,-6.84277620166e-05,-0.0013479609042406,0.001360499067232
7.6716552734375,-0.0013632511772215,-0.0010890921446494,0.0486807365387678,-0.0024737948551774,0.0021154796704649,-0.0014592559309676
7.681634521484375,-0.005157346230559,0.0058288157513365,0.056464814543724,0.0033124445471912,-0.0009563006460666,-0.0024929165374487
7.69161328125,0.0015685644909739,0.0075150518052279,0.0412047015696764,-0.0004173127235844,0.000377676449716,-0.0003155159647576
7.70159228515625,-0.0032567185073159,0.0031931882844306,0.0383586644887924,-0.0001497127814218,-3.60365957021e-05,0.0009071273962035
7.711571044921875,-0.0173612865043804,0.0024345702031627,0.0519715947777032,-0.0032142121344804,0.0001993868499994,-0.0009743958944454
7.72155029296875,-0.011736998615507,-0.0055269101953133,0.0432908601939678,0.00133111118339,0.0007498376071453,0.0008307508542202
7.731529052734375,0.003581493482273,-0.0088387198907323,0.0452361490428447,0.0015481587033718,0.0010917875915765,-0.0009184133377857
7.74150830078125,0.0125446800028905,-0.0075038728240877,0.0425420876532793,0.0024707252159714,0.0007182080298662,-0.0028328739572316
7.751487060546875,0.0163229198999702,-0.0123782739274203,0.0429927540302276,0.0006560473702847,0.0003150049597024,-0.0015284578548744
7.76146630859375,0.0144700220422819,-0.0033152802941389,0.0555599746584892,-0.0017456242348998,-0.0017511276528239,0.0023485315032303
7.771445068359375,0.0014114011678844,-0.0017208324432373,0.0552624530166387,-0.0006020627915859,-0.0005127573385834,0.0010648878524079
7.78142431640625,-0.0098537786847911,-0.0043461211792193,0.0470358919411897,0.0003237725468352,-0.0010553067550063,-0.0008107008761726
7.791403076171875,-0.003220715612173,0.0034321664057672,0.0416477691620588,-0.0022267368622124,0.0001071626320481,-8.87178975972e-05
7.80138232421875,-0.0126775308686308,0.0083685450957156,0.0456838928103446,-0.0025601575616747,-0.0001352317631244,0.0013467106036841
7.811361083984375,-0.0033529271570965,0.001541913946066,0.0474777904897928,-0.0004259003908373,-0.0019099619239568,-0.0016844993224367
7.82134033203125,0.00071326283589,-0.0026736579223535,0.0441863477289676,-0.0004324117908254,-0.001049249432981,0.0006509850500151
7.831319091796875,0.0094643592420965,0.0025398572085425,0.0434381597101688,0.0004395071882754,0.002597683109343,0.0009809506591409
7.84129833984375,-0.0001422945475205,0.0009405139868147,0.0428325950324535,0.0020844612736254,0.0017003333196043,0.0001461601641494
7.851277099609375,-0.0126026024688966,-0.0005535422295331,0.0434305609256029,0.0011230602394789,0.0002073654904961,-0.0018315032357349
7.86125634765625,0.0011908172197639,-0.0025122202829457,0.0389455244660377,0.0002777466434054,-0.0031071128323674,-0.0003041635209228
7.871235107421875,-0.0114058304323814,-0.0013212569327093,0.0404442385911941,0.0006804166478104,0.0009656595066189,0.0001009032712318
7.88121435546875,-0.0037345834184437,0.0109580683985725,0.0396972196161746,0.0016216752119362,3.0243769288e-05,0.0003394805535208
7.891193115234375,0.0035488515879958,0.0122861386645585,0.0495721324205398,-7.28941522538e-05,0.0003812490031123,-0.0014637458370998
7.90117236328125,0.0033351540383882,0.0114560262496583,0.0458282697170972,-0.0011907380539923,0.001008603721857,0.0006667459965683
7.911151123046875,0.0101061642769724,-0.0060701319602318,0.0356523281395435,0.0021134458947926,0.0005923518911004,-0.0012470015790313
7.92113037109375,0.0079635810240171,0.0054740474969148,0.0437310051769018,0.0027513245586305,0.0025530913844704,-0.0004296149709261
7.931109130859375,0.0023388182111084,0.0028952099848538,0.0387964713841676,-0.0004945361870341,-0.0042797806672751,0.0008489686297252
7.941088134765625,0.002406622750312,-0.0038626667775213,0.0326624986737966,0.0006054043769836,0.0008589075878262,-0.0029012816958129
7.95106689453125,-0.0072424819415435,0.0002715469503775,0.05600596486032,0.0002711777342483,0.0017630513757467,0.0007259436533786
7.961046142578125,-0.0148674786609597,-0.0086067194994539,0.0468763174653053,-0.0002520058187656,0.0018617277964949,0.0008744185324758
7.9710263671875,-0.0150409903306514,0.0010856398122385,0.0398386739134788,-0.0021401869598776,0.0019043385982513,0.0012134389253333
7.98100537109375,-0.0088109916335903,0.0029020598507486,0.0468681341588497,-0.0008039025124162,0.0018142042681574,-0.0003260234079789
7.990984130859375,-0.0005338328820653,-0.004707830631081,0.0437274980455636,0.0010089112911373,-0.000224445015192,-0.0005742300418205
8.000963134765625,0.0046156771019101,-0.0020744499201886,0.0420779772728681,-0.0011073012137785,-0.0002960367128252,-0.0022732396610081
8.010942138671876,0.0026014694689773,-0.0008338022093288,0.0500116928815841,0.0005390648730099,-0.0022433400154113,-0.0005610935040749
8.020921142578125,-0.0024400866284966,-0.002961133094225,0.047318800535798,0.0003433162928558,-0.0007607573643326,-0.0004956003394909
8.030900146484376,0.0048788398164324,-0.0047419338300824,0.0426765276879072,0.0007102998788468,-0.0005218712612986,0.0029571880586445
8.040879150390625,0.0005042962603271,0.0001391162097454,0.0468669651150703,0.0003899779985658,0.0010606264695525,0.0003807456523645
8.050858154296876,-0.0050203489126637,-2.30886146426e-05,0.0399836353421211,0.0019394049886614,-0.0007636388763785,0.0012537298025563
8.060837158203125,-0.0057554217215627,-0.0024822087371721,0.043277416190505,0.0022241277620196,0.001584431156516,0.0016571304295212
8.070816162109375,0.0005566292357631,-0.001906162414886,0.0443242948949337,-9.06919594854e-05,-9.2042610049e-06,-0.0012457151897251
8.080795166015625,0.0062629511185921,-0.0043171325467526,0.0467149894237518,0.0007953050080686,0.0013724574819207,-0.0004069670976605
8.090774169921875,0.0041874234861694,-0.0093827088406309,0.0491068529963493,0.0006935722194612,-0.0009932285174727,-0.0017974035581573
8.100753173828124,-0.0035647250105626,-0.005731620720867,0.0441764108568429,0.0005833519389852,-0.0028265267610549,0.0013929093256592
8.110732177734375,-0.0061494260078296,-0.0065397587659768,0.0407388376235961,0.0022843130864202,-0.0002419287338852,-0.0010492093861103
8.120711181640624,-0.013133677138295,0.0047839098082855,0.0386433266490697,-0.0005409190198406,0.0009066136553883,0.0035614524967968
8.130690185546875,-0.006434124700725,0.0041161848808638,0.0407388376235961,-0.0021151134278625,0.0005542775616049,0.0012759277597069
8.14066943359375,0.0002098068257793,-0.0003044263066723,0.0366980378001928,0.0012755848001688,0.000648621469736,-0.0003053661785088
8.150648193359375,0.0004743943124078,0.0053031296431086,0.0384901819139718,0.0009179222397506,0.0024667615070939,0.0010392637923359
8.16062744140625,0.0147254581080749,0.0026626798706129,0.0401344419896602,-0.0023755168076604,-0.0008671758696436,0.0015958226285874
8.170606201171875,0.0018095884389244,-0.0012895466201938,0.0353442851036787,-0.0001539079239591,-0.0004232265055179,0.0008181795710697
8.18058544921875,-0.0039933622187934,-0.0032761355938389,0.0344499666124582,0.0010024997172877,-0.0028409762308001,-4.64091062895e-05
8.190564208984375,-0.0014078392376191,-0.0013500446357764,0.0456733714163303,-0.0014484074199572,-0.000795136205852,-9.24817941267e-05
8.20054345703125,-0.005229772145953,-0.0049940454276278,0.0473164624482393,-0.0005783110391348,0.001381853595376,0.0003771039191633
8.210522216796875,-0.002888013059087,0.0011372969342395,0.050457683083415,0.0029080333188176,-0.000189677812159,-1.27828589029e-05
8.22050146484375,0.0002649528128094,0.0027768991011194,0.0548006807237863,0.0012298675719648,-0.000331025570631,-0.0007267915061675
8.230480224609375,0.0018958967491984,0.0088134210526943,0.0489630606114864,-0.002382444217801,0.0015678089112043,-0.0003566120867617
8.240459228515626,-0.0003415251803584,0.0078035316240973,0.0380342548400163,0.0023540863767266,-0.0011071115732192,0.0007614012574777
8.25043798828125,0.0018110680099576,0.0077885897832922,0.036986791613698,-3.58344987034e-05,0.0009371312335133,-0.0014479571254923
8.260417236328125,0.0047531676101498,0.0085309691158123,0.0444675027579069,-0.000262176094111,-0.0003361031413078,0.0008965313900262
8.27039599609375,-0.0014775982718914,-0.0019496910293586,0.0453629902929067,-0.001970593817532,0.0025329208001494,-0.0030436154920607
8.280375244140625,0.0008447254621423,0.0012818382377736,0.0474585012674331,0.0010679576080292,-0.0014636507257819,0.0004672323993872
8.29035400390625,-0.0056654418831691,-0.0106614418058656,0.0494084662914276,0.0004764696350321,0.0009707445278763,-0.0012182822683826
8.300333251953125,-0.0061146469553932,-0.0192547355681657,0.049556934851408,-0.0032534007914364,-0.000818052329123,-0.0013636848889291
8.31031201171875,-0.0061497548013925,-0.0090914708090946,0.0600339052021503,-0.0003955627325922,-0.0013096714392304,0.0022725951857864
8.320291259765625,-0.0019614727986976,-0.0033756504455581,0.0494102198570966,0.0001885729725472,-0.000141654163599,-0.0002978598058689
8.33027001953125,-0.0028215054278261,-0.0029285642651841,0.055692661127448,-0.0002844044356606,0.0025393506512045,-0.0010629859752953
8.340249267578125,0.003135101421643,0.0077088573442772,0.0480570516824722,-0.0016355023253709,0.0004546465352177,0.0012339185923337
8.35022802734375,0.0069563219439238,0.0082452657759189,0.0504459926456212,-0.001304205157794,-0.0014668237417936,-4.20017968281e-05
8.360207275390625,-0.0023872239300981,0.0135776763124391,0.0486515104442834,8.9346547611e-05,-0.0008681844919919,0.0009970853570848
8.370186279296876,-0.0131741552791558,0.0112351500405929,0.0697346304833888,0.0110485199838876,0.0338104330003261,0.0003182455548085
8.380165283203125,-0.0143944725880399,0.0066273457178846,0.1034919386565685,0.0037275836803019,0.0086744371801614,-0.0014055098872631
8.390144287109376,0.0360177273858338,-0.0110210506321862,-0.1130120466738939,-0.0031673405319452,-0.0108348159119486,-0.001221751794219
8.400123291015625,-0.0052262650146149,-0.0075541417066007,0.0629869097888469,-0.0026213706005364,-0.0194835290312767,0.0004640838014893
8.410102294921876,-0.0015669935883954,-0.0043813386230729,0.0447621017903089,0.0003453907556831,-0.0025828424841165,-0.0016041269991546
8.420081298828125,-0.0079783767343498,-0.0068209868601523,0.0821715027302503,0.0001466971589252,-0.0019438527524471,0.0009913252433761
8.430060302734375,0.004366122787632,-0.0108460959240794,0.0381774627029895,-0.0011475990759208,0.000274826772511,0.0011716213775798
8.440039306640625,0.0067437569054774,-0.0081471574299968,0.055379357394576,-0.0010075838072225,0.0006707068532705,-0.0004886116366833
