seconds_elapsed,ax,ay,az,gx,gy,gz
0.08138232421875,0.0050379941672086,0.0013859196667559,0.0294482128024101,0.0009527198271825,-0.0009443117305636,-0.0009738511289469
0.091362548828125,-0.0082147793061099,-0.0044678021969739,0.0400689755380153,-0.0014268771046772,0.0022622505202889,-0.0010534228058531
0.101343505859375,-0.0007898352034389,-0.0102710268493276,0.0409568642884492,0.000346255605109,-0.0006669601425528,0.0016896330052986
0.111324462890625,0.0124430462593212,0.0016115999151021,0.0387216525822877,-0.0014951329212635,-0.0001498572528362,-0.0025281163398176
0.1213046875,0.0003599558861926,0.0080685209695249,0.0302910933673381,0.0003557640593498,0.0003414964303374,-0.0011027924483641
0.131285400390625,-0.0021891988736577,0.0001411255037412,0.0377677128583192,0.0005016888026148,-0.0006225015968084,7.85276643e-05
0.141266357421875,-0.0018555830051191,0.0007162219779565,0.0437514634430408,0.002307045739144,-0.000449395738542,-0.0005843331455253
0.15124658203125,-0.0021040230745449,0.0017043196998536,0.0340472310304641,-8.60543223097e-05,-0.0004462664946913,-0.0006305387360043
0.1612275390625,-0.0081616974120028,-0.0025892401750665,0.0442097286045551,-0.0016527919797226,0.0018584327772259,0.0032486217096447
0.17120849609375,0.0035465317667461,0.0050146863568574,0.0357002589344978,-0.0010721118887886,-0.0017520645633339,0.0018139169551432
0.181188720703125,0.0004014752066694,-0.0019104367312043,0.0325537776023149,-0.0007512009469792,-0.0036200061440467,-0.0001019610790535
0.19116943359375,-0.0009950023867189,0.0010745978284161,0.0371709160089492,-0.0009067617356777,0.0008835326880216,4.04323800466e-05
0.201150390625,-0.0016106318007223,-0.0014628847599495,0.0278963071852922,-0.0019256870727986,0.0022691749036312,-0.0022626693826168
0.211131591796875,-0.0087824048599228,0.0044979050742927,0.0463023169696331,-0.0004411161062307,0.000794350169599,-0.0006987769156694
0.221111572265625,0.0040135099576786,0.003428988067992,0.0430102896869182,-0.0008581671863794,0.0001032594591379,0.0011100422125309
0.231092529296875,0.0013300430273637,0.0071531596902757,0.0356815542340278,-0.0005070207989774,-0.0007736375555396,-0.0023765647783875
0.24107373046875,-0.0099842731966637,-0.0009948014573194,0.0364379255592823,-0.0006172757130116,-0.0003557875752449,0.0008682307088747
0.251053466796875,-0.0143378652962855,0.0004747505054343,0.0419797775954008,-0.0018550840904936,-0.0034779100678861,-0.0037991809658706
0.261034423828125,0.0073876990985125,0.0056739357168786,0.0418307245135307,7.06476857885e-05,-0.0017154300585389,0.0005351135623641
0.271015380859375,-0.000490779191628,0.0111596827847417,0.0373404273569583,0.0002915982622653,-0.0014620628207921,-0.0019297637045383
0.28099560546875,0.002446114510484,0.0082957173215225,0.0355465296775102,-0.0020189601927995,-0.0013265078887343,0.0022836232092231
0.2909765625,0.0010731456568464,-7.65541012398e-05,0.0364548766940832,0.0021799337118864,-0.0015392461791634,0.0004677366523537
0.30095751953125,-0.0020022432005032,-0.008235949958302,0.0309177008330821,0.0013104114914312,-0.001333650201559,0.0029532648622989
0.310937255859375,-0.0047998562960885,-0.0038717633994296,0.0234364051669836,-0.0015761160757392,-5.56325539946e-05,-0.0022343909367918
0.32091845703125,-0.0001665339396335,0.0026466785838827,0.034817630881071,-0.0014064726419746,-0.0005986513569951,-0.0040243016555905
0.3308994140625,-0.0041702714219689,0.0064116754068993,0.0420130953431129,0.0010532459709793,-0.0005442714318633,0.0020358487963676
0.34088037109375,-0.0048455403350293,0.0015448091560509,0.0472451507776975,-0.0009036448318511,-0.000750932842493,-0.0018995044520124
0.350860595703125,-0.0011750533950515,0.0098266258163843,0.0385685078471899,0.0009003661107271,0.0004327576607465,-0.002693464513868
0.360841552734375,-0.0034520584163255,0.0014748400592245,0.0264490309864282,-0.0011446751886978,-0.0027377353981137,-0.0008446980500593
0.370822509765625,-0.0019028196803294,0.0009531086069066,0.0382704016834497,0.0001562004908919,0.0006438652053475,0.000531414640136
0.38080224609375,0.0031180041563697,0.0022158128859475,0.0414075306653976,-0.0001141102984547,0.0003929948434233,0.0022699262481182
0.390783447265625,-3.33177477121e-05,-0.0014529113552067,0.0479904161870479,-0.002182891126722,-0.0001595951616764,0.0005532898358069
0.400764404296875,0.0050644437827169,-0.002622704053251,0.0354243646025657,0.0015037227421998,-0.0023484472185373,-0.0012307617580518
0.410744384765625,-0.0021814904912374,0.0037983237038832,0.0427583607524633,0.0025368595961481,6.49280846118e-05,-0.0005335037712939
0.4207255859375,0.0080370846516452,0.0037381727481726,0.040371757876873,-0.0001928805140778,-0.0016442891210317,-0.001444571185857
0.43070654296875,-0.0046286461813375,0.0048840183150488,0.0390302801400423,-0.0006618134211748,-0.0002415357157588,-0.0006509138038381
0.440686279296875,-0.0080809237933717,-0.0037753264207858,0.0321492884546518,0.0015882913721725,-0.001080697402358,-0.0011417344212532
0.450667236328125,-0.0012741298553533,-0.0003737652158364,0.0281114112406969,-0.0021317210048437,-0.0014275414869189,0.0008033233461901
0.4606484375,0.0059349978058598,-0.0002764697206672,0.0415799646228551,-0.0012086695060133,8.1686303019e-06,-0.0001330440136371
0.47062939453125,0.0033958895159885,-0.0020573800543788,0.0496586416602134,-0.0011299222242087,-0.0001907041296362,0.0008747256943024
0.480609375,-0.0015358312651515,-0.0067417293451726,0.0326005393534898,-4.25536418333e-05,-0.0025092521682381,-0.0004800243186764
0.490590576171875,0.002302997979056,0.0017640596636105,0.0360445423275232,0.0004249728517606,-0.0006400113925337,0.0020252615213394
0.5005712890625,0.0001322846101596,-0.0044343474519439,0.0366390010893344,0.0009014122188091,-0.0005577197298407,-0.0007801124593243
0.51055126953125,-0.002669657600671,-0.0013908789696637,0.0463671988993883,-0.0016812137328088,-0.0012953169643878,-0.001857245224528
0.520532470703125,0.0032665457815863,0.0020805600005667,0.0403869554460048,-0.0017533854115754,0.0016786344349384,-0.0004249971825629
0.530513427734375,0.0024953787459991,-0.0032731307859998,0.0334995340198278,0.0016707514878362,0.000535275787115,-0.0016666641458868
0.54049365234375,-0.005549322956521,0.0104041334433946,0.0421755924284458,0.0006717997603118,0.0005802828818559,-0.0006048618233762
0.550474609375,-0.0084330069003626,0.0027475816750898,0.0459159480005502,0.0004148673033341,0.0020131124183535,-0.0005521243438124
0.560455322265625,-0.0030628581693395,-0.003493988728756,0.0412795203715562,1.0865740478e-05,-0.0009078430011868,0.0011624187463894
0.570435546875,-0.0033938254230655,0.0016430088335182,0.036039281630516,-0.0015295166522264,0.0001692278310656,-0.0006428909255191
0.58041650390625,-0.0025305231246165,-0.0052859684457536,0.0507031822770834,-0.0013931628782302,0.0017815055325627,-0.0017987028695642
0.5903974609375,-0.0003970547598786,0.0014593593623023,0.0504050761133432,4.4367625378e-05,-0.0002736151218414,-0.0013258502585813
0.60037841796875,-0.0071357518977485,0.0054145541283302,0.0339455242216587,-0.0006131668924354,-0.0007172971963882,0.0005466183647513
0.610358642578125,0.0071505841406993,-0.0007323967946227,0.0337958866178989,-0.0006610667915083,-0.0009816698729991,0.0009968217927962
0.62033935546875,0.0047817178511992,-0.0051609081608243,0.0323012641459703,8.16887477412e-05,0.001862852834165,0.0003259714576415
0.630320556640625,0.0016816146777011,-0.0016356749104335,0.0287099616557359,0.0009937803260982,0.002279719337821,-0.0002824064576998
0.640300537109375,-0.0031132914486341,-0.0017487342303153,0.0379822323918342,0.0014593007508665,0.0012988774105906,-0.0002728190738707
0.650281494140625,0.0008935878388583,-0.0023462434657383,0.0403799411833286,-0.0026905927807092,-0.0023735035210847,0.0011338667245581
0.6602626953125,0.0112392964927479,0.005611337075755,0.0369371072530746,0.0015962977195158,-0.0002387138083577,6.46075932309e-05
0.67024267578125,0.0062273318159393,-0.002382885681698,0.0330453605115413,0.0001875777961686,0.0016681952401995,-0.0012249476276338
0.680223388671875,-0.0028363194044679,-0.0028279077691491,0.0439718281954526,-0.0017930150497704,-0.0022636959329247,-0.0009708820143714
0.690204345703125,0.0021686310096643,-0.0024660430536605,0.0396299995988607,-0.0001067721750587,-0.0012737633660435,-6.07381516601e-05
0.7001845703125,0.000322327289544,0.0007239029609132,0.0433726932585239,0.001735869096592,-0.0008284822106361,-0.0002335773169761
0.71016552734375,-0.0012621836892329,0.00015821363586,0.0426256742835044,-0.0002877310616895,-0.0008741682395339,-0.000324562046444
0.720146484375,0.0041831857024692,0.0069941606031265,0.0501075544714927,-0.0014672450488433,-0.0010400833562016,-0.00131765473634
0.730127685546875,0.003675400577113,-0.0060221554995048,0.0342447994291782,0.0012593790888786,-0.00153165217489,-0.0011875247582793
0.740107421875,0.0052048569004051,-0.0005819372069556,0.0417202498763799,0.0002974453382194,-0.0014538876712322,-0.0005414418410509
0.75008837890625,0.0004420081464573,0.0005686210676562,0.0361801514059305,-0.0001427609240636,0.0009848941117525,0.0006119078025221
0.760069580078125,0.0030291568291373,0.0015837255274876,0.0394733477324247,-0.0013662171550095,-0.0016076928004622,-0.0002821153902914
0.770049560546875,0.0026210144196636,0.0068381754569709,0.0451601611971855,0.0019898435566574,-0.0017076758667826,0.0008098362595774
0.780030517578125,-0.0032860359333455,0.0057375116055365,0.0363292044878005,0.0022415122948586,0.0021616304293274,-0.0008916573133319
0.790011474609375,0.0035348595952615,0.0005707582258153,0.0423106169849634,0.0031697782687842,0.0007095010951161,-6.3899118686e-05
0.799991455078125,0.0079973919620737,0.0018302750339265,0.0412619847148656,0.0002336433390155,-0.0011451244354248,-0.0010705739259719
0.809972412109375,0.0067933134019374,0.002181691420637,0.0360240840613842,-0.0029517235234379,-0.0005037141963839,-0.0001237226097146
0.819953369140625,-0.0037647593609988,0.0085877499375026,0.0411105935454368,-0.0010877770837396,-0.00034951698035,0.0001471208815928
0.829933349609375,-0.010728497426398,-0.0037054303891956,0.0447036496013402,-2.72671459242e-05,0.0001161321997642,-0.0009737953078001
0.83991455078125,-0.0088170377818867,-0.0043476007502526,0.0402110143572092,-0.0011700295144692,0.001842925325036,-0.0017226762138307
0.8498955078125,-0.0073163874279707,0.0026487792094238,0.0385655852377414,0.0003135986626148,-0.000282784923911,0.0023125687148422
0.85987646484375,-0.0085614373193122,4.45332614704e-05,0.0345277080237865,0.0012499660952016,0.0011286903172731,-0.0017953570932149
0.8698564453125,0.0014627477626316,-0.0028245285019744,0.037820319828391,-9.96119342744e-05,-0.0019351812079548,-0.0003489902010187
0.87983740234375,0.0030614333972334,0.0064544551027007,0.0445557655632495,-0.0014032291946932,-0.003789008129388,-0.0022757872939109
0.8898193359375,0.0022966047708876,0.0035148397205397,0.0327355639100074,-0.0001530995359644,0.001752795651555,0.0021337878424674
0.89979931640625,0.0001602503293193,0.0024507358866743,0.031539047601819,-0.0012455282267183,-0.0006033023819327,0.0008964831358753
0.9097802734375,-0.005366312806122,0.0011982881401665,0.0300450096517801,0.0004200942348688,-0.0012378385290503,-3.44436557497e-05
0.919761474609375,0.0076361574342474,0.0040236568923573,0.0361801514059305,-0.0004635426448658,0.0008519440889358,-0.001820093137212
0.9297412109375,0.006488868828956,0.0024906477719545,0.043512393990159,0.0023359267506748,0.0006556482985615,0.0009732926264405
0.93972216796875,-0.0050215727553702,0.00810477045984,0.0462082089453935,-0.0007064683595672,-0.0006967047229409,-0.0007218093960545
0.949703369140625,0.0056071175583638,0.0088920209805481,0.0372293681979179,0.0003639542264863,1.33272260427e-05,0.0002135125687345
0.959683349609375,0.0156655702360905,-0.0004217964754905,0.0360305138021707,0.0003493068506941,0.0015430469065904,-0.0011409712024033
0.969664306640625,0.0007046228717081,-0.0035774292285088,0.0345312151551246,0.0011419431539252,0.0002490663900971,-0.0001824541250243
0.979645263671875,-0.0021129552996717,0.002677448181482,0.0451578231096267,-0.0021883398294448,0.0011542746797204,-0.0001702035806374
0.989625244140625,-0.0042477205723524,-0.0064664652009028,0.0399181688904762,0.0012609012192115,-0.0016411384567618,0.0016149590956047
0.999606201171875,1.51062375865e-05,-0.0027881511474959,0.0424596700668334,-0.0029205279424786,0.0017152428627014,0.0005875115748494
1.009587158203125,-0.001052194200363,0.0014784476552624,0.0387158073633909,-0.0014736254233866,-5.24763017892e-05,0.0003331354237161
1.019568359375,-0.0032750944142229,-0.0033477577916346,0.0402133524447679,0.0011466586729511,-0.0010628793388605,-0.0029838315676897
1.02954833984375,0.008053305134084,-0.0060819593953434,0.049342415317893,-0.0019221822731196,0.0017424980178475,-0.0001170462492154
1.039529296875,-0.0020797288835048,-0.0018407142295502,0.0361696300119161,0.0003561519552022,0.0001794891431927,-0.0004214455839246
1.049510498046875,0.0003983882004395,-0.0025292627492919,0.0204588506609201,0.0022334586828947,-0.0009974241256713,-0.0007925153477117
1.059490234375,-0.0026202655009925,-0.0022929515090771,0.0188145905852317,0.0031879357993602,0.0001472029834985,-0.0019467293750494
1.06947119140625,0.0049676688773557,0.001261699632043,0.0426046314954757,0.0027915490791201,0.0011252872645854,0.0006367783644236
1.0794521484375,-0.0027782508079893,-0.0050609731839969,0.0390098218739032,-0.0003144957008771,0.0004573669284582,-0.000803459144663
1.089432373046875,-0.0030443361319601,-0.0072112648193724,0.0360182388424873,-3.62541759386e-05,-0.0006654756143689,2.68197036348e-05
1.099413330078125,-0.0019798852382227,-0.0051013143275398,0.0382633874207735,-0.0001736732665449,0.0014938153326511,0.0006979362806305
1.109394287109375,0.0022899375680834,0.0025698596211615,0.0354132586866617,0.0007015923038125,0.0025258315727114,0.0017167534679174
1.119375244140625,-0.0008620419231243,-0.0008596855692565,0.0422965884596109,-0.0014401219086721,0.0005905125290155,-0.0017104684375226
1.12935546875,-0.0082313833810389,0.0026062552419491,0.0381084891200065,-0.0018520414596423,0.000175854191184,-0.0007293959497474
1.139336181640625,0.0016031243477016,-0.0034311252261511,0.038407764327526,0.0010167156578972,0.0002110078930854,-0.0002361785154789
1.149317138671875,0.0034624154135584,-0.0051179458019323,0.0485831213831901,-0.0007620797841809,0.0014241719618439,0.0001535625196993
1.159297607421875,0.0047419338300824,0.0049211445881985,0.041997897773981,-0.0012361224507912,0.0007605124264955,-0.002356732962653
1.169278564453125,-0.0024747560830786,-0.0013189279783051,0.0316717340707778,0.00043712684419,-0.0003073159605264,-0.0016633832128718
1.17925927734375,0.007156374560669,0.0048257122565526,0.0410965650200843,-0.0029352339915931,0.0023041795939207,-0.0003198185004293
1.1892392578125,-0.0082977631481364,0.003477868711017,0.0337631533920764,-0.0006524043856188,0.000219720415771,-0.000299912149785
1.199220458984375,-0.0071981130768544,-0.0035562859757803,0.0406494057744741,-0.0028050374239683,0.0006807129830121,0.0003000980359502
1.209201416015625,-0.0008339848724193,-0.0030186993672046,0.0484299766480922,0.0005281956400722,0.0013681575655937,0.0007652883650735
1.219181396484375,-0.0069828446246683,-0.0047359424807131,0.0340647666871547,-0.0015924794133752,-0.0004571722820401,-0.0006509807426482
1.22916259765625,-0.0039399149985052,-0.0019010752478148,0.0373532868385314,0.0011600819416344,0.0017487164586782,-0.0009730458259582
1.239143310546875,-0.0003911547420546,-0.0007796791356056,0.0431891533851623,-0.0014088031603023,0.0004714643582701,-0.0016566793201491
1.249124267578125,-0.0023900186753831,-0.0055233208655845,0.030315643286705,-0.0006779145332984,0.0016004769131541,0.0002329316921532
1.259104248046875,0.0132259585316292,-0.0005624653215054,0.030462942802906,-0.0006819093250669,0.0011701099574565,-0.0014352723956108
1.26908544921875,0.0021679551562294,0.0008268610118888,0.0404904158204793,-0.0002840581582859,-0.0003233645111322,0.0003835165407508
1.27906640625,0.0013558898546732,0.0026299283784814,0.0374994173109531,-0.0003892530221492,0.0008092783391475,0.0020890049636363
1.28904638671875,0.0064116388742811,0.0006323430867865,0.0437836121469736,-0.0009478261927142,-0.0016743103042244,-0.0012104705674573
1.29902734375,-0.0002884980851784,0.00869809671049,0.0355576355934143,-0.0003203854430466,-0.001089746132493,-0.001716471160762
1.30900830078125,0.0004637085216119,0.0037073574848007,0.0366091904729604,-0.0003825090243481,-0.0002663508057594,-0.0005936760571785
1.31898828125,-0.0019177432548254,-0.0015776976455003,0.0369090502023696,-0.0011058235540986,0.0021145148202776,0.0019728124607354
1.328969482421875,0.0045398536530323,-0.0074187609570566,0.0328664968132972,0.0010219224495813,-0.0005392618477344,0.0012330644531175
1.338950439453125,0.0109860523840412,-0.0037667960544582,0.0496188941717147,0.0016333843814209,0.0008162874728441,-0.00126737751998
1.348930419921875,0.0001437741185538,-0.0030970435667317,0.0446802687257528,-0.0005925182485952,0.0009669167920947,-0.0011459499364718
1.3589111328125,-0.0001783157089725,0.0018758403418585,0.0466214659214019,-0.0003664158284664,0.0008944785222411,-0.0002639110316522
1.368892333984375,0.0008081563114188,-0.0025157456805929,0.0345002354949712,-0.0023695072159171,8.45231115818e-05,0.0011572613148018
1.378873291015625,0.0025742344021797,-0.006556627702387,0.038092707028985,-0.0024142481852322,0.000753509812057,-0.0007008261745795
1.388853271484375,0.0013325637780129,0.0001982899179216,0.0307592954009771,0.0013598073273897,0.0015462012961506,-0.0008121458813548
1.39883447265625,0.0013416238673031,-0.0001908463969826,0.0359925198793411,-0.0022274705115705,0.0019845580682158,0.0010387510992586
1.4088154296875,-0.0063716173911467,0.0036335433299187,0.0412292514890432,-0.0038192071951925,-0.0018295459449291,-0.0001684005837887
1.418795166015625,-0.0020377346389926,-0.0058407710506115,0.0344990664511919,0.0010370671516284,-0.0001208614557981,0.0003296105423942
1.428776123046875,-0.00038507206114,5.61871666461e-05,0.0422843134999275,0.0017479961970821,0.0007509943097829,0.0002838647342287
1.43875732421875,0.0032461423143744,-0.0037855464207008,0.0419856228142976,0.00146889698226,-0.001515888608992,0.0008386012632399
1.4487373046875,0.005313979830686,0.0007729206012561,0.0439291580975055,0.0012954962439835,0.0002156579867005,0.0002679315803106
1.45871826171875,-0.0123847949997521,-0.0010738215102814,0.0347995107024908,0.0019034959841519,0.0010164696723222,0.0014887247234582
1.468699462890625,-0.0038055114964954,-0.0052386952379252,0.0472170937269926,5.26056392118e-05,-0.0009290482848882,0.0005174850230105
1.47867919921875,0.0026414544194936,0.0056970608641393,0.0371913742750883,-0.0038257557898759,4.59346920251e-05,0.0022208429872989
1.48866015625,-0.0005879924884065,-0.0005348192627541,0.0306131649285554,-0.0018693504389375,-0.0002054842188954,-2.6021007215e-06
1.49864111328125,0.0028715368483215,0.0022224526892881,0.0370469973683357,0.0018209917470812,0.0010065203532576,-0.0033392766490578
1.508622314453125,0.0041493016991764,0.0036839309434406,0.0345008200168609,-0.000666823645588,0.0019689025357365,0.0004565079871099
1.518602294921875,0.0094847444429993,-0.0002642586930654,0.0339016850799322,-0.0013675013324245,-7.3742121458e-05,-0.0008489735191687
1.528583251953125,0.0016649740701541,-0.0022009715098422,0.0511059178590774,0.0012488573556765,0.0021783327683806,0.0010137616191059
1.538564453125,0.0031026056578382,0.0007256565265823,0.044519525206089,0.0017524609575048,0.000306929461658,0.0010603670962154
1.548544189453125,-0.0059124023815616,0.0091132625157944,0.033144729232788,0.0033943543676286,0.0020904727280139,0.0003464580222498
1.558525146484375,-0.0098063958791084,-0.0007788297522347,0.0424205071002244,-0.001088544842787,0.0019961968064308,-3.09118913719e-05
1.56850634765625,0.0026303119709715,-0.0027003267335705,0.0335907194346189,-0.0018756058998405,-0.0014830399304628,0.0004549208097159
1.578486572265625,-0.0003180712395347,-0.0033975152174942,0.0376297656923532,0.0023367160465568,0.000720459036529,0.0014759767800569
1.588467529296875,-0.0032630203839391,-0.0005946505580563,0.0431628499001264,0.0014066330622881,0.0006406223401427,-0.0010313792154192
1.5984482421875,-0.0028747151860967,0.0164028989341575,0.0377735580772161,-0.0007526580011472,-0.0009863032028079,0.0009809053735807
1.608428466796875,-0.0064218314747326,-0.0019502572849392,0.0355278249770402,-0.002716573420912,-0.0004093730822205,-0.0005828255088999
1.618409423828125,-0.0100819248848594,-0.0038388109778985,0.0272971722483634,-0.0005080138798803,0.0009893188253045,0.0011218639556318
1.628390380859375,-0.0051993039424531,-0.0081553407364524,0.0358271001845598,-0.0016850404208526,0.00118247885257,0.0009502851171419
1.638371337890625,-0.0095149021192453,0.0012048822777345,0.0232569569468498,-8.58121784403e-05,0.0001907171681523,-6.0560414567e-06
1.6483515625,-0.0052792921097949,9.45829482749e-05,0.0471972199827432,0.000130443717353,0.0012547904625535,-0.0006842609727755
1.65833251953125,0.0015580978958867,0.003868265401246,0.0334293913930654,0.0007885107770562,-0.0015995847061276,-0.00057427235879
1.668313232421875,0.0059839697804301,0.0003674816055223,0.0310328516453504,-0.0003973442944698,-0.000253421254456,0.0023150921333581
1.67829345703125,-0.0090751224624924,0.0003984064667485,0.0448036028444766,0.0006314348429441,-0.0006726030260324,0.00206741807051
1.6882744140625,0.0021915369612164,-0.0037200434364378,0.0374731138259172,-0.0010000630281865,0.0006465511396527,0.0026604365557432
1.69825537109375,-0.0081879278318025,0.0025663524898234,0.0304407309710979,0.0006436400581151,0.0011432310566306,-0.0003878175048157
1.7082353515625,-0.0028196605306118,-0.0015490743392147,0.0394207407623529,0.0019365828484296,0.0003562318161129,-0.0001870770356617
1.718216552734375,-0.0047241972439922,-0.0017320388238411,0.0253548060089349,-0.0003183156368322,0.0007967185229063,0.0001644602161832
1.728197265625,-0.0009566431377083,-0.0018502401097211,0.0307417597442865,0.0011605435283854,-0.0005074106156826,0.0006818412221036
1.73817724609375,-0.0022588848426938,0.001369854447944,0.0436105936676263,0.0002529383637011,-0.000730050727725,0.0017718730960041
1.748158447265625,0.0002449512043967,0.0057038102653343,0.0259527719020843,0.0001145615242421,0.001101572997868,-0.0014795152237638
1.758139404296875,0.0003272409266792,0.0092774857673328,0.0398708226174116,-0.0004755950067192,-0.0007517207413911,-0.0011024116538465
1.768120361328125,-0.0024170528127811,-0.0059824536767788,0.0320867446124553,0.0010650771437212,-0.0002836249768733,-0.0007244452135637
1.778100341796875,-0.0027176979934796,-0.0015305523018352,0.0392681805491447,0.0010605497518554,0.000404535792768,-0.0005516060627996
1.788081298828125,-0.0096255959521047,0.0027418551872018,0.0482452677309513,0.0016876668669283,-0.0019867168739438,-0.0001533615723019
1.798062255859375,-0.0038744850794784,0.0033160748785827,0.0427086763918399,0.0005457033403217,0.0018815239891409,0.0024432204663753
1.808042236328125,-0.003454305172339,0.0003495806226506,0.0326788652867078,0.0014076076913625,0.000938281416893,-0.0004521506489254
1.8180234375,-0.0086170399640686,-0.0036817937852814,0.0398632238328456,0.0011234483681619,0.0012322943657636,-0.0014859897783026
1.82800439453125,0.0057986398087814,-0.0045861678796354,0.0418061745941638,1.04210339486e-05,0.0013441545888781,0.00047674155212
1.837984375,0.0008839797602966,2.96005538199e-05,0.0492903928697109,-0.0022050626575946,-0.00056719686836,-0.0007973146857693
1.84796533203125,-0.011146430577524,0.0001736212675459,0.0364238970339298,0.0007693391526117,-0.0020514512434601,0.0001466454705223
1.8579462890625,-0.0113470311835408,0.0032754871398676,0.0364262351214885,-0.0018373628845438,0.001641821116209,0.0020057982765138
1.86792724609375,-0.002521682231035,0.0051158725758548,0.0446539652407169,0.0001051315339282,0.0010219160467386,-0.0021499299909919
1.8779072265625,-0.0040165969639085,0.0004769607288297,0.0388169296503067,-0.0002320246421732,0.0009622611105442,-0.0009975802386179
1.887887451171875,-0.0013175123393535,-0.0014088530177716,0.0241530290037393,-0.0007125186966732,-5.52916899323e-05,-0.0015334115596488
1.897868408203125,-0.002422203911934,0.0014160408103838,0.0341764103680849,-0.0020156032405793,0.0007156934589147,-0.0001112835743697
1.907848388671875,-0.0036696832223795,-0.0051954497512429,0.0440466469973325,-0.0002520882990211,-0.0006222175434231,-9.45398496696e-05
1.9178291015625,0.0036604404699988,0.0009468706623651,0.0272872353762388,-0.0011213440448045,-0.0007662940770387,0.0005193187389522
1.927810302734375,-0.0034368425808846,0.0037402003084775,0.0424029714435338,-1.5448313206e-06,0.0009191241115331,-0.0008609471260569
1.93779052734375,-0.0029408940237946,0.0032403244949411,0.0500344892352819,0.0008959405822679,-8.27573239803e-05,0.0007324221660383
1.947771484375,-0.0043320378549396,0.0054936015807557,0.0415039767771959,0.0018965087365359,0.00071332603693,-0.0009330680477432
1.95775244140625,-0.0051275721468031,0.0033751481220591,0.0344686713129282,0.0010296499822288,0.0001055924221873,0.0004850652185268
1.967732421875,-0.0047763658226467,-0.0075415014207363,0.0343184491872787,0.0004557314096018,0.0006337538361549,-0.0010905063245445
1.97771337890625,0.0006212006382644,0.0025714761895127,0.0480862777769565,-0.0007442890200763,-0.0017527053132653,-0.0022985162213444
1.9876943359375,-0.0032948037616908,0.0029531233177054,0.0450970328330993,0.002016182988882,0.0006178012117743,0.0008777760085649
1.99767529296875,-0.0020867796787992,-0.0045203087023459,0.0377647902488708,0.0014790233690291,-0.0003790203481912,-0.0003973455168306
2.007655517578125,-0.0031380057647824,-0.0017185308882966,0.0347720381736755,-0.001625703764148,-0.0001897905021905,0.0013165503041818
2.01763623046875,-0.004423990454711,0.0089729681291151,0.0427022466510534,0.0004283923190087,-0.0001783389598131,-1.23669888125e-05
2.027617431640625,0.0017863902264274,0.0058090972707141,0.038514147311449,-0.0023079286329448,-1.77891924977e-05,-0.000509934965521
2.037597412109375,-0.0018438560347072,0.0028007914333604,0.040009938827157,-0.0012288157595321,0.0001225592568516,4.45352052338e-05
2.047578369140625,-0.0006811141319572,-0.0021330665059387,0.0431546665936708,0.0001172244083136,-0.0018375292420387,0.000155089481268
2.057559326171875,0.0011175510541535,-0.0029026169731747,0.0477934323102235,-0.0026508653536438,-0.0005597444251179,0.0015455258544534
2.06753955078125,-0.0011157061569392,-0.0006302515944,0.0367190805882215,0.0007559562800452,0.0003026146441698,-0.0007516516488976
2.077520263671875,0.0048384164744988,-0.0024190347073134,0.0305845233559608,0.0022601096425205,-0.0001594442874193,0.0020747613161802
2.087501220703125,-0.003413059846498,-0.0046074298633728,0.0386637849152088,-0.00275549152866,0.0009459378197789,-2.82861728919e-05
2.097482421875,1.9782412704e-05,-0.0016632935697212,0.0349234293431043,0.0019175574416294,-0.0002138689160346,-0.0020861106459051
2.10746240234375,-0.0001114610178396,-0.001589735143166,0.0407587113678455,-0.0002223308547399,-8.0270692706e-06,-0.0004588094307109
2.117443359375,0.0003122077543288,-0.0027232418182771,0.0302829100608825,0.0015673134475946,-0.0005806069821119,-0.0006673348834738
2.127424560546875,0.000324391382467,0.0011264924124348,0.031628479450941,0.0019357615383341,0.0012508826330304,-0.0005244743078947
2.137404296875,-0.0031511209746822,0.0026502222478389,0.0377612831175327,0.0012899449793621,-0.0015704706311225,0.002199406735599
2.14738525390625,0.0083750113691203,-0.0018917411638889,0.041205286091566,0.0007327371276915,0.0005125496536493,-0.0002246982767246
2.1573662109375,-0.0020695728156715,-0.0020713994465768,0.0421007736265659,-0.0006121592014096,0.0018571801483631,-0.0012510805390775
2.167346435546875,-0.0033018362906761,-0.0039181506912689,0.0458382065892219,-0.0017593246884644,0.0018662195652723,-0.0001194086071336
2.177327392578125,-0.0088560180854052,-0.0080112195580266,0.0413525856077671,0.0002265945076942,-0.0004691062495112,-0.0008789421990513
2.187308349609375,-0.0002078523307107,0.0014650767170358,0.0410538949221372,-0.0017373377922922,0.0009352155029773,0.0014111497439444
2.1972880859375,0.0002427409810014,-0.0012715543057769,0.0379085826337337,0.0011548550100997,0.0004427973181009,0.0009323133272118
2.207269287109375,-0.0013801475130952,-0.0036394342145882,0.042846623557806,0.0022328523918986,0.0004052612930536,0.0005172716919332
2.217250244140625,-0.0014187990230508,0.0023974895957857,0.0331190102696418,0.0035945270210504,0.0006444128230214,0.0004147400031797
2.227231201171875,-0.0015851320332847,-0.0019667791614774,0.0380588047593832,0.000400195014663,-0.0013933572918176,-0.0004339092120062
2.23721142578125,-0.0050546530410647,0.0061130577865056,0.0435930580109357,0.0023677384015172,-0.0009922850877046,0.0029565612785518
2.2471923828125,0.0034724801498465,0.0032944110360462,0.0362637380361557,0.0005535038653761,0.0002434812486171,0.0010684172157198
2.25717333984375,-0.0029558175982907,0.0063069820565637,0.0434445894509553,0.002350604860112,0.0016741314902901,-0.002549753524363
2.267153076171875,-0.0045408948326483,0.0027108572607394,0.033417116433382,-0.0009968762751668,0.0004657069221138,0.00023601250723
2.27713427734375,-0.0003803410870954,-0.0084528258456848,0.0301239201068878,5.58713218197e-05,-0.001145239919424,0.0001438671315554
2.287115234375,-0.0018911475088447,0.000450556779094,0.0432920292377471,-0.0024065801408141,-5.5115669965e-06,0.0003807981556747
2.29709521484375,-0.0030589491792023,-0.0025889296478126,0.038504794961214,-0.0012563607888296,-0.002223658375442,0.0003051644016522
2.307076416015625,-0.0066464522771537,-0.0013283625269308,0.0423947881370782,0.0006494713015854,0.0017114076763391,9.6075964393e-05
2.317057373046875,0.0080538348570466,-0.009902951588761,0.0471849450230598,-0.0013641447294503,-0.0015989011153578,0.0003165857051499
2.3270380859375,-0.004992364927195,-0.0007249989394564,0.0373088631749153,0.0001134116901084,0.0015827482566237,0.0001791350077837
2.33701806640625,0.0043691184623166,0.0037101065643131,0.0262380185842514,-0.0007473219884559,-0.000440988689661,-7.06695063854e-05
2.346999267578125,0.0060681043999269,0.0032949955579359,0.043297874456644,0.0033151048701256,-4.90751117467e-05,0.0011472224723547
2.356980224609375,-0.0054531143067404,0.0051921070166863,0.046888007903099,-0.0010764476610347,0.0017075464129447,-0.0006408238550648
2.36696044921875,-0.0038193208261393,0.01095531931906,0.0474836357086896,0.0019395587733015,0.0011878563091158,-0.0022896968293935
2.37694140625,0.0031393209390342,-0.0057648197375703,0.042093174842,0.0010982662206515,0.0017460547387599,0.0001564166741445
2.386922119140625,-0.0058637226679362,-0.005829884330416,0.0370043272703886,0.0023157270625233,0.0011984249576926,-0.0021240671630948
2.39690234375,9.20256650075e-05,-0.001455432105856,0.033564415949583,-0.000807894335594,-0.0023542316630482,-0.0003762347041629
2.40688330078125,-0.000583992166724,0.0118915315900929,0.0305734174400568,-0.000528709613718,0.0016251094639301,0.0006720523815602
2.4168642578125,-0.0106691867209039,0.0066972326163202,0.0388064082562923,-0.0024762791581451,-0.0016694869846105,-0.0005729754338972
2.426844482421875,-0.0014246807745657,-0.0034779691757168,0.0344675022691488,0.0003067015204578,-0.0012751463800668,-9.379992116e-05
2.436825439453125,-0.0003255969588644,0.0014409925885498,0.0446446128904819,0.0005312060238793,-0.0002663405612111,-0.0015119331656023
2.446806640625,-0.0071900393682532,0.0014446458503603,0.0368605348855257,0.0010742903687059,0.001886130310595,0.0021023340523242
2.456787109375,-0.0075427617960609,0.0014768402200657,0.0437421110928058,0.0003861294826492,-0.0003794208168983,-0.0005038355011492
2.466767333984375,-0.0078720668156631,-0.0001367141901049,0.0432920292377471,-0.0009222778608091,0.0025251964107155,0.0011333491420373
2.47674853515625,-0.0044460561560466,-0.0041541605373844,0.0434381597101688,0.0029867100529372,0.0005571199581027,-0.0008275362197309
2.4867294921875,-0.0017109686363488,-0.0009165942551102,0.0364016852021217,0.0018895138055086,0.0030735852196812,-0.0006227442645467
2.49670947265625,-0.0063941397502087,7.35492934007e-05,0.0289198050141334,0.0022543668746948,-0.0001427140086889,0.001310178078711
2.506690185546875,-0.0041130613420158,0.0005168360814917,0.03146247523427,0.0023376927711069,-0.0011843843385577,0.0005692312261089
2.51667138671875,-0.0068201100773178,0.0054196960943285,0.046574704170227,0.0001845270162448,-0.0010469648987054,-0.0001937644556164
2.5266513671875,-0.0017613288504071,0.0024854601401835,0.0313104995429515,0.0003445465117692,0.0004515526816248,0.0013162464601919
2.53663232421875,-0.0014595328922383,-0.0018100176971871,0.0332552038699388,0.0010263157309964,-0.0006019938737154,-0.0008928456809371
2.546613525390625,-0.0050224312718957,-0.0013690050645731,0.0431289476305246,-0.0016403351910412,0.0018027620390057,-0.0005663015181198
2.556594482421875,-0.0024925109354779,0.0025452731691766,0.027715689921379,1.37541210278e-05,0.0007313722744584,-0.0002951917704194
2.56657421875,-0.0031492578111588,0.0012037497665733,0.0353460386693477,0.0002817474305629,0.0022629210725426,-0.0014202606398612
2.57655517578125,0.002847443586681,0.0035433351626619,0.0434270537942647,0.0010884189978241,0.0015832828357815,-0.001620264025405
2.586536376953125,-0.0009999890890903,-0.0040817894209176,0.0322018954247236,0.0014113006182014,0.001038247719407,-0.0016101713990792
2.596516357421875,0.0017300569293089,0.0001222381401807,0.0408814609646797,-3.74590745195e-05,-0.000526625663042,0.0001195516379084
2.606497314453125,-1.47957103326e-05,0.0088843947965186,0.0392372008889913,-0.0006881186272948,0.0002907617017626,1.60386553034e-05
2.616478515625,-0.0043609534221701,-0.0022776534752454,0.0362450333356857,0.0011057866504415,0.0003695916384458,0.002124729566276
2.626458251953125,-0.0079730795047245,-0.0022513865228276,0.0416331561148166,-0.0042730090208351,-0.0002808682620525,0.001758211525157
2.636439208984375,-0.0039299963926896,-0.0025870025522075,0.0350514396369457,0.0003257375210523,-0.0008603716269135,0.0009787043090909
2.64642041015625,0.0012618548956699,-0.0039380975007545,0.0396919589191675,0.0002652161056175,-0.0002134377136826,-0.0014009991427883
2.6564013671875,0.0011209303213283,-0.0039549664371646,0.040440731459856,-0.0021731741726398,0.0011884495615959,0.0005907790036872
2.66638134765625,-0.0083607453817501,0.0041460411630105,0.0341559521019458,-0.0016338792629539,-0.0004410957917571,0.0005863747792318
2.6763623046875,-0.0106692597861401,0.0036255335533991,0.035949849781394,0.0012950652744621,0.0001796875149011,-0.002706091152504
2.686343505859375,0.0040201223615556,-0.0078204644925892,0.0414876101642847,-0.0018132757395505,-3.95756214857e-05,-0.0011453389888629
2.6963232421875,-0.0083167966421693,0.0002029660930391,0.0396907898753881,0.000417121569626,0.0028781834989786,0.0015668242704123
2.70630419921875,0.0037133762336336,0.0035860143937636,0.0405862774103879,0.0013420538743957,0.0020184917375445,-0.0011462691472843
2.716285400390625,-0.0054491139850579,-0.0031670309298671,0.0398357513040304,-6.3044717535e-06,-0.0016164574772119,0.0008343236986547
2.726265380859375,-0.0111111948673613,-0.0048671585117932,0.0458224244982004,-0.0004643559805117,0.0006579058244824,0.0007970224251039
2.736246337890625,-0.0008554660518653,0.0030650318601168,0.0331014746129512,0.0002110216300934,0.0016781622543931,0.0017411130247637
2.746227294921875,-0.0064407188382931,-0.0033227512145414,0.0326525618016719,-0.0005220592138357,-0.0005083139985799,0.0013640908291563
2.756207275390625,-0.0104187738901004,-7.96867732424e-05,0.049265842950344,0.0020220584701746,-0.0006164386868476,0.0001299820723943
2.766188232421875,-0.0041728469715453,0.001545366278477,0.0422322910517454,-0.0028040495235472,0.0023545026779174,-0.0005741863278672
2.776169189453125,-0.0049670112902298,-0.001351286744792,0.0307096110403537,-0.0006024141912348,0.002131862565875,-0.0001347647194052
2.786150390625,0.0033227329482324,-0.0021155673818662,0.0289139597952365,-0.0018955981358885,0.0008660051971673,-0.001282291021198
2.79613037109375,-0.0029229747746139,0.0035610717487521,0.0344517201781272,0.0009659684728831,-0.0009734407067298,0.0015712861204519
2.806111328125,-0.0099869218114763,0.0055809602038003,0.0359463426500558,0.0005758011247962,0.0004418278113007,-0.0004280321300029
2.816092041015625,-0.0116286794028244,0.008048601559503,0.0377431629389524,3.1184637919e-05,-0.0014602020382881,-0.0007241755956783
2.826072265625,-0.0083408533711917,-0.0037670426496304,0.039237785410881,0.0002447706647217,-0.0018930472433567,-0.0029754140414297
2.83605322265625,-0.001481251533702,-0.0008391177052631,0.0467231727302074,-0.0023619313724339,-0.0003489460796117,0.0008944254368543
2.8460341796875,0.0007701258559711,0.0078545128926634,0.0461257913589477,0.0015224644448608,0.0016158325597643,-0.0004500829090829
2.856014404296875,-0.003327116862405,-0.0013398063695523,0.0398392584353685,-0.0002703755162656,0.0012517785653471,-0.0010849805548787
2.865995361328125,0.0009679134503938,-0.0055445737161673,0.0402870022028684,-5.35801518708e-05,-8.29929485917e-05,0.0040939357131719
2.87597607421875,-0.0060467876172624,-0.006141260967683,0.0434317299693822,-0.0010986045235767,-3.85176390409e-05,0.0022323860321193
2.8859580078125,-0.0033896059056743,0.003225382654136,0.0325081848949193,-0.0006539112655445,0.0015087453648447,0.0006431598449125
2.895937744140625,0.0002556552615016,-0.0039198677243199,0.0328045374929904,0.001298718387261,0.0009646620601415,5.32696285517e-05
2.9059189453125,-0.0035236440815031,-0.0037608686371706,0.0468728103339672,-0.0007731040241196,-0.0023513855412602,0.0009465984767302
2.91589990234375,-0.0028267478585243,0.0031772417966276,0.0358031347870826,-0.0016245166771113,-0.0007321834564208,-0.0014782096259295
2.9258798828125,-0.004388663413003,-0.00417671029591,0.0277262113153934,-0.0011530397459864,-0.001819216646254,-0.0015360277611762
2.935861083984375,0.0069863700223155,0.0011075593831017,0.0338607685476541,-0.0010816670255735,0.0002442002296447,0.002533282386139
2.945842041015625,-0.0039170273132622,-0.0031018110733944,0.0453852021247148,-0.0007680236012674,-0.0004443535581231,0.0017499240348115
2.955822021484375,-0.0142884366639889,0.0054702755040954,0.0343102658808231,0.0007590329041704,0.0007335627451539,0.0011744148796424
2.965802978515625,-8.4920070786e-05,0.0037557175380177,0.0379021528929472,-0.0009167247917503,-0.0004536397755146,-0.0012693405151367
2.975783935546875,-0.0121685766994953,-0.0009514372396282,0.0353600671947002,0.0013914370210841,0.0002816589549183,0.0005410762969404
2.985764892578125,-0.0006183693603612,0.0006389737569727,0.0347626858234405,-0.0006393558578565,1.8486753106e-06,0.0007083914824761
2.9957451171875,0.0003541471999138,-0.003314814503258,0.0301227510631084,-0.0011453564511612,0.0008199717849493,0.002390976762399
3.005725830078125,0.0029302995645441,-0.00686904551927,0.0425450102627277,-0.0016115119215101,-0.001649310812354,-0.0010366910137236
3.015706787109375,0.0004724946162663,-0.0030441443357151,0.0284814135968685,0.0002183461328968,-0.000618933700025,-0.0007480042986571
3.02568701171875,0.0014083689605817,0.0021734259157907,0.0361088397353887,0.0022034323774278,0.0010947193950414,0.0001292707165703
3.035668212890625,-0.0032030520913191,0.0038193482256028,0.0377554378986358,0.0020745350047945,0.0007343934848904,0.001961525529623
3.04564892578125,-0.0114227267682552,-0.0027019159024581,0.0425467638283968,0.0007033721776679,-0.0026072673499584,0.0010462604695931
3.055629150390625,-0.0066785279158502,-0.0011807068177033,0.0286328047662973,-0.0005922557320445,0.0009025121107697,0.0010798163712024
3.06560986328125,-0.0032438590257428,-0.003764832426235,0.0385088866144418,-0.0014128544135019,-0.0020165499299764,-0.0015399565454572
3.075591064453125,-0.006004354981333,-0.0046683206046,0.0394084658026695,0.0013112929882481,-0.0009339749813079,0.0011892509646713
3.085571044921875,-0.0076577664778567,-0.0043412897404748,0.032225276300311,0.0009372164495289,0.0009953891858458,-0.0002787141711451
3.095552001953125,-0.0009752930392511,0.0004726042141206,0.0374596698224544,0.0012272347230464,0.0012457268312573,0.0014294373104348
3.105533203125,0.0082599336220882,-0.0008581237998325,0.0358124871373176,0.0006163456710055,-0.0015003820881247,0.0004818217130377
3.11551416015625,-0.0014061039382591,-0.0043529801782686,0.0440448934316635,-0.0006811463972553,0.0001342659816145,0.001460533356294
3.125493896484375,-0.0001731098108924,-0.0028585038368124,0.0474871428400278,0.0006707903230562,-0.0003627706319093,0.0012638147454708
3.135474853515625,0.0055239875858649,0.0031659714839421,0.0317751944452524,0.0008090082556009,0.0020242203027009,0.0006611414137296
3.1454560546875,0.0031363800632767,-0.0016548454017844,0.0367103127598762,-0.0014128290349617,0.0011077439412474,-0.0001365811622235
3.15543603515625,0.0057070890678092,-0.0068031224098987,0.0423959571808576,0.0008764242520555,-0.0026278719305992,-0.0006063627661205
3.1654169921875,0.0001514459683559,-0.0023231822505593,0.0452419942617416,-0.0008477673400193,0.0008768271654844,0.0003885076730512
3.175398193359375,-0.0035720132678747,0.0009079086251556,0.0374620079100131,0.0002427971921861,-5.18169254064e-05,-0.0004908681148663
3.1853779296875,-0.0103837391093373,0.0020994382309727,0.0395551807969808,0.0010611629113554,-0.0005531664937734,-0.0001464761589886
3.19535888671875,-0.0155068542767316,0.0009762520204763,0.0328232421934604,0.0003125483635812,-0.0015523852780461,-0.0003105268697254
3.205340087890625,-0.0032164412958547,-0.0022190916884224,0.0317798706203699,0.0002599620493128,-0.0017650695517659,-7.88997713243e-05
3.215320068359375,0.0017327420767396,0.0102542401113081,0.0241465992629528,-0.0025139865465462,0.0030920039862394,0.0002864859416149
3.225301025390625,-0.0008130334159359,-0.0014192282813135,0.0428495461672544,-5.59574691578e-05,0.0006185360252857,0.0013358076103031
3.235281982421875,0.0011529328947886,-0.0022822839845903,0.0368628729730844,0.00204394524917,-0.0013213101774454,-0.0023401535581797
3.24526318359375,0.006347469330579,0.001629071639711,0.0455406849473714,-0.0024977780412882,3.85632738471e-05,0.0011259979801252
3.255242919921875,0.0044918680591508,0.0001642597841564,0.0401566538214683,-0.0005752420402131,-0.0018666619434952,-0.0010745720937848
3.265223876953125,-0.0106669947638176,0.005006941441819,0.03148117993474,-0.0005269974935799,0.0020446684211492,-0.0002431092580081
3.275205078125,-0.0042089959971606,-0.007120161602972,0.0380658190220594,-0.0002084834268316,0.0022361502051353,-0.0018966660136356
3.28518505859375,0.0035548794699832,-0.0068792746523395,0.0341752413243055,0.0004539176588878,0.0004605818539857,-0.0002477900998201
3.295166015625,-0.0004506481106393,0.0001218910803087,0.039110944160819,-0.0011341252829879,0.0025860508903861,-0.0027967016212642
3.30514697265625,0.0028218342213891,0.0007192267857957,0.0332750776141881,0.0007156318752095,-0.0011374214664101,7.10449821781e-05
3.315126953125,-0.0032368082304485,0.0016272176093421,0.0389595529913902,-0.000393042108044,-0.0002511208876967,-0.0009851646609604
3.32510791015625,-0.011445176062081,-0.0022904307584278,0.0358130716592073,-0.0005079078837297,0.0002449881285429,-0.0013850729446858
3.3350888671875,-0.0048316396738402,-0.0066128148690331,0.0400064316958189,-0.0038323318585753,-0.000675399787724,-5.34924329258e-05
3.345070068359375,-0.0039806306013837,-0.0040073816109914,0.0397089100539684,0.0004239692352712,0.0020344294607639,-0.0002797460474539
3.355050048828125,0.0034876229200512,-0.0030649770611897,0.0391091905951499,-0.0008381028310395,3.01338732242e-05,0.0024041878059506
3.365031005859375,-0.0059555839361622,-0.0072448108959477,0.0407563732802867,-2.87913717329e-05,0.00106917694211,-0.0016802520258352
3.37501171875,-0.0077640763965435,0.001348875591997,0.0323760829478502,0.0005536419339478,-0.0015159538015723,0.002690794179216
3.384991943359375,-0.001916903004609,-0.0011786518579348,0.0380605583250522,-0.0006465994520112,-0.001930876635015,0.0004027876420877
3.394972900390625,-0.0046280433931387,-0.0013678999528754,0.0413560927391052,0.0019909953698515,0.0003554476425051,-0.000819603272248
3.404953857421875,-0.0023891418925486,0.0030706030843779,0.0340226811110973,-0.0007238392718136,0.0017317989841103,-0.0001637298846617
3.41493408203125,-0.0033528540918603,-0.0006552947041112,0.0353711731106042,0.0022373294923454,0.0005826447159051,0.0013505435781553
3.4249150390625,-0.0047426462161354,-0.0043551812685094,0.0304267024457454,-0.0007672737701795,0.0012022806331515,0.0010371133685112
3.434895751953125,-0.0050771206011995,0.0019925620567053,0.024739304459095,-0.0003251890302635,-0.0007839053869247,-0.0015943560283631
3.4448759765625,-0.0017930939618498,-0.0019378087953198,0.0388052392125129,-0.00101604743395,0.001869942061603,-0.002143386285752
3.45485693359375,-0.0044708983363583,0.003630511122616,0.0304226107925176,0.0003112721024081,0.0017479695379734,0.0010140574304386
3.464837890625,0.0034736309273168,0.0058759245623834,0.0349088162958622,-0.0002693571150302,0.0010604886338114,-0.0011944175930693
3.47481884765625,0.00678728551995,0.0045141072904225,0.0459790763646364,0.0012622269568964,-0.0006154384464025,-0.0015917612472549
3.48479931640625,-0.0091426530070602,-0.0021211112066637,0.0375970324665307,0.0008673651609569,0.0017208661884069,-0.0013840370811522
3.4947802734375,-0.004070153782051,-0.0013443364141974,0.0384942735671997,0.0011584486346691,0.0001147137954831,0.0011654070112854
3.5047607421875,-0.0005645568138919,-0.0062317248632665,0.0480687421202659,0.0001544386614114,-0.0003330763429403,-0.0007136912317946
3.514740966796875,-0.0063170741923153,-0.0044001894540153,0.040285833159089,0.0005845391424372,0.0002645375207066,0.0023915546480566
3.52472216796875,-0.0105996468823403,0.004858947805874,0.0404284565001726,0.0012316594365984,0.0011711120605468,-0.0010158619843423
3.534703125,-0.0030556064446456,-0.0050901353463996,0.0369856225699186,-0.0020333759021013,0.0010757716372609,0.0006134599098004
3.54468310546875,-0.001449723884277,-0.0106630949068348,0.0301034618407487,-0.0037355949170887,-0.0019688121974468,0.0011660027084872
3.554664306640625,0.0073229632992297,-0.0059599952497985,0.0408802919209003,0.0004506278783082,-0.0025158254429697,0.0020331281702965
3.56464501953125,0.0003493066280148,-0.0056800275309477,0.0383364526569843,-0.0007622103439643,-2.70185992121e-05,0.0004818781744688
3.574625,-0.0023804836620576,-0.0003650065206456,0.0357943669587373,-0.0006061490857973,-0.0030228085815906,0.001909332582727
3.58460595703125,-0.0061560932106338,0.0001832019466441,0.031156770285964,-0.0006215260364115,-0.0001238817349076,0.0004435167356859
3.594587158203125,-0.0041753311895765,0.002594802266173,0.0467196655988693,-0.002465764991939,-0.0011278940364718,0.0005106284515932
3.604568115234375,-0.0031054552020505,0.0032191173101309,0.0356517436176538,0.0006629220442846,0.0012837080284953,0.0006416437099687
3.6145478515625,-0.0029422457306645,0.0024697145817801,0.0356505745738744,0.0005497377132996,-0.0006926236674189,-0.0005053797503933
3.624529052734375,-0.0035596104440279,-0.0011600293558556,0.0422357981830835,0.0016178038204088,-0.001259540207684,0.0010549849830567
3.634510009765625,-0.0077251691582612,-0.0014982118016574,0.0405909535855054,-0.0018373811617493,0.0020699445158243,-0.0005458411760628
3.644489990234375,-0.0066845923304557,0.0016766005758661,0.0401397026866674,-0.0027191867120563,0.0011901184916496,0.0013467615935951
3.654470947265625,-0.0100610099609941,-0.003226597363688,0.0399894805610179,-0.0014105094596743,-0.0005001900717616,9.69399989116e-05
3.6644521484375,-0.0080684661705978,-0.0049115182433277,0.0302665434479713,-0.0012774410424754,-0.0005784044042229,0.0021776189096271
3.674431884765625,-0.0020904146743007,-0.0034451628846582,0.0491191279560327,0.002821163740009,0.00141710229218,-0.001090612495318
3.684412841796875,-0.0001554097574204,0.0046419897201005,0.0289162978827953,-0.0006698531215079,0.0018660956993699,0.0010852548293769
3.69439404296875,-0.0027886808704584,0.0038652697265613,0.0257739082038402,-0.0001390851102769,-0.0029496988281607,-0.0006995957228355
3.704375,0.0023484445559792,-6.61605713889e-05,0.0386456647366285,0.0006267260760068,-0.0014390759170055,-0.0001577580987941
3.71435498046875,0.0118616661747917,-0.0022728129033464,0.0449286905288696,0.0005186017369851,-0.0006049741059541,-0.0017447357531636
3.724336181640625,0.0001056340652517,-0.0018159268481656,0.043736265873909,0.0002492298372089,0.0005099363625049,-0.0012681228108704
3.734317138671875,-0.0041891039866022,-0.0048877355089411,0.0414917018175125,0.0019704308360815,-0.0011215163394808,-0.0009653213783167
3.744296875,-0.0022053645571693,-0.0115340507887769,0.0368558587104082,0.0002099415287375,-0.0027098516002297,0.0009995829313993
3.75427783203125,0.0019273695996962,0.0032646643517538,0.0281774622142314,0.0013678839895874,0.0010662442073225,0.0006310014869086
3.764259033203125,-0.0076057805622927,0.001552846332034,0.0395499200999736,0.0002480862895026,-0.0016637938097119,-0.0015537347644567
3.774239013671875,-0.0038062969477847,0.0052744150052778,0.0449386274009942,0.0013098885538056,-0.0002962602302432,-0.0009127118391916
3.784219970703125,0.0022564188909716,-0.0023016371390316,0.0349140769928693,-0.000939285964705,-0.0019582444801926,0.0016785830957815
3.794201171875,-2.72350667975e-05,-0.0044789994444232,0.0446405212372541,-0.001282301149331,0.000602651387453,0.0025182778481394
3.804180908203125,0.0004971541334874,-0.0010452804023865,0.034463410615921,-0.000686680257786,0.0004615485668182,-0.0003935194108635
3.814161865234375,0.0068405866097658,0.0012081976128276,0.0329682036221027,-0.0007692382205277,0.0023345500230789,-0.0011799507774412
3.824142822265625,-0.00294657484591,0.0015933975381311,0.0437397730052471,-0.0017887749709188,0.0003728792071342,0.0017403654055669
3.8341240234375,-0.0008784816012717,0.0022998196412809,0.0426905562132596,0.0022728119511157,-0.000895052216947,0.0011930859182029
3.84410400390625,0.0042673020556569,0.0033053799546323,0.0368552741885185,6.23419182375e-05,0.0011933352798223,-0.0006243548123165
3.8540849609375,0.0019112769814208,-0.0036407585219945,0.0432861840188503,-9.55836148932e-05,-0.0011337352916598,-0.0017287677619606
3.864066162109375,-0.0069841963315382,0.0075049322700127,0.0381996745347976,0.0031687002629041,0.0007384568452835,-0.0005205436609685
3.8740458984375,-0.0126149322275072,0.0038915366789791,0.033407764083147,-5.93173317611e-05,0.0007935836911201,0.0024510114453732
3.884026611328125,-0.00226589910537,-0.0033230800081044,0.0289192204922437,-0.0007328502833843,-0.0004223519936203,-0.0014564502052962
3.894007568359375,-0.0024798706496134,-0.0026668080564588,0.0322094942092895,0.0034232786856591,0.0016884692013263,-0.0020825595129281
3.90398779296875,-0.0099534396669827,0.0002852010163944,0.0441793334662914,0.000430048094131,-0.0014247819781303,0.0010413342388346
3.91396875,-0.0017188414155505,0.0042243396967649,0.0329611893594265,-0.00335643440485,-0.0018431646749377,0.0017321583582088
3.923949462890625,-0.0006890234437771,0.0003000971914269,0.0452314728677272,0.0012828019680455,-0.000862612389028,0.0001910525024868
3.9339296875,-0.002971179564204,0.0056930422761477,0.0384966116547584,0.0006881180452182,0.0001621721312403,0.0003614948363974
3.94391064453125,-0.0041954241295345,0.0026330153847113,0.0438823963463306,-2.24077375605e-05,-0.0006340853869915,0.0012478178832679
3.9538916015625,-0.0003044628392904,-0.0064171279001515,0.0411924266099929,-0.0043939864262938,-0.0010958779603242,-0.000879248837009
3.963871826171875,0.0030052279642783,0.0014369648674037,0.0383522347480058,-0.0037927413359284,-0.000261690467596,8.0867728684e-05
3.973852783203125,0.0012769063343293,0.0003673811408225,0.0277297184467315,-0.0010108033893629,0.0002576261758804,-0.0008198133436962
3.98383251953125,-0.0016480777342803,0.0033149606337305,0.0392535675019025,-0.0013761925511062,-0.0012443186715245,0.0009037955896928
3.9938125,-0.004618782374449,-0.0027831187793519,0.0473392588019371,-0.0001122562680393,-0.0001707980409264,-0.0007010253611952
4.003793701171875,-0.0097207268896512,0.0056520070128608,0.0338677828103303,0.0003213009331375,0.0021486803889274,0.0023418795317411
4.013774658203125,-0.0123402800045907,-0.0037327385212294,0.040599136891961,0.0023346506059169,0.0002485150471329,-7.89340119808e-05
4.02375439453125,-0.003451163367182,0.0057604814891703,0.0365565835028886,0.0004677292890846,0.0010860804468393,1.72287400346e-05
4.0337353515625,0.0001251790159381,0.0107011710280552,0.0405997214138507,-0.0002190999221056,-0.0028607239946722,0.0011599911376833
4.043716552734375,-0.0031524909478612,-0.0013228369684424,0.0385053794831037,-0.0011662525357678,-1.8810853362e-05,0.0002103121660184
4.053697509765625,-0.0049121210315264,-2.49335118569e-05,0.0340174204140901,0.0023906654678285,-0.0014585154131054,-0.0008072816999629
4.063677490234375,0.0024851130803115,0.0037629601295571,0.0398562095701694,-0.0008046315051615,0.0026456275954842,0.0001090200385078
4.07365869140625,-0.0062971456491388,-0.0012854275675024,0.037309447696805,-0.001652315724641,-0.0007483046501874,7.89263285696e-05
4.0836396484375,0.0053267662470228,-0.0061823692962061,0.0316249723196029,-0.0020137703977525,7.48187303543e-05,-0.0009804159635677
4.093619384765625,-0.0022815898648463,0.0011763777024578,0.0295300458669662,0.0022653969936072,-0.0014234753325581,-0.0016344883479177
4.103600341796875,0.0010374715552665,0.0045443197655957,0.0407528661489486,0.0007828805828467,-0.0005020964890718,0.0010673679644241
4.11358154296875,-0.0078098152344115,-0.0077342566470149,0.0376104764699935,0.0005591750377789,7.66087323427e-05,-0.0006578277098014
4.1235615234375,0.0056429195241071,0.0053972194010391,0.0385083020925521,-0.0008847609860822,-0.003609325736761,-0.0008826904231682
4.13354248046875,-0.006596640052367,0.0001417008924763,0.0392605817645788,0.0010188666637986,-0.0003312407061457,-0.0002608423237688
4.143523681640625,-0.0037217056705616,0.0016712028815411,0.0400087697833776,0.0012267145793884,0.000863385386765,-0.0010726816253736
4.153503662109375,-5.04515456035e-05,0.0033506712679285,0.0204062436908483,-0.0005570707144215,0.0019142683595418,0.0012322842376306
4.163484375,-0.0052569889464415,0.0008211436571553,0.0310275909483432,0.0009659327333793,0.0005171289667487,-0.000467145582661
4.173465576171875,-0.0014637341433204,0.0022843024117406,0.0456967522919177,0.0006652619922533,-0.0017550801858305,0.0003019753785338
4.183446533203125,0.0012796097480691,0.0001548435018397,0.0376180752545595,0.0001451931893825,-0.000688069500029,0.000134804402478
4.1934267578125,-0.0039484270985238,-0.0019968363730236,0.051084290549159,0.000156378489919,7.35949724912e-05,-0.0012646866962313
4.20340771484375,-0.008205445222184,0.0031155656041111,0.0425531935691833,0.0002879305975511,-0.0003903759643435,0.0001114787592086
4.213388427734375,-0.0035741686923429,0.0006709032651968,0.0395592724502086,0.0007009868277236,0.0013145795091986,0.0010369272204115
4.22336865234375,-0.0030324812973849,0.004469921088824,0.0450941102236509,0.000190464197658,-0.0001308163627982,-0.0025592721067368
4.233349609375,0.001621975178644,0.0011303922694176,0.0310287599921226,0.0009156430605798,0.0003437586128711,0.0010000426555052
4.24333056640625,-0.0015658793435432,0.0031958277660887,0.0362672451674938,-0.0001296228729188,-0.0014743469655513,-3.62193677574e-05
4.253310791015625,-0.0007310176882892,-0.0008097363471519,0.0391132822483778,-0.001810077461414,-0.0003715315833687,-0.0008354340097866
4.263291748046875,-0.0073353113241493,2.8312779031e-06,0.0361211146950721,-0.0008455095812678,0.0008553406223654,0.0009240708313882
4.2732724609375,0.0022280878456309,-0.0005547112733125,0.0337280820786952,-0.0016271473141387,-0.0002906173467636,0.0001309814397245
4.283252685546875,0.0045315424824133,-0.0032072442092467,0.0389677362978458,0.0006073908880352,-0.0019583171233534,-0.0014128788607195
4.293233642578125,-0.0077578841177746,-0.0009537296614143,0.0380722487628459,6.65028346702e-05,-0.00137535110116,-0.002023275475949
4.303214599609375,-0.0001883439126424,0.0011465305534657,0.0328366861969232,-0.0003995319711975,-0.0012291753664612,4.51186788268e-05
4.313194580078125,0.0095996029943227,0.0027377270013559,0.0362789356052875,0.0019432507688179,0.0001058671623468,-0.0003466323250904
4.32317578125,0.0045223545289598,0.0019065277410671,0.044511926421523,-0.0004693112568929,-0.0009854538366198,4.67578065581e-05
4.333156494140625,0.0007560242653824,-0.005475143475458,0.034933366215229,0.0001219104742631,0.0005996590480208,3.85020102839e-05
4.343137451171875,0.0003522840363904,-0.0002553721337113,0.0391243881642818,-2.19835201278e-05,-0.0009585423395037,-0.0007827663794159
4.35311767578125,3.5016514454e-05,-0.0035683326066005,0.0464595533579587,-0.0015325285494327,-0.0011066133156418,-0.0004176469519734
4.3630986328125,-0.0015220584681257,-0.004033228438301,0.035832360881567,0.0009934626286849,0.0007560783997178,0.0007039245683699
4.37307958984375,-0.0021835180515423,-0.0011163454777561,0.0323889424294233,-0.000314682140015,0.0003123953938484,0.0011396176414564
4.3830595703125,-0.0065025137618184,0.0037156960548833,0.0515454783201217,-0.0019448394887149,0.0020531313493847,0.000166954298038
4.39304052734375,-0.0036602578069083,-0.0102945264559239,0.0379296254217624,-0.0006785064470022,0.0002224743366241,-0.0002122798468917
4.403021484375,0.0005109086642041,-0.0109471360126044,0.0442144047796726,-0.0003962825867347,-0.0012850146740674,0.001351824379526
4.41300146484375,-0.001313877343852,-0.0070731806560885,0.035235564032197,0.0004412815906107,0.0006415164098143,0.0017792616272345
4.422982666015625,0.0002971015167422,-0.0010574640305247,0.0400198756992816,0.0004404808860272,0.0011320784687995,0.0007777916034683
4.432963623046875,0.007064878618624,0.0011646415988914,0.0407704018056392,-0.0011028208537027,-0.0014810152351856,-0.0008376818732358
4.442943603515625,0.000555588056147,-0.0042919981054961,0.0299941562473773,0.0002546242903918,3.39858233928e-05,0.001251382054761
4.452924560546875,-0.0063257324228063,-0.0068321019092109,0.0329869083225727,-0.0006886674091219,-7.36052170395e-05,-0.0027974219992756
4.462905517578125,0.0009089863373897,-0.0051505328972823,0.0394219098061323,-0.0026196425314992,-0.0016642529517412,0.0013904110528528
4.472886474609375,0.0111359822487458,0.0011293784892652,0.0359831675291061,-0.0015386653831228,0.0031155887991189,-0.001379010034725
4.482866455078125,-0.0028759938277304,0.0064903210005257,0.0415180053025484,-0.0009643766679801,-0.0006559891626238,-0.0022135144099593
4.49284765625,-0.0050288610126823,-0.0021948157636914,0.0419657490700483,0.0011712121777236,0.0020918603986501,0.0007934606983326
4.50282861328125,0.0005736899684183,-0.0088313768344931,0.0401671752154827,0.0011264785425737,0.0010709762573242,-0.0001660499110585
4.512808349609375,-0.0058698784140869,0.0033559319649357,0.0413572617828846,0.0004835914587602,0.0018150638788938,0.0002992043155245
4.52278955078125,0.000308116101101,-0.0016281583242584,0.0443465067267417,-0.0006624005618505,0.0006580492481589,-0.0021369331516325
4.5327705078125,-0.0028054493421688,-0.0055498892121016,0.0346212315261363,0.0009658561320975,-0.0009275963529944,0.0015640617348253
4.54275048828125,-0.0036663039552047,0.0001075428945478,0.0440443089097738,0.0033892928622663,0.0020020874217152,0.0002834254992194
4.5527314453125,0.0048517143474891,0.0064428194638341,0.0377571914643049,-0.0030781938694417,0.0005144448950886,0.001408610958606
4.562712646484375,-0.0069278447681106,0.0013685301405377,0.0423982952684164,0.0011533992365002,0.0006528692319989,0.0019247969612479
4.5726923828125,-0.007387516435422,0.0006152823541313,0.0447924969285726,-0.0016980472719296,0.0006914846599102,-0.0017333211144432
4.58267333984375,0.0003116962976753,-0.0010349051388446,0.0377624521613121,0.0001136480132117,-0.0002564806491136,0.0004830020770896
4.592654541015625,0.0027980332206934,-0.0021518534047994,0.0404541754633188,0.0011432259343564,0.0019944235682487,-0.0027807017322629
4.602634765625,-0.0074702262828126,0.0041338849343359,0.0374590853005647,-0.0019750273786485,-0.0010530464351177,0.0015297781210392
4.61261572265625,0.0004736636600457,0.0005840469656512,0.0400046781301498,-0.0002682075137272,0.0025440845638513,5.1184324547e-06
4.622596435546875,-0.0060881425409577,0.003470078130206,0.0420978510171175,-0.0010205404832959,0.0022314768284559,-0.0004106669512111
4.63257763671875,-0.0085245759076438,0.0028057142036501,0.0385065485268831,0.0005350118735805,-0.0022152038291096,-0.0017049631569534
4.6425576171875,6.58135115168e-05,6.76492755766e-05,0.0383586644887924,0.0006720112869516,0.0021145408973097,0.0029548672027885
4.65253857421875,-0.0044743141361512,-0.0008243767938576,0.0458440518081188,0.0004075594479218,-1.09281390905e-05,0.0036174617707729
4.66251953125,-0.0078305474951863,-0.0066539688633289,0.0394113884121179,0.0005942243151366,0.0002128528431057,0.0011415766784921
4.672499755859375,-0.0012665493370965,-0.0021187457196414,0.0444984824180603,0.0008051466429606,-0.0008060727268457,-3.34100041072e-05
4.682480712890625,-0.0032691395974718,-0.0010670538427773,0.0433048887193203,-0.0005748758558183,0.0004790620878338,0.0019314341479912
4.6924619140625,-0.006737381963618,-0.0039613322458695,0.0346259077012538,0.0012773526832461,7.13327899575e-05,-0.0001098787179216
4.702441650390625,0.0078159709805622,0.0099256931435316,0.0281926597833633,0.0010264856973662,0.0001597693189978,-1.10643304651e-05
4.712422607421875,0.0064932162105105,-0.0012524112138897,0.0400198756992816,-0.0037056850269436,0.0014940137043595,0.000350592948962
4.722403564453125,0.0001236994449049,-2.76643250603e-05,0.0331377149701118,0.0019521127687767,-0.0013153450563549,-0.0007770790834911
4.7323837890625,-0.004958754918538,-0.0046307559400331,0.0343330622345209,0.0012293310137465,0.0006921449676156,-0.0012537848670035
4.74236474609375,-0.0056620078170672,-0.0035670630981214,0.0448036028444766,0.0002657300792634,-0.0002160994336009,0.0014030226739123
4.752345703125,-0.0025267967975698,-0.0026380294865462,0.0344815307945013,2.49803997576e-05,0.0002808468416333,0.0009180610068142
4.762325439453125,-0.0035479748051613,0.0028021248739212,0.0289449394553899,-0.0003874673857353,0.0006808079779148,0.0012955593410879
4.772306640625,0.0015981741779483,-0.0007152903961949,0.0433119029819965,0.0009837942197918,-0.0008654231205582,-0.0017622822197154
4.78228759765625,0.0048081126677803,0.0003630976913496,0.0427145216107368,-0.0017439000075682,-0.0017474750056862,-0.0006102576735429
4.7922685546875,-0.0043649354775436,-0.0006768946145661,0.0473573789805173,0.0010082107037305,-0.0007325438782572,-0.0001300896983593
4.802248779296875,-0.0078590064046904,-0.00141177562722,0.0298468567311763,0.002739742398262,0.0024257265031337,-0.0004244962474331
4.812229736328125,-0.0051157903774641,0.002169891384989,0.0371755921840667,0.0017511770129203,0.0006475336849689,0.0001203865103889
4.82221044921875,-0.0069804882708005,-0.0046873449654784,0.0415162517368793,-0.0003389101475477,0.0002851374447345,0.0002138745912816
4.8321904296875,0.0019856025929562,-0.0008033066063653,0.0316430924981832,0.002500285860151,-0.0016621658578515,-0.0012945397756993
4.842171630859375,0.0100736319805495,0.0016469178236555,0.0328384397625923,0.0009653838351368,-0.0002381782978773,-6.66613195789e-05
4.852152587890625,0.0043170229488983,-0.0008398574907798,0.0332867680519819,-0.0020202859304845,0.0031514931470155,-0.000887980160769
4.862132568359375,-0.0005018120422959,-0.0035445772716775,0.0427133525669574,-0.0002026215661317,-0.0010924786329269,0.0004315245314501
4.87211376953125,-0.0008569456228986,-0.0028584947036579,0.0358311918377876,-0.0004657418467104,0.000598095357418,-0.000513098668307
4.882094482421875,-0.0092886738816276,-0.0006811506645753,0.0364262351214885,0.0010676684323698,0.0017609586939215,-0.0003727708826772
4.892073974609375,-0.0041525531021878,-0.0002033496855292,0.0400134459584951,0.0011696675792336,0.0012541590258479,-0.0014015500200912
4.902054931640625,-0.0044025823405012,0.0040067240238655,0.039864392876625,0.0003241812810301,0.0009618196636438,0.0007567175198346
4.912035888671875,0.0031934440127573,-0.0055838554137852,0.022206571111083,0.0012501623714342,0.0007743332535028,0.0010933411540463
4.92201611328125,0.0014135565923526,-0.0016360676360782,0.0359732306569814,-0.0006336275837384,-0.0011372063308954,0.0001292150845983
4.931996826171875,0.0029252763295546,0.0013614245463162,0.0374696066945791,0.0015469687059521,0.0007264735177159,0.0012991417897865
4.941977783203125,-0.0010245024758391,0.0044778395337983,0.0359708925694227,0.0028676541987806,0.0015666708350181,0.0004382148035801
4.951958740234375,-0.0024512108107097,0.002135084933089,0.0331236864447593,0.0029384943190962,0.0006199171766638,0.0001359460147796
4.96193896484375,0.0005166808178648,0.007466554754693,0.0392570746332407,-0.0039390022866427,0.0012535545974969,0.0008807912818156
4.971919921875,0.0062398990365676,0.001427201525215,0.038357495445013,-0.0018058103742077,-0.0018362449482083,-0.0011171121150255
4.98190087890625,-0.0002816116866655,-0.0032326252456754,0.0509288077265024,0.0004630287876352,-0.0001604799181222,-0.0015309125883504
4.991880859375,-0.0114255397798493,0.0005706851605791,0.0245920049428939,-0.0014722903724759,0.0010230289772152,0.0007727217744104
5.001862060546875,0.0007755509497597,-0.0002647792828734,0.0346171398729085,-0.0004946829285472,0.0018633464351296,0.0002382560487603
5.0118427734375,-0.0038252756428904,-0.0075125858535058,0.0470370609849691,0.000265915878117,-0.0004051337018609,-0.0003399162087589
5.021822998046875,-0.0051824076065793,0.0074907302147243,0.0388064082562923,-0.000736394606065,-0.0001973547041416,0.000598074751906
5.03180419921875,-0.0047517611043527,-0.0002073043414391,0.0401531466901302,-0.0008266757940873,0.0001469915732741,-7.17102811904e-05
5.04178515625,-0.0011274513936601,-0.0028747517187148,0.0447895743191242,0.0004470023559406,0.0022808676585555,-0.0018510543741285
5.051764892578125,0.0023104506331495,0.0066745458604767,0.0399976638674736,0.0017628702335059,0.0022102938964962,0.0002592345117591
5.061745849609375,-0.0042527438073419,0.0011783321975264,0.0426882181257009,-0.0006250496371649,0.0018150992691516,0.0008447932777926
5.07172705078125,-0.0023183051460422,0.0069057790667749,0.0390963311135768,-0.0001246416941285,-0.0021436903625726,7.96670792624e-05
5.08170703125,-0.0021327559786848,-0.0031809041915927,0.0396960505723953,0.0006026215851306,-0.0015538576990365,0.000245766073931
5.09168798828125,0.0032037827436812,0.0035662502473685,0.039099838244915,0.000718202907592,-0.0002683494240045,-0.0014208401553332
5.101669189453125,-0.0016602248298004,-0.0004978117206133,0.029524785169959,0.000960087403655,0.0014210231602191,-0.0003999585751444
5.11164892578125,-0.001345057933405,-0.0031221962742973,0.0352121831566095,-0.0047273593954741,0.0007674833759665,-0.0013429839164018
5.1216298828125,-0.0017061645970679,-0.0093460483583621,0.0446434438467025,-0.0030175657011568,0.0017237002030014,0.001326662255451
5.131611083984375,-0.0042003742992877,-0.0036198344649747,0.0419493824571371,0.0001015285961329,0.0005540391430258,0.0005823087412863
5.141592041015625,-0.0043032684181816,-0.001609499289561,0.040754035192728,-0.0018956437706947,-0.0005308482795953,-0.0004371157847344
5.151572021484375,-0.007131075722631,0.0008534202252514,0.0301326879352331,-0.000677247531712,0.0004417384043335,-0.0002485639997757
5.161552978515625,0.0011456994364038,0.0053661758088041,0.0409071799278259,0.0020235278643667,-0.0003473479300737,0.0003955097345169
5.1715341796875,-0.0001228409283794,-0.0100571192371658,0.0377618676394224,-0.0007168650045059,0.0001583863049745,-0.0008034453494474
5.181513916015625,-0.0018201828981749,-0.0015197112474124,0.0467389548212289,0.0005557525437325,-0.0008851727470755,0.0006722144898958
5.191494873046875,0.0001530351372435,0.0038669958927668,0.0455424385130405,-0.0017015427583828,-0.0002670530229806,-0.0001248696353286
5.20147607421875,-0.0040736609133891,0.0018725158736109,0.0347685310423374,-0.0004174140049144,0.000997943803668,-0.0021337168291211
5.2114560546875,-0.0019192593584768,0.0013018398461863,0.0397089100539684,-0.0014392689336091,-0.0016545644029974,0.0005491516203619
5.22143701171875,0.0069171955099329,0.000992088910425,0.0310334361672401,-0.00186427985318,4.48711216449e-05,-0.0011291508562862
5.23141796875,-0.0070267202990129,-0.0048225978508591,0.0448006802350282,-0.0018919766880571,0.0003420794382691,-0.0021616583690047
5.24139794921875,-0.0085140727799385,0.0018828089387621,0.0451005399644374,0.0008451341418549,0.0002633351832628,-0.0014080754481256
5.25137890625,-0.0039205892435275,-0.0040508188939187,0.0413613534361124,-0.0007857856689952,-0.0019303103908896,0.0020508382003754
5.26135986328125,-0.005700768924877,-0.0020841584634501,0.0470475823789834,0.0001744073815643,-0.0005242461338639,-0.0022810425143688
5.27133984375,-0.0032149982574395,0.007428606497636,0.0406125808954238,-0.0010109655559062,0.0015410352498292,-0.0008578491979278
5.281321044921875,-0.0043998971930705,-0.0121070923032239,0.0352238735944032,0.0007037674076855,0.0007565254345536,-0.0010677099926397
5.291302001953125,0.0028746786534786,-0.0080858922294341,0.0394078812807798,0.0002238657325506,0.0015336349606513,-0.0007912738947197
5.30128173828125,0.0085756119751371,-0.0045288390686735,0.0356722018837928,-0.0018357490189373,-0.0040391301736235,0.000205888034543
5.311262939453125,-0.0023270912406966,0.0037586766800843,0.0449514868825674,0.0012074451660737,-0.0001815408468246,-0.0017560627311468
5.321243896484375,0.0050561691447161,0.0001031863798387,0.0427086763918399,-0.0013764690374955,-0.0028449250385165,-0.0008728932589292
5.331224853515625,-0.0002237805522046,0.0014381613106466,0.0305903685748577,0.0015072016976773,0.000731966458261,-0.002576517406851
5.341204833984375,-0.0014870236873626,-0.0024308712755795,0.0380769249379634,-0.0006260650116018,-0.0018008984625339,0.0022049525287002
5.35118603515625,-0.0054516530020162,-0.0028295517369639,0.0525941105902195,-0.000826068338938,-0.0007912945002317,0.0008786984253674
5.361166748046875,0.0007774323795922,-0.0048757710765115,0.0508019664764404,-0.0010746530024334,0.0011335546150803,-0.0013276739045977
5.37114697265625,-0.0022833799631334,0.0053799577389843,0.0490051461875438,-0.002256297506392,0.0001577725633978,0.0025336435064673
5.3811279296875,-0.0022973536895588,-0.0005868691103998,0.0374830506980419,-0.0021275619510561,0.0022158008068799,0.0020748446695506
5.39110888671875,-0.0055377238502725,0.0013229100336786,0.0359849210947752,-0.0030831042677164,-0.0011610873043537,0.0026974917855113
5.401089111328125,0.0009362031378783,0.0050743167227599,0.0316477686733007,0.000690319458954,0.0008478118106722,0.0017664068145677
5.411070068359375,-0.00121441729106,0.0047125068061985,0.0443693030804395,0.0004732717061415,0.0005870880559086,1.96394539671e-05
5.42105078125,0.0071798102351836,0.0020560283475089,0.0463163454949855,-0.0019655844662338,-0.0004649525508284,0.0004095395561307
5.431031005859375,-0.003074457275588,-0.0068554645184893,0.0467629202187061,-0.0002446497092023,0.0011787507683038,0.0008031547768041
5.441011962890625,-0.0068616659304127,-0.0020491967479232,0.0394295085906982,0.000396005809307,0.000192885287106,0.0017726008081808
5.4509931640625,-0.0047719819084741,-0.0059866731941699,0.0442149893015623,-0.0002340980572625,0.002949790097773,0.0015702005475759
5.46097314453125,-0.0092139098786748,-0.0036112766991835,0.0319423677057027,-0.0004317815764807,-0.0009061498567461,0.0010738549754023
5.4709541015625,-0.0045290947970002,-0.0060487969112582,0.0389770886480808,-0.0018539095763117,-0.0020486460998654,0.0016863819910213
5.48093505859375,0.0053395161307416,0.0017960074381437,0.0428717579990625,0.0021703692618757,-0.0027747713029384,-0.001322359777987
5.490916015625,0.0017845635955221,0.0065397131002042,0.0376356109112501,-0.0027492884546518,-0.0008383868262171,0.0008521112613379
5.50089599609375,0.0003502564760856,-0.0045694359405431,0.031951135534048,-0.0008835360640659,0.0011448608711361,-0.0005575759569182
5.510876953125,0.0030010267131961,-0.0037392687267158,0.0467635047405958,-0.0010316078551113,-0.0014338782057166,-0.0001506449916632
5.520858154296875,-0.004788951309584,0.0031666564705315,0.0391331559926271,-0.0012847488978877,0.0017682388424873,0.001206777873449
5.530838134765625,-0.0085748447901569,0.0002217164592817,0.0343429991066455,-0.0010309496428817,-0.0002717422321438,0.0005082307616248
5.54081884765625,-0.0075763718047179,-0.0002291508470661,0.0332943668365478,0.0011410953011363,-0.0001024873927235,0.0003961642214562
5.550800048828125,-0.008291041146405,-0.0012645217767916,0.0364373410373926,-0.0004658560501411,-5.42839989066e-05,0.0022308160550892
5.560780029296875,-0.008221391709987,-0.0010161913052201,0.0253629893153905,-0.0027458800468593,0.0002431832253932,0.0007428411045111
5.570760986328125,-0.0063543374627828,-0.0030821108590811,0.0310492182582616,0.000681341974996,-0.0005781352519989,-0.0011216379934921
5.580741943359375,0.0012133943777531,-0.0043024007685016,0.038532852011919,0.0014684471534565,0.0004634791985154,-0.0012205943930894
5.59072216796875,0.0018357457934878,-0.0009239464445039,0.041675241690874,0.0021709892898797,0.000855229794979,0.0024708132259547
5.600702880859375,-0.0018559300649911,-0.0004465929900296,0.0377834949493408,0.0035479192156344,-0.0002184621989727,0.0034139982890337
5.610683837890625,-0.001980341895949,-0.0009538118598051,0.0347919119179248,-0.0047313161194324,0.0001447927206754,-0.0006374687654897
5.620663818359375,-0.0085799410903826,-0.0057265335537958,0.0280593887925147,4.29998617619e-05,3.27276065945e-05,0.0032932141330093
5.63064501953125,-0.0003817475928924,0.00652735594213,0.0407733244150877,0.0019311809446662,-0.0005829948931932,0.0030940098222345
5.6406259765625,-0.002089136032667,0.0049452835156116,0.0373328285723924,-0.0002937280805781,0.0010917000472545,0.0021464298479259
5.650605712890625,-0.0045910906499251,-0.0009050682140979,0.0359872591823339,-0.0014724431093782,-0.0008087316527962,-0.0011401773663237
5.6605869140625,-0.0083487444167025,-0.0059115529981907,0.0316512758046388,-0.0006539587629958,-0.0017906678840517,0.0019934829324483
5.67056787109375,-0.0064367550492286,-0.0038172384669072,0.0347960035711526,-0.0015357313677668,2.64076516032e-05,-0.0001040227871271
5.6805478515625,-0.003207874396909,-0.0029736729153897,0.0391331559926271,0.0001194869400933,0.0002482095733284,0.0006049952935427
5.690529052734375,0.0017977518706582,-0.0082350183765403,0.0380874463319778,0.0008702320046722,-0.0024306643754243,-0.0013007627567276
5.700510009765625,-0.0014295396127738,0.0041560693666804,0.0322515797853469,0.0021512047387659,0.0009583188220858,-0.0002128505147993
5.710490966796875,-0.0069198075921274,-0.0019641579461283,0.0332967049241065,-0.0006477775168605,-1.85286626219e-05,4.92045364808e-05
5.720470703125,-0.0028978038007393,-0.0006625646951142,0.0358393751442432,0.0028154710307717,0.0004850253462791,0.0003797363315243
5.730451904296875,-0.0065829585868865,-0.0072837272673845,0.041675241690874,0.000256172963418,0.0015295166522264,0.0006620314670726
5.740432861328125,-0.0060108395210467,0.0038837460981681,0.0382335768043994,-0.0003037196584045,-0.0012324256822466,0.000396087008994
5.750412841796875,-0.0041914786067791,-0.0118207313762046,0.045567572954297,-0.0018086719792336,-0.0006137732416391,-0.0012603991199284
5.76039404296875,-0.0014240049211308,0.0007507270357571,0.0463175145387649,0.0001772894756868,-0.0002225469797849,-0.0004802482726518
5.770375,-0.0106895901881158,0.0071634618885815,0.0355424380242824,0.0010430831462144,-0.000395918264985,0.0004912728909403
5.78035498046875,-0.0104297154092229,0.0045356706682592,0.0416758262127637,-0.0013567856512963,0.0020575756207108,-0.0004400283796712
5.790335693359375,0.0017060732655227,-0.0050941630675457,0.0328448695033788,-0.003195964731276,0.0004460969939827,-0.000794228806626
5.80031689453125,-5.73744767345e-05,0.0003156783530488,0.022372575327754,-0.0007094054017215,-0.0003191940486431,-0.0010173437185585
5.810297119140625,-0.0019584040587767,-0.003558779326966,0.0340448929429054,0.0001252292422577,0.0008629830554127,-0.0014008388388901
5.820278076171875,0.0009465601351112,-0.0013577804176602,0.0326952318996191,0.0024849534966051,0.0007907319813966,0.0018896274268627
5.830259033203125,-0.0046497437682934,0.0029064163654576,0.0394265859812498,-0.0005997859989292,-0.0015619043260812,0.001373773207888
5.840239013671875,0.0045188108650036,0.0009129135938361,0.0320943433970212,0.0014713335549458,0.0020232973620295,-0.0016482272185385
5.850219970703125,0.0039062684572301,0.0012230207226239,0.0397252766668796,0.000936304568313,-0.0013117790222167,0.0016471683047711
5.860200927734375,0.0074529280881397,-0.0040574221646413,0.0314952084600925,0.0021517695859074,-0.0018824562430381,0.0005463465349748
5.870181884765625,-0.0042302945135161,0.0027036512018181,0.0319464593589305,-0.0006842307047918,-0.0007122633978724,-0.0009948246879503
5.880162109375,-0.0017748824517242,0.0004593702732119,0.0436181924521923,-0.0001620547845959,-0.0009089177474379,-0.0009101621690206
5.89014306640625,-0.0049453109150752,0.0015809764479752,0.0325432562083005,-0.0016981661319732,0.0011334605515003,-0.0008156199473887
5.900124267578125,-0.0106632136378437,-0.0082237115312367,0.0379290408998727,-0.0015674494206905,0.0010700263082981,-0.0006964547210372
5.91010400390625,-0.0021786409470252,-0.0027657018536701,0.0451110613584518,0.0008744028164073,0.0010593738406896,0.0007102269446477
5.9200849609375,0.0071941675540991,-0.0065214833237696,0.0293967748761177,0.0023257518187165,0.0015069460496306,0.000451312836958
5.930066162109375,0.0018996596088632,0.002801165892696,0.033584874215722,-0.0001366069773212,0.0005330275744199,0.0002742126525845
5.940046142578125,-0.0044398090783506,0.0043525509200058,0.0418131888568401,-0.0003304739948362,0.0013405317440629,-0.0003390639321878
5.950027099609375,-0.0072311750962398,0.002415107450867,0.0392687650710344,-0.0004351362586021,-0.0007172925397753,0.0006367182359099
5.960008056640625,0.0021643932259641,-0.0054174128056969,0.0308873056948184,0.0018845754675567,-0.0016837725415825,0.0011681044707074
5.969988037109375,-0.0002556369951926,-0.0009956691069994,0.0292430456191301,0.000265373615548,-0.0004557892680168,0.0014104520669206
5.979968994140625,-0.0071562832291238,0.0032351094637066,0.0374754519134759,-0.001669953810051,-0.0004006084054708,-8.58370185596e-05
5.989949951171875,-0.0032257753797806,-0.0018884166956413,0.0418178650319576,-0.0005604809266515,-0.0003763735294342,-0.0020081065595149
5.999929931640625,-0.0074855334497988,7.28369073476e-05,0.0392740257680416,-0.0010860243346542,0.0006234804168343,-0.0003059126611333
6.0099111328125,-0.0004260616586543,0.0065349273272324,0.034336569365859,0.0017651558155193,-3.1618401408e-06,-6.32986775599e-05
6.01989208984375,-0.003939494873397,-0.0040568741753697,0.0367301865041255,0.0041856821626424,0.0010105296969413,0.0002242054615635
6.029871826171875,-0.0009994228335097,-0.0027509244096465,0.047505263018608,0.0009123906493186,-5.55329024791e-05,-0.0004999079974368
6.03985302734375,-0.0004033931691199,0.0016098098168149,0.0347837286114692,0.0024956576526165,0.0006201611831784,-0.0029970982577651
6.049833984375,0.0017991035775281,0.0052958505189511,0.0262526316314935,-0.0015384985599666,0.0011304225772619,-0.0001318032154813
6.05981396484375,-0.0002279818032868,0.0097785488909576,0.0371790993154048,-0.0016625435091555,-0.0022905729711055,-0.0001128726289607
6.069794921875,-0.0003928535087965,0.0083355470084119,0.0386778134405612,-6.14509917795e-05,0.0006737913936376,-0.0010620232205837
6.07977587890625,-0.007584372448083,-0.0001718311692588,0.0385281758368015,0.0006049141520634,0.0004319855943322,-0.0013241533888503
6.0897568359375,0.0025024843402206,-0.0043585331362206,0.0451098923146724,-2.59886728599e-05,0.0005006957799196,0.000689462700393
6.09973681640625,0.0079851718013174,-5.31640924979e-05,0.0377799878180027,0.0009738933295011,0.0022497717291116,0.0012079392326995
6.109718017578125,-0.0009353263550437,-0.0058096909257583,0.038974750560522,0.0022596674971282,-0.0004101935774087,-0.0010291161015629
6.119698974609375,-0.0021333405005745,0.0025871943484526,0.045558220604062,0.0017938440432772,-5.111284554e-05,-0.0007202165434136
6.129678955078125,-0.0020032295811921,-0.0043192149059847,0.0445107573777437,0.0009395020315423,-0.0002881344407796,0.0024718481581658
6.13965966796875,-0.0013840382369235,-0.0076221289088949,0.0434592024981975,0.000964447739534,0.0004217270761728,-0.0006847013719379
6.149640869140625,0.0005274579402059,9.1605539899e-06,0.0437561396181583,-0.0007825858192518,-6.85602426528e-05,-0.0022897885646671
6.159620849609375,-0.0039760640241205,0.0042610732442699,0.0460042108058929,-0.0006608073599636,-0.0024860054254531,-6.81610545143e-05
6.169601806640625,-0.0043237449506297,0.0041820988570805,0.0489952093154191,-0.000376381794922,-0.0007621413096785,0.0023526521399617
6.1795830078125,0.0028155871436931,-0.0043986459509003,0.0376239204734563,-0.0007963628740981,0.0012132311239838,0.0013276193058118
6.18956298828125,-0.0046552601936273,-0.0047865401567891,0.0331330387949943,-0.0010048884432762,-0.0012946678325533,0.0004439824842847
6.199543701171875,0.00064153104024,-0.0029205362223554,0.0368757324546575,0.0002041143598034,-0.0011091930791735,-0.0013497816398739
6.20952490234375,0.0040176564098335,-0.0032619061390869,0.0380722487628459,0.0006438023410737,-0.0001698965206742,0.0006470564985647
6.219505126953125,0.0042950485791079,0.0023699531348887,0.0415121600836515,0.0001106517156586,0.0003542387858033,2.43125832639e-05
6.229486083984375,0.0011928265137597,0.0049626182429026,0.0382172101914882,-0.000395082635805,0.0008229548111557,0.003459790488705
6.239466796875,-0.0047304260553792,-0.006001770298602,0.03687105627954,0.0023830621503293,-0.001303412951529,-0.0002111875364789
6.249447998046875,-0.0028148382250219,0.0031266806531697,0.0359708925694227,0.0023886547423899,0.0013626776635646,0.0011560793500393
6.259427978515625,-0.0059750192889943,0.0019405487416777,0.037165655311942,0.0018265126273036,-0.001430238597095,-0.0015647673280909
6.269408935546875,0.0001523592838086,-0.0056130449756514,0.0304313786208629,-7.8727025538e-06,-0.0007993355393409,0.0019527358235791
6.279389892578125,-0.0015611666358076,-0.0021658636638429,0.0406079047203063,-0.0016671197954565,-0.0011649364605545,-3.3540709409e-06
6.2893701171875,-0.0109483507221564,-0.0052008748450316,0.0332774157017469,-0.0008681714534759,0.0009099319577217,0.0013585864799097
6.29935107421875,-0.0019594817710109,-0.0092203578857704,0.0353688350230455,8.20407876744e-05,0.0014868909493088,-0.0003935351269319
6.30933203125,0.0010049940577708,-0.0075279021536465,0.0441980381667614,-0.0006505948258563,-0.0005520246922969,-0.0001599758979864
6.31931201171875,-0.0028335246591828,-0.0033090423495974,0.0304319631427526,0.0009379667462781,0.0004890281707048,0.0002334153105039
6.32929296875,0.0045692806769162,0.0014009163064882,0.0362654916018247,0.0016626130091026,-0.0015663998201489,0.0015625989763066
6.33927392578125,-0.0012870441358536,0.0048839817824307,0.0298304901182651,-0.0005185293266549,-0.0006921691820025,-0.0006553012644872
6.34925390625,0.0009439663192257,-0.004610626467457,0.0307300693064928,0.0033931217622011,0.0022511566057801,2.56690545938e-05
6.359235107421875,0.0034781244393438,-0.0024675408910028,0.0395581034064292,0.0011608293280005,-0.0013882303610444,0.0003439055872149
6.369216064453125,-0.0106734610372222,0.0009643515201285,0.0341723187148571,-0.002703950041905,-0.0001759594306349,0.0006570933619514
6.37919580078125,-0.0050188693416304,-0.0046278515968937,0.0416577060341835,0.0004458989715203,-0.0016741789877414,-0.0001951320155058
6.389177001953125,-0.0102679307099431,0.0052509427981451,0.052432782548666,0.0006155422888696,0.0010574245825409,0.0012293928302824
6.399157958984375,-0.0006810045341029,0.002764971201308,0.0352238735944032,0.0016056390013545,0.0015458334237337,0.0003312117187306
6.409137939453125,-0.0042594475427642,-0.0046909160288982,0.0377630366832017,0.0013680849224328,0.0018520969897508,-0.001057893037796
6.419118896484375,-0.003292776201386,0.0057299219541251,0.031626725885272,-0.0027476784307509,-0.0001340620219707,-0.0002624499029479
6.42910009765625,-0.0079554159838706,0.0053737289275974,0.0431488213747739,-0.0022067902609705,0.0022137807682156,0.0019495716551318
6.439079833984375,-0.0122492589865811,0.0047725116314366,0.0494283400356769,0.0011305385269224,0.0033132005482912,-0.0005980735295452
6.449060791015625,-0.0062042066686786,0.0006764927557669,0.0495768085956573,-0.0017174460226669,0.0021379478275775,0.000208864279557
6.4590419921875,-0.0029855916820466,-0.0092801435153,0.0441921929478645,0.0013643730198964,-0.0011285385116934,-0.0022307119797915
6.46902294921875,-0.0003966529010795,0.0013286547878757,0.04030278429389,0.0001507705310359,-0.0019485261291265,-4.74525731988e-05
6.4790029296875,-0.0005996098609641,-0.0012002426352351,0.0429968456834554,-0.0018336728680878,0.0006701797246932,0.001763068488799
6.488984130859375,-3.258709535e-05,0.0049790031221229,0.048982349833846,0.0014433469623327,-0.0010414337739348,0.0011646561324596
6.498965087890625,0.00282355125444,-4.29532257374e-05,0.0400070162177085,0.0005670968675985,-0.002793975174427,-0.0007254543015733
6.50894482421875,-0.0067939344564452,0.0036232228653039,0.043152328506112,-0.0003679389483295,-0.0006085857748985,0.0007233053911477
6.51892578125,-0.0136963342560455,0.0024612938133068,0.0422556719273328,0.0007063552038744,0.0019841575995087,0.0012968720402568
6.528906982421875,8.49018044769e-05,0.0004699008003808,0.0450946947455406,0.0013937171315774,0.0002658860757946,0.0023735880386084
6.538886962890625,0.0027773740251548,0.0012626768795773,0.0371603946149349,-0.0016285626916214,0.0018231440335512,0.0005830606096424
6.548867919921875,-0.0033629370944574,0.0067104117583017,0.0362613999485969,0.0010902584763243,-0.0024019610136747,0.001580148236826
6.55884912109375,-0.0049185325060039,0.0027300642847083,0.0373117857843637,-0.0006298438529483,0.0011070994660258,-0.0015890705399215
6.568828857421875,0.0043815030198544,0.0038495150350034,0.0374631769537925,-0.0005006805295124,0.0009347926825284,0.0018232376314699
6.578809814453125,-0.0005176306659355,-0.0022307364604435,0.0377595295518636,0.00104763393756,0.0005964366719126,0.001311574364081
6.588790771484375,-0.0008308795998804,-0.0006248082343023,0.0422486576646566,0.0021837381646037,0.0012720813974738,-0.0005561004509218
6.59877099609375,0.001056377185136,0.0083702712619211,0.0347650239109992,-0.0001727730850689,0.0010485528036952,-0.0005012102192267
6.608751953125,0.0002513444125652,-0.004160955604352,0.0275841724961996,0.0035157052334398,-0.0006659897044301,-0.0005360976792871
6.61873291015625,-0.003229355576355,0.005735091319587,0.0346142172634601,0.0004687804030254,0.0005897339433431,-0.0011513819918036
6.628712890625,-0.0039510757133364,0.0018294713163282,0.0322211846470832,0.0014189962530508,-0.0006004320457577,-0.0001550933811813
6.638694091796875,0.0059328789140097,-0.0031729583471547,0.0414993006020784,-0.0001149667659774,0.0021899081766605,0.0010776461567729
6.6486748046875,-0.0079737188255414,0.0030999753093346,0.045390462821722,0.0012384518049657,0.0012724492698907,0.0009945554193109
6.658655029296875,-0.0038824309239163,0.0090207893262151,0.0353618207603693,-0.0015912161907181,-0.000802612863481,0.0010333083337172
6.66863623046875,-0.0074110799740999,0.0047766215509735,0.03491290794909,-0.0025251866318285,-0.0002691810950636,0.001255948562175
6.6786171875,-0.0023775245199911,0.0050265594577416,0.0423959571808576,-0.0027666364330798,0.0004243170842528,-0.0013214433565735
6.68859765625,-0.0035175979332067,0.0043908645032439,0.0365583370685577,0.0011101271957159,-0.0002244291827082,-0.0009504649788141
6.698577880859375,-0.0061802412712015,0.0009484324317891,0.0420925903201103,-0.0010197462979704,0.0009410744532942,-0.001167106674984
6.70855908203125,0.0059640960361808,0.0007658606728073,0.0352098450690507,0.0010165066923946,0.0001354683190584,0.0011849971488118
6.7185400390625,-0.0045180436800234,-0.0030171375977806,0.0416413394212722,0.0002613244578242,0.0011666119098663,0.0001945843978319
6.72852001953125,-0.0105496885270811,0.0066367072012741,0.0355044441014528,0.0012347097508609,0.0002187928184866,-0.000273865647614
6.738501220703125,-0.0038018034357577,-0.0048731041953898,0.0398445191323757,0.0002385427942499,-0.001134960912168,-0.0028222673572599
6.74848193359375,-0.00870590555761,-0.0024941731696017,0.0352063379377126,0.0011418870417401,-0.0002478621900081,-0.0002445938589517
6.7584619140625,0.000764901691582,0.0011959043868351,0.0362555547297,-0.0034444832708686,7.79926776885e-05,-0.0007453561993315
6.768443115234375,0.0025547259841114,0.0031672135929577,0.0402969390749931,0.0008948713075369,0.0004945117980241,0.0024973088875412
6.778424072265625,0.0084027396262623,-0.0055271659236401,0.0461328056216239,0.0018602365162223,-0.0005709482356905,-0.0005878711817786
6.788404052734375,0.002797540030349,0.0050075533631723,0.0446311688870191,-0.0010806921636685,0.0042038336396217,0.0004174721252638
6.798385009765625,0.0020220438795164,0.011761101010302,0.0346019423037767,0.0012647885596379,-0.0006310474127531,0.0010955738835036
6.808365966796875,-0.0004821757600642,-0.004633167092828,0.032508769416809,-0.000958950840868,-0.0006094761192798,0.0010545612312853
6.818345947265625,-0.0051068946849554,0.0020755550318863,0.0501695137917995,-0.0005781080690212,-0.0013466039672493,-0.0005195884732529
6.828326904296875,-0.0021898564607836,-0.0023831140105612,0.0495692098110914,-0.0001024674857035,0.0017988551408052,-0.0006737854564562
6.83830810546875,-0.0126024563384242,-0.0039479613076429,0.0524094016730785,0.0007667602039873,0.0008410513401031,-0.0004963418468832
6.8482880859375,0.0026287045357748,0.0003701576197985,0.0329541750967502,0.0012109754607081,0.0011987136676907,0.0010741242440417
6.85826904296875,-0.0049933695741929,0.0028774185998365,0.04567395593822,0.0024584750644862,-0.0028955964371562,-0.0029789516702294
6.868249755859375,-0.0088195402662269,0.0093928009763825,0.0378933850646018,0.0028944346122443,-0.0005916953086853,-0.0003714505583047
6.87823095703125,-0.0016890855981037,0.0028798297526314,0.0392383699327707,0.0022629257291555,-0.0006485003978013,-0.0015994490822777
6.8882109375,0.0004201433745212,0.0005407192805781,0.0328039529711008,-0.000611690338701,-0.0004636766389012,0.0016666516894474
6.898192138671875,-0.0033807650120928,0.0018702143186703,0.0392383699327707,0.000128511339426,-0.0013474533334374,-0.0017808135598897
6.908173095703125,-0.0031536417253315,-0.0023732045379001,0.0314595526248216,-0.0001117057399824,-5.02271577715e-05,0.0001369286619592
6.918153076171875,-0.0055294857448898,-0.004344815138122,0.0340039764106273,-0.0038831774145364,-0.0005725743249058,0.0016516095492988
6.928134033203125,0.0024732947783544,-0.009608352556359,0.0410357747435569,-9.58959572017e-05,0.0014636786654591,0.0005740945925936
6.938114990234375,-0.0065466999634169,0.0027650077339261,0.0359475116938352,-0.0027509834617376,-0.0001910403370857,-0.0001984882110264
6.948094970703125,-0.010658811457362,0.0057156468336004,0.0426800348192453,-0.002001570072025,0.0021024737507104,-0.0001401649788022
6.958076171875,-0.0093239095917902,-0.0045249026790726,0.0405839393228292,-0.00041051779408,-0.0007194252684712,-0.0026635504327714
6.96805712890625,-0.0008407434067688,-0.0028485669646877,0.0389385102033615,0.0010688682086765,0.0007562320679426,-0.0014060058165341
6.978037109375,-0.002684562908858,-0.0060027110135182,0.0384919354796409,-0.0011656313436105,-0.0026272106915712,-0.0003574852598831
6.98801806640625,-0.0069355166179127,0.0034960162890609,0.0449292750507593,-0.0006867949850857,-0.0008034780621528,-0.0011186166666448
6.9979990234375,-0.0166804463670589,0.0011212773812003,0.0420867451012134,0.0025715613737702,0.0006302976980805,0.0002573656965978
7.00797900390625,0.0002377360123209,-0.0004606854474637,0.0383440514415502,0.0031936760060489,-0.0006597368046641,-0.0007357270224019
7.0179599609375,-0.0041111251132562,-0.0035243290680926,0.0408896442711353,0.0004155054921284,-0.0004373220726847,0.0004123405669815
7.027941162109375,0.0047495691472664,-0.0023944299890194,0.0323603008568286,0.0003603780642151,0.0016356818377971,0.0019540444482117
7.03792138671875,0.0004306282359175,-0.0025018450194038,0.0227805716067552,-0.001026067067869,0.0007137190550565,0.0007087544072419
7.04790185546875,-0.0008018909674137,-0.0036213231691624,0.0287625686258077,-0.0027627144008874,0.0039175013080239,-0.0005352081498131
7.057883056640625,-0.0011977218845859,-0.0022258776222355,0.0413309582978487,-0.0019051544368267,0.0011353744193911,-0.0011149292113259
7.06786328125,-0.0065049431809224,0.0013312303374521,0.0329518370091915,-0.0018180690240114,0.0018283296376466,-0.0006462128367275
7.07784423828125,-0.0141267067636363,0.0011498184890951,0.0374415496438741,0.000483241979964,-0.0004228232428431,-0.0007818818558007
7.0878251953125,-0.0063545383921824,0.0070640657678712,0.0320551804304122,-0.0016997511265799,0.0007255319505929,-0.0021102665923535
7.09780615234375,-0.0071735448911786,-0.0009984638522844,0.0369967284858226,-0.0006545245996676,-0.0019758529961109,-0.0003656918415799
7.1077861328125,7.74308840744e-05,0.0005979110942222,0.0455295790314674,-0.0011440136004239,-0.000270364806056,-0.0011894075432792
7.11776708984375,-0.0071816916650161,-0.0001643237162381,0.040742929276824,5.0619710236e-06,-0.0008370475843548,-0.0028552475851029
7.127748046875,-0.0070113218004815,-0.0059789100128225,0.0458335304141044,0.0009137325687333,4.4192187488e-05,0.0013972879387438
7.137728271484375,0.0039205344446003,-0.0010212876054458,0.0380541285842657,0.0003772928612306,0.0007661739364266,-0.0008501916890963
7.147709228515625,-0.0033938802219927,-0.0047621272347401,0.0403021997720003,0.0017703924095258,-0.0016676886007189,0.0011919202515855
7.157690185546875,-0.0076285038507543,-0.000875467660278,0.0341693961054086,0.001979075372219,-0.0004583336412906,0.0013428796082735
7.167670166015625,0.0044945166739635,0.0002101173530332,0.0376093074262142,0.0005212610121816,0.0002162447199225,0.0009657759801484
7.177651123046875,-0.0083372183756902,-0.0004677271096035,0.0450929411798715,-0.0001393915154039,-0.0002857316285371,-0.0019671195186674
7.187632080078125,-0.0025361674141138,-0.0066167786580976,0.0383586644887924,-0.0015516658313572,-0.0007347408682107,-0.0013343525351956
7.197612060546875,0.0004134213727898,0.0043788635381963,0.034317864665389,6.62808306515e-05,0.0021564466878771,0.0020002780947834
7.20759326171875,-0.0098334665491245,-0.0006402249991428,0.0420972664952278,-0.0022898176684975,-0.0007160389795899,-0.001927085686475
7.21757421875,0.0053902964699082,0.0049806562230922,0.0394084658026695,-0.0031782891601324,-0.0005854973569512,-0.0007537140045315
7.227553955078125,0.0036756197728216,0.0005055749019607,0.0320773922622203,2.01672082766e-05,0.0002059945836663,-1.76162866409e-05
7.23753515625,0.0001523410174995,-0.0028616365088149,0.0380634809345006,-0.0001528310822322,-0.0019317781552672,-0.0027561546303331
7.24751611328125,-0.002358089167159,-0.0002420194617938,0.0373199690908193,-0.0009184899390675,-0.0012100618332624,-0.0015971468528732
7.25749609375,0.0068091502918861,0.0031806027974933,0.035823008531332,0.0019568931311368,0.0002681072801351,8.1352773122e-06
7.267477294921875,0.0006952887877821,0.0049997810486704,0.0425572852224111,0.0023475792258977,-0.0005425587296485,0.0001479512429796
7.277458251953125,-0.0079363459572196,0.0071479263927321,0.0431529130280017,-0.0015119257150217,0.0003585647791624,-0.0007029201369732
7.28743798828125,-0.0090983206749893,-0.0041040651848074,0.0338765506386756,0.0004465628881007,-0.0020814230665564,-0.0016315644606947
7.2974189453125,0.000106748310104,-0.0045387942071072,0.0350748205125331,0.0016548377461731,-0.0003641508519649,0.0021140289027243
7.307400146484375,-0.0147626665796153,0.0047231103986036,0.0367202496320009,0.0004572140751406,0.0015272265300154,-0.0002263570349896
7.317381103515625,-0.004204265023116,0.0044029933324549,0.0349234293431043,-0.0023231552913784,0.0006656916812062,-0.0007310614455491
7.327361083984375,0.0024878530266694,0.0078469597738701,0.0329804785817861,-0.0016405872302129,-0.0013641696423292,-0.0017827437259256
7.33734228515625,-0.0052273244605399,-0.0054130654241424,0.0407604649335145,-0.000631961680483,0.0025274632498621,0.0001965462579391
7.3473232421875,-0.0060800505660474,-0.001286322616646,0.0353705885887146,2.71706376224e-05,-0.0013756658881902,0.0003944191266782
7.357302978515625,-0.0055806314102374,-0.0026492997992318,0.0353717576324939,-0.000193273415789,0.0010484959930181,0.0016830739332363
7.367283935546875,-0.002953497777041,-0.0034347236890345,0.0322317060410976,-0.0002611840027384,-0.0010753748938441,-0.0009563850471749
7.37726513671875,-0.0042527620736509,-0.0068849098086822,0.0486930114984512,9.61497426033e-05,-0.0002517271786928,0.0010543991811573
7.3872451171875,-0.010766600947082,-0.0032275015459861,0.0293932677447795,-0.0026676789857447,-0.0012307045981287,2.45548435486e-05
7.39722607421875,0.0023199308475479,-0.002172165540466,0.0368780705422163,0.0003885896876454,0.0011020908132195,-0.0002211189130321
7.407207275390625,-0.0021934183910489,-0.0010737667113542,0.0380745868504047,0.0013635730138048,-0.0018468275666236,-0.0008464291458949
7.41718701171875,-0.0099897165567614,-0.0021802483822219,0.0391238036423921,0.0008340983185917,-0.0008248444646596,-0.0006400392157956
7.42716796875,-0.0057490467797033,-0.0057416580576915,0.0371808528810739,-0.0023206821642816,-0.0007478790357708,-6.29322021268e-05
7.43714892578125,-0.0016796419163234,0.0009472907874733,0.0389776731699705,-0.0009538115700706,-0.0005720639601349,0.0012664215173572
7.44712939453125,-0.0074558872302062,0.0022233842710498,0.0334352366119623,-0.0001729726791381,0.0024490263313055,-0.0007754240650683
7.457110107421875,-0.0072839647294022,0.0036817937852814,0.0443593662083148,-0.0006613188306801,-0.0006728181615471,0.002194388769567
7.467091064453125,0.0050070510396733,0.0012712894442956,0.0395750545412302,-0.0016626673750579,-0.0013873437419533,-0.0003294889174867
7.477071044921875,0.000243325502891,-0.0076490169158205,0.0355342547178268,0.0005785768153145,-0.001066330820322,-0.0027196682058274
7.48705224609375,-0.0029713439609855,-0.0043774935650173,0.0383797072768211,-6.03155931457e-05,-0.0002849586308002,-9.13944386411e-05
7.497033203125,-0.0024795601223595,-0.0017847462586127,0.0421224009364843,0.0012480353470891,-0.0003131693229079,0.0007354389526881
7.50701318359375,0.0049076823184266,-0.0048697431945241,0.0392798709869384,0.0002536110114306,0.0003219945356249,0.0007990885642357
7.516994384765625,0.0038592692440375,0.0033048958974424,0.0332931977927684,-0.0002709085238166,0.0005798647180199,-0.0004029102856293
7.526975341796875,0.0032470921624451,-0.0044589613033924,0.0437672455340623,0.0016135441837832,-0.0002885926514863,-0.0003704197297338
7.536955078125,0.0026390250003896,-0.0023402886489871,0.0451139839679002,-0.001298107439652,9.40216705203e-05,-0.0003835230018012
7.546936279296875,-0.0003775646081194,0.0016329532303847,0.0306020590126514,-0.0004339116858318,-0.0029845926910638,-0.0004351883253548
7.556917236328125,-0.0015858078867197,0.0091624080203007,0.0279079976230859,0.0021913941018283,0.0005835546180605,-0.0011845523258671
7.566898193359375,-0.0072466831926256,0.0030220238354522,0.0403267496913671,0.0010859161848202,-8.19694250822e-05,-0.001713456120342
7.576878173828125,0.0029244360793381,-0.0022641455397009,0.0484077648162841,-0.0013834774727001,-0.0036245305091142,-0.0016780534060671
7.586859375,-0.0049353557766415,-0.0022505006068386,0.0412251598358154,0.0012684983666986,-0.0012300824746489,-0.0010719179408624
7.596840087890625,0.0093714385279454,-0.0003812635357026,0.0347919119179248,-0.0007358529837802,0.0001400839537382,-0.0009921529563143
7.606820068359375,0.005094948518835,0.0019108020573854,0.0346446124017238,-0.0017142982687801,-0.0007784403860569,-0.0028161518275737
7.61680126953125,-0.0007687924154102,0.0020268753182608,0.0368920990675687,-4.42786840721e-05,-0.0016600731760263,-0.0017344750231131
7.6267822265625,0.0037688144816085,0.0049559601732529,0.0406377153366804,0.0002268311800435,-0.001505609601736,8.65944602992e-05
7.63676220703125,0.0018504501722753,-0.0067746635003946,0.0349526554375886,-0.0017766014207154,0.0004934631288051,0.0012593118008226
7.646742919921875,0.006215787508618,-0.0025640874675009,0.0285188229978084,0.0006977415177971,-0.0020312136039137,0.0006228162674233
7.65672412109375,-0.0031296763278543,0.0048058111128397,0.0403431163042783,0.0003927703946828,-0.0017153630033135,-0.0011486900039017
7.6667041015625,-0.0038959114599972,-0.0059357558576855,0.0439385104477405,-0.0021843705326318,-0.0005110818892717,0.0006864944007247
7.67668505859375,0.0045696460030972,0.0003816562613472,0.0238870715439319,-0.0010809318628162,-0.0005627376958727,-8.30912031233e-05
7.686666259765625,0.0008597769008018,0.0008594481072388,0.0473848515093326,-0.0011656204005703,0.0004007937386631,-0.0012703284155577
7.696646240234375,-0.0096428210815414,-0.0050279111646115,0.0363104997873306,0.0006046688649803,-0.0016263481229543,0.0023229885846376
7.706626953125,0.011614650877472,0.0007680160972755,0.0328676658570766,0.0023999055847525,0.0010426715016365,0.0001485176908317
7.71660791015625,-0.0013914360920898,-0.0050992685009259,0.0410965650200843,-0.00022364850156,-0.0001759147271513,0.002284332178533
7.726588134765625,-0.00549766583452,0.0049612574028782,0.036753567379713,-0.0005666636279784,0.0002760235220193,0.0011066822335124
7.736569091796875,0.0008942088933661,0.0063995739771518,0.0304687880218029,0.0005151686491444,0.0041068475693464,-0.0023717475123703
7.746550048828125,-0.0042883448436856,-0.0004576441070064,0.0289718274623155,-0.0025860825553536,0.0015406254678964,0.0003963422495871
7.756530029296875,-0.0023084413391537,0.0018965634694788,0.0345078342795372,0.0021662227809429,-0.0007138270884752,-0.000135392328957
7.766510986328125,-0.0080970529442653,0.0018376637559384,0.0410918888449668,0.0008271853439509,-0.0014171674847602,-0.0029072104953229
7.776491943359375,-0.0036600203448906,-0.0073369552919641,0.0360053793609142,-0.0021704516839236,0.0014720577746629,-0.0016292841173708
7.78647314453125,0.004040014372114,-0.0074120572216343,0.0355552975058555,-0.0001571018947288,0.0007593957707285,-0.0007674852386116
7.796453125,-0.0007690116111189,0.0006672774028498,0.0517155741900205,0.0024663237854838,-0.0005902927368879,0.0012277611531317
7.80643408203125,-0.0037202808984555,-0.0081379968760069,0.0419932215988636,0.0008673617849126,-0.0009948275983333,0.0002152274246327
7.8164150390625,0.0083865191438235,0.002304386218544,0.0488765513718128,-0.0011376278707757,-0.0008288836106657,-0.0010379306040704
7.82639501953125,0.0059540678325109,0.004400947505841,0.0318219561964273,-0.0017517528031021,-0.0005511166527867,-0.0001953064784174
7.8363759765625,0.0127713466319255,-0.0034256635997444,0.0358627560198307,-0.0013768916251137,-0.0022238213568925,-0.0022977062035351
7.84635693359375,0.0030607027448713,0.0018346406817901,0.0382569576799869,-0.0017569246701896,0.0002587772905826,-0.0021246005780994
7.856337158203125,-0.0005114931860938,0.0071053567594848,0.0433446362078189,-0.0010625442955642,-0.0008559981361031,0.0018933296669274
7.866318115234375,0.0012879391849972,0.0027535456249956,0.0416986225664615,0.000794211635366,-0.0002421392127871,0.0009865234605967
7.876299072265625,-0.0088868333487771,-0.0023885573706589,0.0411041638046503,0.0001653655199334,-0.0015240805223584,-0.0014361867215484
7.886279052734375,-0.0022571130107156,-0.0013505743587389,0.0351180751323699,0.0022394354455173,0.0012149801477789,0.0002440015377942
7.89626416015625,0.0007850311641581,-0.0033646723938174,0.0422977575033903,-0.0011217009741812,0.0011601103469729,0.0012514009140431
7.9062451171875,-0.0007307071610353,0.0006385444987099,0.0406499902963638,0.0030847620218992,-0.0014870716258883,0.0021270483266562
7.916225341796875,-0.0061840771961025,-0.0007128427107818,0.059057169124484,-0.0001331355888396,-0.000605035573244,0.0026612679939717
7.926206298828125,-0.0067418389430269,-0.0014288272267207,0.034963176831603,0.0011513071367517,-0.00042340811342,-0.0007188160088844
7.936187255859375,-0.0031831235481426,-0.0066972691489383,0.0352618675172328,0.0030371374450623,-4.4796615839e-06,-0.0014256335562095
7.946167236328125,0.0010939327165484,0.0010374350226484,0.0436421578496694,-0.000799146015197,-0.0013925191015005,-0.0002810069418046
7.9561484375,0.0067125945822335,0.0084408979458734,0.0375081851392984,0.0005789690185338,0.002195818349719,-0.0005242753541097
7.966129150390625,0.0012993373618461,0.0090551208540797,0.028976503637433,-0.0011419656220823,-0.0004212697967886,-0.0020718381274491
7.976109375,0.0052481845854781,0.0051473636926617,0.0382552041143178,-0.0007946384721435,0.0008434252813458,0.0011200365843251
7.98609033203125,-0.0012330123936757,-0.0020062252558767,0.0403489615231752,-0.0005791887524537,0.000791760161519,0.0011093840003013
7.996071533203125,0.0086270499014295,-0.0058049782180227,0.0390010540455579,-0.0002228212542831,-0.0004293853417038,-0.0003540591569617
8.00605126953125,0.004845083677303,-0.0026329423194751,0.0343611192852258,-0.0004374720156192,0.0021602725610136,-0.0001993295154534
8.0160322265625,-0.0113711061788722,-0.002677119387919,0.0397457349330186,0.0021277596242725,-0.0019681081175804,0.0019548013806343
8.026013427734375,0.0012592062808573,-0.0069634366712998,0.0343593657195568,-0.0014848184073343,0.0010042460635304,0.0004290765500627
8.035994384765624,0.0079538816139101,0.0004269475746434,0.0388473247885704,0.0021959317382425,0.0009532840922474,-0.0009654472232796
8.045974365234375,-0.0002638751005753,0.0001337733143474,0.0388473247885704,-0.0011894786730408,0.0001796353608369,0.0011163457529619
8.055955078125,-0.0056916905692778,-0.0093549440508708,0.0289759191155433,-0.0001895773457363,0.000109220854938,-0.0003977738670073
8.065936279296874,7.87460583262e-05,0.0079115859752986,0.0244879600465297,0.0023034077603369,-0.0001176800578832,0.001304785022512
8.075916259765625,0.001339504975453,0.005236348017212,0.0402010774850845,-0.0007248052861541,-0.0024482440203428,-0.0001591370964888
8.085897216796875,-0.0003285195683129,0.0025609913281165,0.035265374648571,0.0013141107046976,-0.0017142770811915,0.0015801733825355
8.09587841796875,-0.0085900788919068,-0.0062658371954225,0.0390086528301239,-0.0011227309005334,-0.0023477878421545,0.0029924528207629
8.1058583984375,-0.0077014046901836,0.0012380904275923,0.050086511683464,0.0013891626149415,0.0006040595471858,-0.0028262876439839
8.115839111328125,0.0024951047513633,0.0055761926971375,0.0318295549809932,0.0010432713897898,-0.0008625527843832,-0.0002658177400007
8.1258203125,0.0048255569929257,0.0026614560279063,0.0346732539743185,0.0005242213374003,0.0004538483917713,0.0008013108745217
8.13580029296875,0.0086115783376619,0.0036404753942042,0.0376630834400653,-0.0001779341837391,-0.0001183077692985,-0.0003778006648644
8.14578125,0.0024273002121597,0.0001433996592182,0.0294295081019401,-0.0012280185474082,0.0010838434100151,3.8302969187e-06
8.15576220703125,-0.0085571630029939,0.0068201100773178,0.0370621949374675,-0.000895935925655,-0.0014134841039776,0.0006435530958697
8.165742431640625,-0.0023731588721275,0.0034338377730455,0.0430512062191963,-0.0012240373762324,0.0021338472142815,-0.0002848248695954
8.17572314453125,-0.0038547026667743,0.0037718375557567,0.023448680126667,0.0022864425554871,0.0002264101058244,0.0016810053493827
8.1857041015625,0.0006322882878594,0.0011945983457379,0.0351204132199287,0.0014624603791162,0.0010139066725969,0.0024024557787925
8.19568408203125,-0.0007841178487055,-0.0049607733456883,0.0372170932382345,-0.0013514250749722,0.0012058885768055,9.97518945951e-05
8.205665283203125,-0.0010748992225155,-0.003374225673452,0.0385585709750652,-0.0015708694700151,0.0103557109832763,0.0344012640416622
8.215646240234374,0.0127625605372712,0.0103201906201429,0.0310994871407747,0.0005086618475615,-0.024520318955183,-0.0396685972809791
8.225626220703125,0.003445281615667,-0.0026335359745193,0.0408101492941379,-0.0026256125420331,0.0179768074303865,0.0458955690264701
8.235607177734375,0.009625340223778,0.0007809760435484,0.035295185264945,0.0014907120494171,-0.0183865595608949,-0.0478681549429893
8.245588134765624,-0.0089002773522399,-0.0174690668609458,0.0460462963819503,0.0017855240730568,0.0141431549564003,0.047605637460947
8.255568115234375,0.0056362157886847,0.0110225119369104,0.0334954423666,0.0008062602719292,-0.0104675833135843,-0.0467539839446544
8.265549072265625,-0.0022993629835546,-0.00362030938901,0.0402034155726432,-0.0002254483988508,0.0106883011758327,0.0465104468166828
8.2755302734375,0.0014927410420961,0.0017666808789595,0.0396264924675226,0.0013704564189538,-0.0090479655191302,-0.0485662966966629
8.28551123046875,0.0021707864341326,0.0025244039110839,0.0422995110690593,-0.0003512772964313,0.0092559400945901,0.0471594296395778
8.295490966796875,-0.0082475855971686,0.0045676915080286,0.0303518836438655,0.0013859880855306,-0.0085188979282975,-0.0437938943505287
8.30547216796875,0.0046082244478166,-0.0075784998297225,0.029133155503869,-0.0009152492857538,0.0083945710211992,0.0444371663033962
8.315453125,-0.000882025265228,-0.0006588201017584,0.0288549230843782,0.0041579869575798,-0.0060745463706552,-0.04495744779706
8.325433349609375,0.0015069522305391,-0.0043093419659417,0.033769583132863,0.0012703215470537,0.0063813235610723,0.0465365163981914
8.3354140625,-0.0046622196573764,0.0033756595787126,0.0348410117566585,-0.0001852199202403,-0.0041853324510157,-0.0457265190780162
8.345395263671875,0.0072506652479991,0.0013053835101425,0.0370604413717985,-0.0030281443614512,0.005636672489345,0.0437122844159603
8.355375244140625,-0.0027753281985409,-0.0028597550789825,0.0361859966248273,-0.0001973197213374,-0.0043452614918351,-0.0433877930045127
8.365356201171876,0.0048579431588761,-0.0046125900956802,0.0493301403582096,-0.0016969456337392,0.0023994604125618,0.0422413572669029
8.375337158203125,-0.004308930973988,-0.0092417386005166,0.0340916546940803,0.0002163228346034,-0.0037031848914921,-0.0405230745673179
8.3853173828125,0.0063232847373932,1.54715637676e-05,0.0406540819495916,-0.0006382855353876,0.001377860084176,0.0406359583139419
8.39529833984375,0.0077223561466671,0.0030251382411457,0.0424725295484066,0.0014112832723185,-0.0015233876183629,-0.0414141677320003
8.405279541015625,0.0006082315588369,-0.0029832261950243,0.04185059825778,-0.0005767664988525,0.0030897399410605,0.0391624309122562
8.41525927734375,-0.0023683365665376,0.0017208963753189,0.042475452157855,0.001958277542144,-0.0008665863424539,-0.0388693511486053
8.425240234375,-0.0045701574597507,-0.0004149283432867,0.0430500371754169,-2.0752195268e-06,0.0013169394806027,0.0369742773473262
8.43522119140625,-0.0001748633765615,-0.0029489677323959,0.0427706357121467,0.0021339077502489,0.0008611194789409,-0.0381800979375839
8.445201416015625,0.0043161096334457,0.0062408397514838,0.0422960039377212,0.0009274957701563,-0.0009604822844266,0.0358443297445774
8.455182373046876,-0.0066378123129718,-0.0006826850345358,0.0313929171293973,0.00018508778885,0.0031437994912266,-0.0366653501987457
8.465163330078125,-0.0004074117571115,-0.0075708097136113,0.0389928707391023,0.0018772603943943,0.0011943653225898,0.035927090793848
8.47514306640625,-0.0039182328896597,0.0033818975232541,0.0321335063636302,-0.0015652268193662,1.33560970425e-05,-0.0365439318120479
8.485124267578126,0.0035614188086241,-0.0061125006640795,0.0410901352792978,-0.0007865185616537,-0.0020471317693591,0.0340340994298458
8.495105224609375,0.0004269201751798,0.0006815342570655,0.0351245048731565,0.0035851260181516,0.004047742113471,-0.0314901284873485
8.505085205078124,-0.0013862667266279,-0.0054336880870629,0.0437795204937458,-0.0049732085317373,-0.002379797399044,0.0335144400596618
8.51506640625,-0.0094123185276053,0.0025190701488405,0.0423059408098459,0.0011745137162506,0.0010301992297172,-0.0320241525769233
8.52504736328125,-0.0040409459538757,-0.0037767968586646,0.0383931512802839,-0.0002074004733003,-0.0036814655177295,0.0302765071392059
8.535027099609374,0.0037447577525861,0.0005207724710926,0.0295873290121555,-0.0011352433357387,0.0052647041156888,-0.030375575646758
8.545008056640626,0.0028895474290475,-0.0032836339137051,0.0529085833668708,0.001093023456633,-0.0054143057204782,0.0300334393978118
8.5549892578125,-0.0028763408876024,0.0105746220389381,0.0394651644259691,-0.0007328969659283,0.0041260113939642,-0.0308149699121713
8.56497021484375,0.0039063049898482,-0.0132591849477961,0.0377986925184726,1.6029225662e-06,-0.0068318308331072,0.0263500474393367
8.5749501953125,0.0072526745419949,-0.0042951033780351,0.0379717109978198,-0.0003371580969542,0.006052503362298,-0.029602913185954
8.584931396484375,-0.0053768889990635,-0.0011668883549049,0.0467787023097276,-0.0002316969330422,-0.0039985324256122,0.0211412236094474
8.594912353515625,-0.0281170737965032,-0.0060259366254787,0.0388537545293569,-0.0014715219149366,-0.0015090424567461,-0.0134523902088403
8.60489208984375,0.015660547001101,0.0012963782197795,0.052169747698307,0.0013000298058614,0.001193000935018,0.0041899867355823
8.614873046875,-0.0002337539569474,-0.0010054233160335,0.0412479561895132,0.0020522917620837,-6.54254108667e-05,-0.0059709791094064
8.624854248046875,-0.0004770977261476,0.0003160071466118,0.0378027841717004,0.0003614507149904,0.0016661621630191,0.0020752293057739
8.634834228515626,-0.00897239274038,0.0084503690271172,0.0387023633599281,-0.0017573027871549,0.0007935119792819,-0.0015684763202443
8.644815185546875,-0.0016753128010779,0.0061535450605209,0.0333136560589075,0.0004701650468632,-0.0006539160385727,0.0004957398050464
8.65479638671875,-0.0008936243714764,0.0028991646407637,0.0434895976364612,0.001730230404064,0.0001802193000912,1.07286032289e-05
8.664776123046876,-0.0028854557758197,0.0037094855098053,0.0404980146050453,0.0006782818818464,-0.0014126170426607,-0.0004739667056128
8.674757080078125,0.0025398389422334,-0.0071061787433922,0.0422936658501625,0.0010124841937795,-1.84690579771e-05,-0.0014017214998602
8.68473828125,-0.0023236023756675,-0.0038489031136501,0.044539983472228,-0.00060298939934,0.0017559956759214,0.0001200088008772
8.69471826171875,-0.0002800773167051,-0.0073652132720686,0.0391495226055383,0.0004894306184723,0.0006394973024725,0.000219895155169
8.70469921875,-0.002221201447118,0.0059393451874144,0.0389998850017786,0.000571455922909,-0.0013789124786853,-0.0001364357740385
8.71468017578125,-0.0052994763812981,0.0017932492254767,0.0397539182394742,-0.0022574109025299,-0.0012019108980894,0.0021500368602573
8.724660400390626,-0.0013933175219222,-0.0006762187611311,0.0485837059050798,-0.0005228942027315,-0.0005909809842705,-0.0018769289599731
8.734641357421875,0.0099866478168405,0.0023174100968986,0.0339192207366228,-0.0010078072082251,2.484768629e-06,0.0001705365139059
8.7446220703125,0.0040326530495658,-0.0033081746999174,0.0464940401494503,0.0007325685583055,-0.0004593068733811,0.0002773292944766
8.754602294921876,0.0038254400396719,0.0020282544245943,0.0301812032520771,-0.0002228980883955,0.0002127429470419,-0.0026245191693305
8.76458349609375,0.0041864371054805,0.0009562686783727,0.0418511827796697,0.0005960239795967,0.0018551144748926,-0.0019744413439184
8.774564453125,0.0014594050280749,-0.0005457425155676,0.0416992070883512,0.0033374801278114,4.52259555459e-05,0.0008928542956709
8.784544189453126,-0.0018166027016006,0.0022205347268376,0.0367605816423892,-0.0022868495434522,-0.0006136400625109,0.0010473176371306
8.794525390625,-0.0033146044407039,-0.0003221811590716,0.0328717575103044,0.0005713928258046,0.0001702485606074,0.000301387917716
8.80450634765625,0.0070751990832388,0.0082149254365824,0.0499286907732486,4.35542315244e-05,0.0015891809016466,0.0026846507098525
8.814486328125,-0.0022528021617792,0.0049934700388927,0.0458878909498453,-0.0013597183860838,-0.0004469044506549,0.0023103591520339
8.82446728515625,0.0056451297475025,-0.0028272501820232,0.0255400994479656,-0.0001445179805159,-0.0007228078320622,-0.0013767873169854
8.834448486328125,0.0013040500695817,1.85403036884e-05,0.0394563965976238,0.0013874239521101,-0.0011486979201436,5.30728721059e-05
8.84442919921875,-0.001826795302052,0.0087273502044379,0.0424491486728191,0.0003493237309157,-0.0012072874233126,0.0013364502228796
8.8544091796875,-0.0012191482651047,0.0020236787141766,0.0461930113762617,-0.0032699396833777,-0.0005544340237975,0.0019913492724299
8.864390380859374,0.0086347400175407,-0.0018776395733002,0.0405067824333906,-0.0006528511294163,0.0023185843601822,0.0003825336752925
8.874370361328126,0.0082923928532749,0.0030051731653511,0.0286830736488103,0.0002121947472915,-0.0003239167854189,0.0009369760518893
8.884351318359375,0.004035484327469,0.0055263348065782,0.040207507225871,-0.0014642651658505,-0.0006410991773009,-0.000430823478382
8.894328369140625,0.0020539916540496,0.0021801844501402,0.0445481667786836,-0.0007532001473009,0.0004202211275696,0.0014528213068842
8.904309326171875,0.006375197587721,0.0070379175464622,0.039012159961462,-0.0018187309615314,-0.0022615818306803,0.0003454789693932
8.914289306640624,0.0069674095935188,0.0032601251739542,0.042906244790554,-0.0009686420671641,-0.001662353053689,-0.0008459780947305
8.924270263671875,-0.0048729397986084,0.0028319080908317,0.0414122068405151,-9.45925712585e-05,-0.0015576910227537,-0.0006821936694905
8.934251220703125,-0.0009005107699893,0.0038210287260357,0.0382721552491188,0.0007944373646751,-0.0013239849358797,0.0008645471534691
8.944231201171876,-0.0014429288173094,0.0036127197375986,0.0417138201355934,0.0002687294036149,-0.0029618293046951,0.001336725661531
8.95421240234375,-0.0076750281399115,-0.0003791355106979,0.0364770885258913,0.0017742962809279,0.0002770414575934,0.0009205729002133
8.964193359375,-0.0006563998158089,0.0020797197503503,0.0286965176522731,-0.0005138918058946,0.0007138000801205,4.7117646317e-06
8.974173095703126,-0.000290434313938,-0.0006045143649447,0.0333335298031568,0.0003513731062412,0.0013774270191788,-0.0004511718871071
8.984154296875,-0.000609638064634,-0.0016737510316539,0.0451549005001783,-0.0003999046166427,-0.0004095537588,8.41234868858e-05
8.99413525390625,0.0065831777825951,-0.0081025967690628,0.0391711499154567,-0.0013697202084586,0.0001054648309946,0.0022590465378016
9.004115234375,0.0066119654856622,0.0004150744737591,0.0412666608899831,-0.0011406883131712,0.000490291044116,0.0009066932834684
9.01409619140625,0.0021020868457853,-0.0015975805229041,0.0309387436211109,-0.001422906294465,0.0011916887015104,-2.54903861787e-05
9.024077392578125,-0.0032041115372441,-0.0060523862409871,0.040364159092307,0.0011145536554977,-0.0006224568933248,-0.0016585406847298
9.034057373046876,0.0068724613190628,-0.006256685774587,0.0369224942058324,-0.0003979602479375,0.0013501420617103,-0.0023119440302252
9.0440380859375,0.0038366738197393,0.0017782525857444,0.0376689286589622,0.0011101878480985,-0.0009582852944731,-0.0005132452351972
9.054019287109377,0.0050304501815699,0.0012698372727259,0.0381184259921312,-0.0011942174751311,-0.0013723894953727,0.0010396840516477
9.06399951171875,-0.001050805960875,-0.0033355376308783,0.0414110377967357,0.0003522802144289,-0.0006975447759032,0.0008295606239698
9.07398046875,-0.000597509235423,-0.0007467815130017,0.040813656425476,-0.0011995946988463,-0.0005654040724039,0.0017029386945068
9.08396142578125,-0.0007913330407813,-0.0063940301523543,0.0421592258155345,-0.0001393903512507,0.0006125122308731,-0.0016632969491183
