seconds_elapsed,ax,ay,az,gx,gy,gz
0.078067138671875,-0.0112175778512842,-0.0040608379644341,0.0516670588731765,-0.0004695275565609,-0.0029715886339545,-0.0015533794648945
0.0880458984375,1.37727970257e-05,0.0003945522755384,0.0497217700242996,0.0027877469547092,0.001550386659801,0.0005925347795709
0.098025146484375,0.0095682214753702,-0.0031457689461298,0.0331119960069656,0.0018646954558789,-0.0013300888240337,4.4988861191e-05
0.108004150390625,0.0019745149433612,0.0018730455965735,0.0364063613772392,-0.0001019554329104,-0.0006037959828972,-0.0002187189820688
0.117983154296875,-0.0040426629869267,-0.0026113515421748,0.0405956297606229,-0.0011014398187398,-0.0009065978229045,0.0006289652083069
0.127962158203125,-0.0059412631498649,-0.0028804325408302,0.0470323848098516,-0.0013001488987356,-0.0014968272298574,-0.0001286655315198
0.137941162109375,-0.0024753771375864,-0.0041797699026763,0.0482312392055988,0.0008319778717122,-0.0001322235912084,0.0003190118295606
0.147920166015625,0.0067959072178229,-6.56491147354e-05,0.0509258851170539,-0.000459216767922,-0.0003985865041613,0.0012539043091237
0.157899169921875,0.0009322028161957,0.0022471396059729,0.0431488213747739,0.0003109693643637,-0.0020532086491584,0.0001066144759533
0.167878173828125,0.0091689382257871,0.006811871971935,0.0563157614618539,9.65849612839e-05,-5.79683110117e-05,-0.0016710759373381
0.177857177734375,0.0127201644339598,0.0096095398664474,0.0563163459837436,0.0013642497360706,0.0009649517014622,-0.001642313785851
0.187836181640625,0.0070956390830688,0.0137792085002176,0.0404524218976497,-0.0022375429980456,0.0002202102914452,0.0005089440965093
0.197815185546875,0.0049020928278565,0.0020115772844292,0.0564642300218343,-0.0033672559075057,-0.0021880865097045,0.0008005602285265
0.20779296875,0.0023969233402051,-0.0009268142550252,0.0564694907188415,0.000552172830794,0.0012244405224919,-0.0034691577311605
0.217771240234375,-0.0013253851185552,0.0016810484221205,0.0494347697764635,0.0014171674847602,0.0004057846963405,0.0001942864910233
0.227750244140625,-0.0082457954988814,-0.009841247996781,0.042104280757904,-0.0003716940118465,-0.0019952012225985,0.0008846067939884
0.237729248046875,-0.0031207441027276,-0.0140080670863389,0.0427045847386121,-0.0002289486001245,0.0005113659426569,0.0006795433582738
0.247708251953125,-0.0074715049244463,-0.0106313571948558,0.039414895543456,-0.0003054197295568,0.0018042586743831,-0.0008638971485197
0.257687255859375,0.0071515522550791,-0.0153921966548077,0.0398597167015075,0.0012426758185029,0.0003304649144411,-0.0009355361689813
0.267666259765625,0.0021406835568137,-0.0082574676703661,0.0522808068573474,0.0026363846845924,0.000501318834722,-0.0024222459178417
0.277645263671875,-0.0009202201174572,0.0035491073163226,0.0459936894118785,-0.0024601065088063,-0.0016398625448346,0.0014510555192828
0.287624267578125,0.0046828423202969,0.000735803461261,0.0498866051971912,0.0021287288982421,-0.0002552596852183,0.0003991720150224
0.297603271484375,-0.0043478930111974,0.0071605027465149,0.0482429296433925,-0.0008212546817958,-0.0019546234980225,0.001059369649738
0.30758251953125,-0.0049988677332177,0.0053122079987078,0.0419593193292617,0.0018085590563714,-0.0006541777402162,-0.0006105718784965
0.317561279296875,-0.0012268201149068,0.0061118704764172,0.0448041873663663,-0.0024719396606087,-0.0007266150787472,0.002445138990879
0.32754052734375,-0.0037273316937498,-0.004986830235552,0.0463011479258537,-0.0012644624803215,0.0002592615783214,-0.0001331989478785
0.337519287109375,0.001065035415627,-0.0050226322012953,0.0495925906866788,-0.0004431436245795,0.0014254599809646,-0.0010783548932522
0.34749853515625,0.003760996501334,-0.0112880675379186,0.0482458522528409,0.0015621602069586,0.0016396017745137,-0.0019049701513722
0.357477294921875,0.0080905501382425,-0.0090475403358228,0.0501911411017179,0.0011296628508716,-0.0008712261915206,0.0014466180000454
0.36745654296875,0.0067503145104274,-0.0059469257056713,0.0476502244472503,-0.0025291978381574,-0.0019948128610849,0.0026185882743448
0.377435302734375,0.003983169618342,-0.0074616593838669,0.0477986930072307,-0.0021097499411553,-0.0013021249324083,0.0015687703853473
0.38741455078125,-0.0015946670466102,-0.0099152996136806,0.0482487748622894,-0.0005996414693072,-0.0018488243222236,0.0009256344637833
0.397393310546875,-0.0067177274150773,-0.0013051095155067,0.0549865586847066,0.0034454339183866,-0.001146282069385,-0.0004674650845117
0.407372314453125,0.0003394062885083,-0.0047300789955072,0.0373304904848337,-0.0005113957449793,-0.0003968207165598,0.0010817890288308
0.41735107421875,-0.002510229255259,0.0051108219414018,0.0506470681756734,0.0011525473091751,-0.0004580728709697,0.0011070891050621
0.427330322265625,0.0070808616390451,0.0119954486222937,0.0416693964719772,0.0001820345059968,0.0010064244270324,-0.0022536688484251
0.43730908203125,0.0060105837927199,0.0012065445118583,0.0358329454034566,-0.0006496707210317,-0.0012966776266694,-0.0015050540678203
0.447288330078125,0.0139771422251127,-0.0047389564217068,0.0409229620188474,0.0012646440882235,-0.0013354616239666,0.0009937868453562
0.45726708984375,0.0031005415649153,-0.0021759192669764,0.0448147087603807,0.0005522486171685,0.000783615745604,-0.0005314054433256
0.467246337890625,0.0117853678018786,-0.0070834189223125,0.0319429522275924,0.0013496023602783,0.0008554961532354,-0.0002692569396458
0.47722509765625,0.0128055959613993,0.0001459660756401,0.0510994881182908,0.0021413599606603,-0.0003804769366979,0.001405072514899
0.487204345703125,-0.0026513547590002,-0.0051885085538029,0.0514022704571485,-0.0007802998297847,-0.0001934757456183,0.0014012265019118
0.49718310546875,0.003518419917114,-0.0022481990518979,0.0431722022503614,-0.0002596518606878,0.0002318313345313,-0.0005042651901021
0.507162353515625,0.0041066316012293,-0.0044559747618623,0.0373334130942821,0.0016797771677374,0.0014326265081763,-0.0016522059449926
0.51714111328125,0.0065358497758395,0.0014120770213194,0.0409258846282959,-0.0011309229303151,-0.0006318567320704,-0.0007392743136733
0.527120361328125,0.0012723945559933,-0.0051666255155578,0.0496042811244726,-0.0008933544741012,0.0013987338170409,0.0011603676248341
0.537099365234375,-0.0005813252856023,-0.009042754562851,0.0512491257220506,-0.0008193185785785,5.09079545736e-05,-0.0023624617606401
0.547078369140625,0.0113100236414,0.0008244133264757,0.0469078816473484,-0.0021538562141358,-0.0013292897492647,-0.0008467038860544
0.557057373046875,-0.0065059295616112,0.0030163156138733,0.0464613069236278,0.0011934709036722,-0.0022917566820979,-0.0004283213056623
0.567036376953125,-0.0050934324151836,0.0037829708711244,0.0518465070933103,-0.0013271077768877,0.0042130853980779,-0.0004855091392528
0.577015380859375,-0.0016934147133491,0.0086650620905682,0.0464601378798484,0.0014593576779589,-0.0016037914901971,0.0014791048597544
0.586994384765625,-0.0040786658820696,0.0070618829439394,0.0458627565085887,0.0003932280233129,-0.0015237284824252,0.0036156310234218
0.596973388671875,0.0061103726390749,0.00441706752358,0.0463128383636474,-0.000588146795053,-0.0002781674265861,0.0021596809383481
0.606952392578125,0.0027968824432231,0.0065111902586184,0.0503548072308301,0.0033127753995358,0.001342169009149,0.0003277873911429
0.616931640625,0.003129219670128,0.0002998231967911,0.0404775563389062,0.0002320308121852,0.0007884977385401,-0.001055991044268
0.626910400390625,0.0054075946645811,0.0073460884464904,0.0493038368731737,0.000918902514968,0.0002473164349794,-0.0004487194819375
0.6368896484375,0.0054222442444413,-0.005803352516517,0.052151042997837,-0.0022222958505153,-0.0017916001379489,-0.00019784970209
0.646868408203125,0.0030622188485227,-0.0090307535978034,0.05604337426126,0.0017497562803328,-0.0006405804306268,-0.0001884117664303
0.656847412109375,0.0016526443115435,0.0008681976692751,0.0554500845432281,0.00267094373703,0.0019637243822216,-0.0013444899814203
0.666826171875,-0.0024990502741187,0.0016316015235148,0.0340524917274713,-0.000752120395191,0.0001958021894097,-0.0002699437900446
0.676805419921875,0.0051981166323646,0.0015209624895825,0.0395914211541414,0.0012734800111502,-0.0019033020362257,0.000261090521235
0.6867841796875,0.0033041013129986,0.0051877048362046,0.0476741898447275,-0.001141793327406,0.0010409904643893,0.0007288733613677
0.696763427734375,0.0081455317284911,0.0046567214983515,0.0410895507574081,0.0005495803197845,-0.0020765056833624,0.0012721582315862
0.7067421875,0.0068178085223771,0.0051487427989952,0.0404921693861484,-0.0006861353758722,-0.0009880969300866,-0.0014148737536743
0.716721435546875,0.004823255437985,-0.0048878268404863,0.0421399365931749,-0.0008030481403693,0.0005187196657061,0.0013196599902585
0.7267001953125,-0.0018183745335787,-0.004709237136878,0.042887540090084,-0.000490176375024,0.0022476436570286,0.0015370253240689
0.736679443359375,0.0002694463248364,-0.0060689629164524,0.0464747509270906,0.0003913299879059,0.0005746455863118,0.0002427291474305
0.746658203125,0.0022431210179813,-0.0046301805512979,0.0461725531101226,-0.0021633482538163,-0.0013884352520108,0.0011125514283776
0.756637451171875,0.0036668702107854,-0.0097430300530046,0.0437801050156354,0.0004449517000466,-0.0009221155196428,-0.0001423301000613
0.7666162109375,0.00201985192243,-0.0063896827707998,0.0467734416127204,0.0013476096792146,0.0014801258221268,-0.001015794230625
0.776595458984375,0.0029678002970293,-0.0016762626491487,0.0412362657517194,0.0027926410548388,0.0007014172151684,-0.0004605251888278
0.78657421875,-0.0039960838988423,-0.0047811150630004,0.0454249496132135,-0.0006272800965234,0.0001177424564957,0.0010784070473164
0.796553466796875,-7.71386231295e-05,-0.0069440104516223,0.0535083028256893,-0.0008243540069088,-0.0034314524382352,0.0012059725122526
0.8065322265625,0.0123905854197219,0.0059221383242867,0.046173722153902,0.0013908615801483,0.0018244991078972,-0.0020685580093413
0.816511474609375,-0.0075090604558587,0.0047625564930029,0.0431815546005964,0.0020838160999119,0.0011488553136587,0.000835086335428
0.826490234375,0.0008489449795335,-0.009064601068478,0.0397404742360115,0.0016286001773551,-0.0018757386133074,1.47835162351e-05
0.836469482421875,-0.0074576407958753,0.0031674693212844,0.0398912808835506,-0.0014082023408263,0.000506991520524,-0.0021700737997889
0.8464482421875,0.0019644502070732,0.0016244593966752,0.0506669419199228,0.0002246563090011,-0.0007598334923386,-0.0001292834349442
0.856427490234375,0.0064476052368059,0.0038551045255735,0.0446808532476425,0.0006984326755627,-0.0005371933802962,0.0014355899766087
0.86640625,0.0063022236830554,-0.0167870120140723,0.0369002823740243,-0.0012923176400363,-0.0008251555263996,-0.0009158663451671
0.876385498046875,0.0028611981173977,-0.0029651699485257,0.0403431163042783,-0.0017551750643178,-0.0017450107261538,0.001247153035365
0.8863642578125,0.0089570490407757,-0.0090867033024318,0.0425865113168954,8.37192637845e-05,-0.0010665440931916,-0.0017677563009783
0.896343505859375,0.0045691710790619,-0.0020249482226558,0.0439361723601818,-0.0008723555365577,-0.0005512218922376,0.001920455484651
0.906322021484375,0.0061371327818371,0.006196717481967,0.0404933384299278,-0.0029941115062683,-0.0005653202533721,0.0004128172004129
0.91630126953125,0.0061284197524189,0.0079245276552625,0.0457329926490783,-2.06921831704e-05,-0.0028638942167162,-0.0013752290979027
0.926280029296875,-0.0025212621059268,0.0068876954208128,0.034511925932765,-0.0004468648403417,-0.0004745237529277,0.0015419195406138
0.93625927734375,-0.0057064862796105,0.0021445012154057,0.0413923330962657,0.0008650082745589,1.60299241542e-05,-0.0009763656416907
0.946238037109375,-0.0023560616068542,0.0046035482726991,0.0490226818442344,-0.0004541069793049,-0.0001472830772399,-0.000194218053366
0.95621728515625,0.0011324746286496,0.0069778396559879,0.0524620086431503,0.0022330225910991,0.0013017430901527,-0.0015750670572742
0.966196044921875,0.006049089172203,-0.0105093199840746,0.0512649078130722,-0.0014610546641051,-0.0001707030460238,0.0012821516720578
0.97617529296875,-0.0005610862151719,-0.0043858321350999,0.0446796842038631,0.00013018399477,-0.0005914829671382,-0.0005594242247752
0.986154296875,0.0040540428974665,-0.0034871479960158,0.0428834484368562,0.0026691942475736,3.55429947376e-05,-0.0012192542199045
0.99613232421875,0.0043563137796707,-0.0032565541105344,0.0385457114934921,0.0003860660945065,0.0005383472889661,0.0003221833612769
1.006111328125,0.0034084932692348,-0.0021624204645864,0.0506622657448053,-0.0002021926338784,0.0016469722613692,0.0002426849096082
1.01609033203125,0.0080034198440611,0.0014679901933297,0.0475198760658502,-7.94209190644e-05,-0.0007538674399256,-0.001234570518136
1.0260693359375,0.0132349820883013,0.0124202681719325,0.0485650012046098,-0.0017618095735087,0.000406127423048,-0.0026768082752823
1.03604833984375,-0.001176642563939,0.0082845566066913,0.0509562802553176,0.0012464971514418,0.0006892215460538,0.0015011588111519
1.04602734375,0.0011248393114656,0.0104294231482781,0.0434767381548881,-0.0010119025828316,-0.0016639288514852,-0.00095322082052
1.05600634765625,0.0025423962255008,0.0106820644687861,0.0419809466391801,-0.0002180142910219,0.000215464271605,-0.001403028727509
1.0659853515625,0.0089102142243646,0.0089610676287673,0.0470692096889019,0.0002241692272946,0.0018749190494418,0.0011635422706604
1.07596435546875,0.0008527261055074,0.0125575942833907,0.0356973363250494,0.0007759762229397,-0.0018375273793935,-8.38824489619e-05
1.085943603515625,-0.0043751646106131,-0.0011965711071155,0.0488660299777984,0.0022119218483567,0.0015692431479692,-0.0021005526650696
1.09592236328125,-0.0060445043286308,-0.0028075317014008,0.0454272877007722,0.0027296403422951,-0.0005895150825381,-0.0001503198145655
1.1059013671875,0.0021561551205813,0.000611008037813,0.0282201323121786,-0.0019730157218873,0.0001960480585694,0.0001318128051934
1.115880126953125,0.0071436246769502,-0.0053034949692897,0.0422860670655965,0.002598566468805,-0.0012516463175415,-0.0011363844387233
1.125859375,0.0045217882733792,-0.0102004732306115,0.0445329692095518,0.0003155636950396,0.000856602564454,0.0029225840698927
1.135838134765625,0.0052050578298047,-0.0011900500347837,0.0479711269646883,-0.0026613178197294,0.0005703130736947,0.0003824610612355
1.1458173828125,0.0131553775134496,-0.0043787448071874,0.0391360786020755,-0.0034099868498742,0.000787766650319,-0.0001666994940023
1.155796142578125,0.0051010311997495,-0.0070744501645676,0.049010406884551,0.0036077089607715,-0.0017419699579477,-7.40214891266e-05
1.165775390625,0.0007884469639509,-0.0024784093448892,0.0416805023878812,0.0027213657740503,0.0001554852351546,0.0027696869801729
1.175754150390625,-0.00596276259562,0.0035820962704718,0.039735798060894,0.0009197373292408,-0.000178474932909,-0.0002434133493807
1.1857333984375,-0.0030086985629983,-0.0046501456270925,0.051858197531104,0.0023434211034327,0.0021299282088875,-4.9898342695e-05
1.195712158203125,-0.0037861309425905,-0.0066372277910821,0.0482657259970903,-0.001379145309329,0.000401004217565,0.0011924663558602
1.20569140625,0.0003322641616687,-0.0042742067204788,0.0530552983611822,0.0005898033268749,0.0010209223255515,-0.0013492538128048
1.215670654296875,0.0022127806786447,-0.0049912324160337,0.0533534045249223,-0.0004490957653615,0.0006235791370272,-0.0009748132433742
1.22564990234375,6.67268269695e-05,0.0027986542752012,0.0449696070611476,-0.0018908486235886,0.0025311950594186,0.000856612517964
1.235628662109375,0.0021887970148585,0.0059411535520106,0.0503571453183889,-0.0005302396602928,0.0008813664317131,0.0003338340029586
1.24560791015625,-0.0060848363390192,0.0014069076558575,0.0529015691041946,0.0001272498629987,0.0003272257745265,0.0024427385069429
1.255586669921875,4.76385340094e-05,0.0065244881316088,0.0542488920599222,-0.0011239032028242,0.0015669269487261,-0.0007216294761747
1.26556591796875,0.0135924902890808,0.0043694655221886,0.0512532173752784,0.0010077813640236,0.0013680532574653,-0.0010281811701133
1.275544677734375,-0.0027347587261348,0.0057912054209969,0.0388315426975488,-0.001396254170686,0.000616243109107,-0.0024998439475893
1.28552392578125,-0.0058469359299167,-0.001060194843728,0.0475116927593946,-0.000369171553757,-0.0004352089017629,-0.0001585845166118
1.295502685546875,0.0069085007468238,-0.0063857372480444,0.0409235465407371,0.0012883800081908,0.0021619061008095,0.0011791212018579
1.30548193359375,0.0054530412415042,-0.0048182870019227,0.0534866755157709,-0.0036696535535156,0.0012310203164815,-0.0005933765205554
1.315460693359375,-0.0059718226849101,-8.27463800087e-05,0.0519885459125041,-8.15767562016e-05,-4.11719083786e-05,-0.0002503613941371
1.32543994140625,-0.0040516317446716,-0.0042248694197274,0.0457072736859321,-1.62521610036e-05,-0.000781986862421,-0.0011343777878209
1.335418701171875,-0.0012552424917928,-0.0035942616323009,0.0548345829933881,0.0004729704814963,0.0013216445222496,-4.06175749958e-05
1.34539794921875,-0.0032340682840906,0.002056932529807,0.0449538249701261,0.0002207018551416,-0.0003155842423439,-0.0021339051891118
1.355376953125,-0.0102524408798664,-0.0039389286178164,0.0509393291205167,0.0007834277930669,2.37030908465e-05,-0.0020276452414691
1.36535595703125,-0.0021856369433924,0.0022054741550236,0.0425596233099699,0.0001656500971876,0.0006918981671333,-0.0010478640906512
1.3753349609375,-0.0004476707022637,-0.0040760720661841,0.0413671986550092,0.0024517076089978,0.0005014827474951,0.0001034204324241
1.38531396484375,0.0093703425494022,-0.0059476015591062,0.0525900189369916,0.0002040456747636,-0.0002213595435023,-0.0008235359564423
1.39529296875,0.0102854115677066,-0.0056440337689593,0.048999300968647,5.1074894145e-06,-0.0006924718618392,0.0002483863790985
1.40527197265625,0.0044037879168987,-0.0036505401304922,0.047954760351777,0.0005027674487791,0.0014137551188468,0.0009769923053681
1.4152509765625,0.0093780509318225,0.0012302907136268,0.0551361962884664,-0.0020685144700109,0.0003077443689107,-0.0023660738952457
1.42522998046875,0.0016295556969009,-0.0030052462305873,0.0509428362518548,0.0002380545483902,0.0009333090856671,-0.0002247287920909
1.435208984375,0.0018457374645397,0.0002023724379949,0.0497486580312252,0.0022383546456694,-0.0007442161440849,-0.0004391132679302
1.44518798828125,-0.0012696180770173,0.000256148451846,0.0494511363893747,0.0010797259164974,-0.001417183317244,-0.0003111382538918
1.4551669921875,0.0059460671891458,0.0010864983287639,0.0428688353896141,0.0010000973707064,-7.65481963753e-05,0.0001874054869404
1.465145751953125,0.0031775888564996,0.0083117551408708,0.0430178884714841,0.0001595937646925,0.0010363655164837,-1.84893724508e-05
1.475125,0.0104490776968188,0.0099672855292446,0.0454138436973094,0.00208426034078,-0.0002075973898172,-0.0010129136499017
1.485103759765625,0.0024220577814616,0.0081913070989772,0.0341921924591064,-0.0003695914056152,0.0021034739911556,-0.0012960419990122
1.4950830078125,-0.0057302872803062,-0.0007394749893806,0.0472071568548679,0.0005622486351057,0.0016483394429087,0.0006371466442942
1.505061767578125,-0.0014465455465018,0.0034447153600864,0.0487017793267965,-0.0012071033706888,0.0021070223301649,0.0014782306971028
1.515041015625,-0.0041156916905194,0.0059671099771745,0.0437643229246139,0.0011436690110713,-0.0003723809495568,-0.0026962743140757
1.525019775390625,0.0100441684240475,0.0041714039331302,0.0487006102830171,0.0009737489162944,0.0002681175246834,-0.0016664884751662
1.5349990234375,0.0049933695741929,-0.0022025150129571,0.0539338347613811,0.000588389520999,-0.0001356173306703,-0.0013527680421248
1.544977783203125,0.0006666654814966,-0.0052227030843496,0.0527343958437442,-0.0013590238522738,0.0025951284915208,-0.0010650098556652
1.55495703125,0.0016212079936638,-0.0068925359927117,0.0407604649335145,0.0009110546670854,-0.0004395432770252,0.0001075799300451
1.564935791015625,0.008491020697914,-0.0027394897001795,0.051985038781166,-0.0008202773169614,0.0017802817746996,-0.0013240774860605
1.5749150390625,0.0024160664320923,-0.0080797364832833,0.033877719682455,-0.0002682040212675,-0.0003049727529287,7.08862426108e-05
1.584893798828125,0.0069043542946688,-0.0068149407118558,0.0539274050205945,-0.0012666914844885,0.0006169192492961,-0.0011689410312101
1.594873046875,-0.0105758276153355,-0.0042796318142674,0.0537760138511657,-0.0021644430235028,-0.0006741816177964,0.0003679692163132
1.604851806640625,-0.0036721491741016,-0.004279485683795,0.049284547650814,-0.0013128772843629,3.61036509275e-05,0.0025093560107052
1.6148310546875,-0.0006618066432885,0.0024475575488992,0.0412047015696764,0.0007484094239771,0.0008233338594436,0.0016217242227867
1.624809814453125,0.0085493815553374,0.0030080775084905,0.0428501306891441,0.0031953614670783,0.0069995149970054,-0.0003889350919052
1.6347890625,-0.0036233233300037,0.0026609080386348,0.0527677135914564,-0.0062197120860219,0.0251998249441385,0.0003184005036018
1.644767822265625,-0.0148608479907736,-0.0030878464801236,0.2334802545726299,-0.0011321638012304,-0.0423521026968956,7.6765281846e-06
1.6547470703125,0.086240852794703,0.0046831163149327,-0.2905728456258774,-0.0016693234210833,0.0170449111610651,0.0002383062674198
1.664725830078125,-0.0454045644123107,0.0080207911039702,0.2707406024307012,0.0014265459030866,-0.0090399291366338,-0.0002521211863495
1.674705078125,0.0147157586979679,-0.0041808476149104,-0.0461906732887029,-0.001238479395397,-0.0061892815865576,0.000611808267422
1.6846826171875,-0.0244799594031646,-0.0018564415216445,0.0820616126149892,0.0025313794612884,-0.0006591789424419,0.0006766309379599
1.694661865234375,-0.002894223604165,-0.0011236702676862,0.0322322905629873,0.0028256587684154,-0.0011406783014535,-0.0033005338627845
1.704640869140625,-0.0120402558784,-0.0027332426224835,0.0733861387282609,0.001217047101818,-0.0007420014590024,0.0005814920295961
1.714619873046875,0.0199219490389339,-0.0065656603922136,0.0323883579075336,0.0008410088485106,-0.002849893644452,-0.0002472836640663
1.724598876953125,0.0139070726635865,-0.0061127107266336,0.0470557656854391,0.0015446405159309,0.0007120100781321,0.0007440517074428
1.734577880859375,0.0133167786202393,-0.0103523575903847,0.0328361016750335,-0.0008862930117174,0.0013021659106016,-0.0001260029966942
1.744556884765625,0.0027669074300676,-0.0071885597972199,0.0482446832090616,-0.0015045460313558,-0.0004899939522147,0.0025393371470272
1.754535888671875,-0.0094223467312753,-0.0033530732875689,0.0519891304343938,0.0024688902776688,-0.0003488464280962,-0.000567240291275
1.764514892578125,-0.0065846390873193,-0.0063326188213191,0.0480985527366399,0.002196030691266,1.8430873751e-06,-0.0020770181436091
1.774493896484375,-0.0033113165050745,0.0034537389167584,0.0485480500698089,-0.0005387694691307,0.0002252822741866,-0.0017566400347277
1.78447314453125,-0.0007800079291686,9.735942725e-06,0.0463034860134124,0.001107536139898,0.0001363325864076,-0.0002730622363742
1.794451904296875,-0.0002553447342477,-0.0016187420419417,0.0368774860203266,0.0001717013074085,0.0002529798075556,0.0015152504201978
1.80443115234375,0.0044276619828306,-0.007515417131409,0.0392716876804828,-0.0017308765091001,-0.0023059323430061,-0.0005215571727603
1.814409912109375,0.0048274384227581,0.0059336278326809,0.0452589453965425,-0.000442705466412,-0.0005240114405751,-0.0008576480904594
1.82438916015625,-0.001312489104364,-0.0026584238206036,0.0573813448667526,0.0011391161242499,-0.0010865442454814,-0.0009656817419454
1.834367919921875,-0.0018252609320916,0.0015054909258149,0.0463058241009712,-0.001534697599709,0.001576617360115,-0.0007313236128538
1.84434716796875,-0.0057353653142228,0.0044362106154672,0.0270049113035202,-0.0005376730696298,-0.0016189077869057,-0.0010652263881638
1.854325927734375,-0.0108661157988011,0.0094660580088384,0.0469043745160102,0.002098323777318,-5.8319419622e-06,0.000277805753285
1.86430517578125,0.0044125922778621,0.0033504612053744,0.0548386746466159,0.0002027113223448,-2.13524326682e-05,0.0021480584982782
1.874283935546875,0.0014009528391063,0.0038008901203051,0.0463122538417577,3.25352884829e-05,0.000303553417325,-0.0009784926660358
1.88426318359375,0.0168722243458032,0.0012751527686603,0.0374853887856006,0.0018833754584193,0.0004633693024516,-0.0021886688191443
1.894241943359375,0.014318959666416,0.0029910715747624,0.0367319400697946,0.0005989329656586,0.0029723336920142,-0.0008187388302758
1.904220947265625,-0.0005348009964451,0.005920165562909,0.0490028080999851,0.0012998530874028,-0.0004383046180009,0.0004688001645263
1.91419970703125,-0.0036749987183138,0.0013374774151481,0.0469125578224658,0.0006646892288699,-0.0012279320508241,0.0019545776303857
1.924178955078125,-0.0068062824813649,0.0001691094892099,0.0500555320233106,0.0010975818149745,0.0006362106651067,0.0001644896838115
1.93415771484375,-0.000250230167713,0.0019017054354771,0.0533458057403564,-0.0014952716883271,0.0003477903082966,-0.0002858508669305
1.944136962890625,-0.0175559870925731,0.0080959569657221,0.0516986230552196,-0.0008742966456338,0.0028325654566287,-0.0023437337949872
1.95411572265625,0.0042795770153403,0.0043034510812722,0.0498994646787643,-0.0010095852194353,0.0010937880724668,-0.0004832495469599
1.964094970703125,-0.0011328764874488,-0.0009329517348669,0.0494499673455953,0.0005069189937785,-0.0002760710194706,0.0004229636397212
1.97407373046875,0.006276778714545,-0.0041942550857551,0.0507955367356538,-0.0018824690487235,0.0012272829189896,-0.0006747912848368
1.984052978515625,0.0018916224328801,-0.007267981708981,0.0509428362518548,-0.001547435298562,-0.0008687423542141,0.0023903150577098
1.99403173828125,0.0047059309349395,-0.0022730960311368,0.0457055201202631,0.0012289100559428,0.000819968059659,-0.000917597208172
2.004010986328125,0.0047306269847787,0.0052761320383287,0.0371744231402874,0.0008128522895276,-0.0001567602157592,-0.0004830547841265
2.01398974609375,-0.0028385478941723,0.0039733606103807,0.0492974071323871,0.0004368139198049,-0.0002454435452818,0.0014088548487052
2.023968994140625,-0.0047688949022442,0.0037189657242037,0.0449590856671333,0.0016738983104005,-0.0002687573432922,-0.0002857728395611
2.03394775390625,0.003073744889535,-0.0053613078374415,0.0380780939817428,0.0036606164649128,-0.0009926045313477,0.0014799030032008
2.043927001953125,-0.0024474479510448,-0.0013511406143195,0.0442155738234519,0.0016513351583853,0.0010014241561293,-0.0011492755729705
2.05390576171875,-0.0019561755690723,-0.0040474670262075,0.053939679980278,0.0002507787430658,-0.0012577353045344,-2.30247533181e-05
2.063885009765625,-1.6622341237e-06,0.0068446965293027,0.0406236868113279,0.0005132284713909,-0.0012237923219799,-0.0002165078039979
2.07386376953125,0.0003692717038094,0.0104168011287227,0.0433212553322315,0.0007675603264942,0.0015717279165983,-0.0013451554113999
2.083843017578125,-0.0090397771544754,-0.0022857180506922,0.0460118095904588,0.000854482059367,0.0015300139784812,-0.0018850852502509
2.09382177734375,-8.61439134925e-05,-9.36513665132e-05,0.0597796381801366,-0.0015458250418305,-0.0016378164291381,-0.0004080960643477
2.103801025390625,0.0020089834685437,-0.0013916735541075,0.0470586882948875,-0.0013705833116546,-8.24080780148e-05,-0.0005980296991765
2.11377978515625,0.0015055639910511,-0.0001912117231637,0.0458580803334712,-0.0020126714371144,-0.0016733799129724,-0.0025815521366894
2.123759033203125,0.0033251988999545,7.38872201181e-05,0.047953006786108,-0.0020985468290746,0.0006690621376037,-0.0017490765312686
2.133738037109375,-0.0004701747950166,0.0055398610084317,0.0371761767059564,-0.0012135785073041,-0.0002577174454927,0.002413710579276
2.143717041015625,0.0002077609991654,-0.0030618900549598,0.0416664738625288,0.0013287788024172,-0.0031393533572554,0.0009045090409927
2.15369580078125,-0.0077177895694039,-0.0015574768413789,0.0398708226174116,-0.0007823091000318,-0.0007835207507014,0.0009180911583825
2.1636748046875,-0.0036156332138925,0.0033606538058258,0.0358317763596773,0.0002525049494579,0.0006380239501595,-0.0012172162532806
2.17365380859375,-0.0045081981394439,0.0029069734878838,0.042113633108139,-0.0011280777398496,-0.000291951932013,0.0009205031674355
2.1836328125,-0.0107106695087626,-0.0013241795421577,0.0437578931838274,0.0003209542483091,0.0007736273109912,0.0014639202272519
2.19361181640625,-0.0076113700528629,0.0005377601385116,0.0506412229567766,0.002469060011208,-0.0005478328093886,0.0010386133799329
2.2035908203125,0.0095991828692145,0.0055197132695466,0.0537818590700626,-0.001053582294844,-0.0001605367287993,5.5743730627e-06
2.21356982421875,-0.011130849415902,0.0079119604346342,0.0483902291595935,-0.0006288081640377,0.00221180729568,-0.0001614058273844
2.223552978515625,0.0012337613123469,-0.00144349507289,0.0382125340163707,-0.0014748577959835,-0.0008222600445151,0.0003484956105239
2.23353173828125,0.0010803608489222,-0.0071483008520677,0.04524491687119,-3.35549702867e-05,0.0020622098818421,0.0015735496999695
2.243510986328125,0.0109500860215164,0.0035046288537792,0.0528764346629381,0.0015451351646333,0.0008996920660138,-0.0013102273223921
2.25348974609375,0.0014141411142423,-0.0026368147769942,0.0419505515009164,-0.0004013691795989,0.0015372531488537,0.0011249672388657
2.263468994140625,0.0003196786747314,-0.0026168862338177,0.0391091905951499,0.0026055197231471,-0.0009996462613344,-0.0003919019945897
2.27344775390625,0.0007507453020662,0.001323576753959,0.0498860206753015,0.0024270878639072,0.0025026770308613,0.0009133132407441
2.283427001953125,-0.0074248162385076,0.0010614917516708,0.0455453611224889,0.0003804246662184,-0.000401641242206,0.0035047892015427
2.293406005859375,-0.0024278482014313,0.0007718976879492,0.0497363830715417,0.0013695226516574,0.0004825284704566,0.0007585374405607
2.303384033203125,-0.0030712972041219,0.0035931291211396,0.0397094945758581,-0.0015050102956593,-0.0016538742929697,0.0012681559892371
2.313363037109375,0.0063354683655314,4.23595706932e-05,0.0483896446377038,-0.0004128479631617,-0.0015542712062597,-0.000517493521329
2.323342041015625,0.0128892008579336,-0.0041300672757439,0.0439034391343593,-0.0007907533436082,0.0020978115499019,-6.88094078213e-05
2.333321044921875,0.0121555162885226,0.012187208334729,0.0394137264996767,0.0014974346850067,0.0004003122448921,-0.0001303284225286
2.343300048828125,0.0024148425893858,0.0135068030333146,0.0382183792352676,0.0001644134754315,0.0001488272100687,-0.0019486686214804
2.353279052734375,-0.0004590323464944,0.0092524152581579,0.0377677128583192,-0.0008638330036774,3.4179538488e-06,-0.0002804645337164
2.363258056640625,-0.0135067847670055,0.009301661227364,0.0319260010927915,0.0008946178713813,0.0019539846107363,0.0003743955458048
2.3732373046875,-0.0004481821589171,0.0020187376775778,0.046436757004261,5.3058960475e-05,0.0005534281954169,0.0025443392805755
2.383216064453125,-0.0012641929832287,-0.0031360147370956,0.0513730443626642,0.0004604778951033,-0.0012939171865582,-0.0018585277721285
2.3931953125,-0.0101794487088918,-0.0081734974476508,0.0515215129226446,0.0012389197945594,0.0022459561005234,0.0014121003914624
2.403174072265625,-0.0093492814950644,-0.0159951127177104,0.044333062723279,0.0002726615639403,0.0006875349208712,0.0014945532893761
2.4131533203125,-0.002232270830404,-0.0105511132991872,0.0432820923656225,0.0013080985518172,-0.002963924780488,0.0011241076281294
2.4231318359375,-0.0018866357305087,0.0074572937360033,0.0426858800381422,0.0024734016042202,-0.0014173742383718,-0.0015024160966277
2.433111083984375,0.000447433240246,-0.0043781237526796,0.0524105707168579,-0.0016369211953133,0.000699040479958,-0.0001734987599775
2.44308984375,0.0167051241505891,-0.000992956560105,0.0598901128172874,0.0006804071599617,0.0037228902801871,-0.000347814959241
2.453069091796875,0.0135079538107849,0.002493935707584,0.0492594132095575,-0.0024418828543275,0.0004788935184478,-0.0003491465176921
2.4630478515625,0.0161153598302043,0.0166111622568219,0.0504559295177459,-0.0030265331733971,-6.02258369326e-05,0.0028216058854013
2.473027099609375,0.0159940898044034,0.0091686642311513,0.0425204603433609,0.0002707265084609,0.0022897468879818,0.000279885076452
2.483005859375,0.0034277459589764,0.0072469571872614,0.0378822791486978,0.0001945497933775,-0.0002753939479589,-1.14960312203e-05
2.492985107421875,0.0005449753305874,0.0101446879227645,0.0420697939664125,-0.0017636725679039,0.0018506068736314,-0.0002599689760245
2.5029638671875,-0.002494995153509,0.0011751264602877,0.042369069173932,-0.0015223480295389,-0.0021219998598098,0.00126386329066
2.512943115234375,-0.0037658918721601,-0.0028607049270533,0.0386263755142688,0.0003085752250626,0.000761404633522,0.0026399185881018
2.522921875,-0.0060009939804673,-0.0038035935340449,0.039972529426217,0.0001699624117463,-0.0005723312497138,-6.58511708024e-05
2.532901123046875,-0.0103618743374012,-0.0110816765119321,0.0485024573624134,-0.0004995563067495,0.0009541930630803,0.0010164574487134
2.5428798828125,0.0038834538372233,-0.0041060836119577,0.051494624915719,-0.0008768081897869,-0.0019725039601325,0.0001444583758711
2.552859130859375,-0.0068928282536566,-0.0097191377207636,0.0555336711734533,0.0003027057973667,-0.0003325287252664,-0.0018915282562375
2.562837890625,-0.003417206298653,-0.0070307754196226,0.0511947651863098,-8.3825958427e-05,0.0016055377200245,0.0003620513016358
2.572817138671875,0.0032976715722121,-0.0032426169167272,0.0378776029735803,-0.0015368466265499,-6.39976933598e-05,-0.0013277244288474
2.5827958984375,-0.0015691490128636,-0.0027177527924068,0.0496989736706018,0.0002203321782872,-0.0007792487740516,-0.0003559031174518
2.592775146484375,0.0102303934448398,-0.003192640295159,0.0413221904695034,0.0011673521948978,-0.000957946293056,-1.79479757207e-05
2.60275390625,0.0087704221611842,-0.0053550424934364,0.0511971032738685,0.0025946181267499,0.0010860180482268,0.0014905560528859
2.612733154296875,0.0030246450508013,0.0061857759628444,0.0552361495316028,-0.0024363594129681,0.0005541844293475,-0.0013297314289957
2.6227119140625,0.0007925751497969,-0.0052248767751269,0.0546346765071153,-0.0011091799242421,-0.0007989322766661,4.3594554881e-06
2.632691162109375,0.0027924802627414,-0.0021606668989174,0.0544908841222524,0.001586737926118,-0.0023728599771857,-0.0015631770947948
2.642669921875,-0.0127429790539667,-0.0006083776893094,0.0482078583300113,-0.0007918996270745,0.001513416878879,0.0015287197893485
2.652649169921875,-0.005238430376444,-0.0046110374594107,0.0522428129345178,0.0009660528739914,-0.0005963398143649,-0.0008359009516425
2.6626279296875,-0.008062657484319,-0.0070993836764246,0.0516466006070375,-0.0022584055550396,-0.002476368099451,0.0011052438057959
2.67260693359375,0.0022597981581464,-0.0051654382054694,0.0485042109280824,-0.0011681073810905,0.0005231499671936,0.0012266839621588
2.6825859375,0.0030082967041991,-0.0104187556237913,0.0441617978096008,-0.0027791711036115,0.0006495155394077,0.0007485602982342
2.69256494140625,0.0094468418517149,-0.0111455172620713,0.035776246780157,-0.0010553069878369,0.0018849559128284,0.001283323043026
2.7025439453125,0.0088995466998778,-0.0057259398987516,0.0579208585709333,-0.0006429631030187,0.0002500200644135,0.0016815450508147
2.71252294921875,0.0018691183401271,-0.0010620032083243,0.0537315901875495,0.0003237643977627,0.0006399070844054,-0.0002383278479101
2.722502197265625,0.0017279928363859,7.95315096154e-05,0.0413110845535993,0.0018743546679615,0.0007792571559548,0.0014405333204194
2.73248095703125,0.0040789033440873,0.001246639060229,0.0477437479496002,0.0007204069988802,0.000488705933094,0.0015678324270993
2.742460205078125,-0.0027204196735285,-0.0007951506993733,0.0330821853905916,0.0009700680384412,-0.0020900154486298,0.0009524074266664
2.75243896484375,-0.0002218991223722,3.22217691689e-05,0.0392184961885213,2.2753374651e-06,0.000450107268989,0.0014352386351674
2.762418212890625,0.0028440277868881,-0.0004211662878282,0.0505892005085945,0.000443679629825,0.0013875337317585,-0.0002637633006088
2.77239697265625,-0.0016106865996494,-0.0035511166103184,0.0419113885343074,0.0019462351920083,0.0008799349889159,-0.0027120073791593
2.782376220703125,-0.0013368198280222,-0.000811005855631,0.0458019662320613,-0.0012625217204913,0.0004602447152137,-0.00051998894196
2.79235498046875,0.0002528605162166,0.0163977204355411,0.0520855765461921,0.0015758753288537,0.000106843188405,-0.0016006997320801
2.802334228515625,-0.0029654256768524,0.0041010603769682,0.0345756388187408,-0.0034958268515765,-7.62986019253e-05,0.0015291075687855
2.81231298828125,-0.0080123338028788,0.0041896154432557,0.0516343256473541,0.0007465885719284,4.9402937293e-05,0.0003165702510159
2.822292236328125,0.0007393836578354,0.0027576098787598,0.0510351907104253,0.0043312134221196,0.0011467467993497,0.00145045586396
2.83227099609375,-0.0022644012680277,-0.0005528298434801,0.0561246228039264,0.0005796181503683,0.0002135746181011,0.0010464544175192
2.842250244140625,-0.0027282924527302,-0.0025092611408792,0.0532861845076084,0.0041310559026896,0.0003242185339331,0.001011446584016
2.85222900390625,0.0027508878770284,0.0004903225339017,0.0402688820242881,-0.0002820679801516,0.0005692290142178,0.0003608362749218
2.862208251953125,-0.0032377580785192,-0.0040771132458001,0.0455050291121005,-0.0019052904099225,0.0004883138462901,0.0015088022919371
2.87218701171875,-0.0038586481895297,-0.0046684119361452,0.0508913983255624,0.0002161836018785,0.0009804666042327,0.0002240932662971
2.882166259765625,0.0029364005117677,-0.0035376178079284,0.0392255104511976,0.0002329639391973,0.0012559304013848,-0.000413243076764
2.89214501953125,0.0041428719583898,0.0015904109966009,0.0416179585456848,-0.0009071353124454,-0.0008144108578562,0.000797962595243
2.902124267578125,0.0014360606851056,0.0030958836561068,0.0425216293871402,0.0011699210153892,-0.0008488595485687,0.0010596073698252
2.91210302734375,-0.0064342342985793,-0.0034224487293511,0.0489560463488101,-0.0010719279525801,-0.0006746891885995,-3.307868610136211e-07
2.9220810546875,-0.0042470629852265,-0.0006394852136261,0.0398258144319057,-0.0032357214950025,0.0027241492643952,-0.0001105396222556
2.93206005859375,0.0016175364655442,0.0090890596562996,0.0486491723567247,0.0005510272458195,0.0016690045595169,-9.42943443078e-05
2.9420390625,-0.0104976843452081,0.0062866059888154,0.0452080919921398,0.0034823627211153,-0.0005250284448266,0.0005143310409039
2.95201806640625,-0.013253266663663,0.0045549233580008,0.0517915620356798,0.001471942407079,0.0007916381582617,0.0003662593080662
2.9619970703125,-0.0006250913620926,-0.0032983656919561,0.04625204808712,0.0001234082737937,0.0009429873898625,0.0001980977976927
2.97197607421875,-0.0037136684945784,0.003764120040182,0.0471481201440095,0.0009500535670667,0.0033653983846306,-0.0023113989736884
2.981955078125,0.0057332464223727,0.0024922369408421,0.0496872832328081,-0.0012301262468099,-0.0022500827908515,0.001295902300626
2.99193408203125,-0.0031449104296043,-0.0030776904122903,0.0365174205362796,-0.0004865716909989,0.001641328446567,0.0005550109199248
3.0019130859375,-0.0010857311437837,-0.0008296009582467,0.0568675501257181,0.0006304192356765,0.0015254467725753,-0.0020403719972819
3.01189208984375,-0.0013628127858042,-0.0020978855947032,0.0511807366609573,-0.0011962428689002,-0.0010655429214239,0.0011026907013729
3.02187109375,-0.0030027437462471,-0.0019156060966663,0.0426490551590919,-0.0021043675951659,0.0007261717692017,-0.0004721981822513
3.03185009765625,-0.0085960885075852,0.0004770246609114,0.0342658422172069,-0.0010220588883385,0.0003248341381549,-0.0001582115073688
3.0418291015625,-0.0001897138858214,0.0030702742908149,0.0430932917952537,-0.0004218844696879,-0.0015966081991791,-0.0003798890975303
3.05180810546875,-0.0044536184079945,-0.0024182766554877,0.0456371310591697,-0.0012948686489835,-0.0012975353747606,0.0014678121078759
3.061787109375,-0.0065981926886364,-0.0047011451619677,0.0466799181103706,-0.0011619636788964,0.0001026224344968,-0.0006596093298867
3.07176611328125,0.0018037066874094,0.0062887614132836,0.050272974166274,0.0010945325484499,0.0011377930641174,0.000700999633409
3.0817451171875,-0.0155139781372621,-0.000963474737294,0.0430892001420259,0.0012492935638874,0.0006889356300234,0.0002032076445175
3.09172412109375,-0.0026226583874784,-0.0021059045043773,0.0348608855009078,-0.0001520616933703,0.0001371288672089,0.0001422212662873
3.101703125,-0.0015774236508645,-0.0065483804638497,0.0480266565442085,0.0021180023904889,-0.0007270518690347,0.0023013376630842
3.11168212890625,-0.0012523198823444,-0.0063066441298462,0.0499719453930854,-0.0002346341498196,0.001983780413866,-0.0003554317809175
3.121660888671875,-0.0010288315910845,-0.0020681845761835,0.048325931751728,-0.0005882367258891,-0.0015864055603742,-0.0007850117981433
3.131639892578125,-0.0016749474748969,-0.0072351388853043,0.0445820690482854,-0.0008628086652606,3.1997449696e-05,8.3439081208e-06
3.141618896484375,0.0030464184911921,0.0011124182213097,0.0484744003117084,-0.0014754846924915,-0.0031145121902227,-0.0023178660776466
3.151597900390625,0.0080313855632208,0.0008200294123031,0.0451806194633245,0.0012087153736501,-0.0006007552146911,0.0021570434328168
3.161576904296875,0.0016890490654855,-0.0073042951313778,0.0520621956706047,-0.0001295370166189,-0.0008933311328291,0.0002229694800917
3.17155615234375,0.0030063239428214,-0.0010776939678005,0.0411392351180315,0.0011490467004477,-0.0011039869859814,-0.0001149856616393
3.181534912109375,-0.0032803733775392,0.006753657244984,0.0432411758333444,0.0007778556318953,-0.0020440043881535,-0.0012052393285557
3.19151416015625,0.0031897359520196,0.0015815701030194,0.0435427891284227,0.0006489586085081,0.0005240812897682,-0.0014345374656841
3.201492919921875,-0.0050805911999195,0.0020889168369583,0.0354623585253953,-0.0011273242998868,0.0007732836529612,0.0014006335986778
3.21147216796875,-0.010592961413227,-0.0016579963400959,0.04503974968791,-0.002367025706917,-0.0009484505280852,0.0011167406337335
3.22144677734375,-0.0112303460013121,-0.0001863528849557,0.0378588982731103,-0.0011567510664463,-0.0021187625825405,0.0001922680385177
3.23142578125,-0.0021801570506766,0.0027475816750898,0.0362134691536426,-0.0026459908112883,-6.20037317276e-05,0.0002348786365473
3.24140478515625,-0.0047943216044455,0.0030788411897607,0.0525204608321189,-6.99082738719e-05,0.0002820221707224,0.0018636928871273
3.2513837890625,-0.0044915575318969,-0.000526124499645,0.044433600488305,-0.0002049305476248,0.001449286006391,-0.002658620942384
3.26136279296875,0.0055360798824578,-0.0033629005618393,0.0451823730289936,0.0002340254141017,-0.0018684547394514,0.0006797655951231
3.271341796875,0.0055532502129673,0.0045168381036259,0.0574544101029634,0.0007261774735525,0.0017779460176825,0.0010864303912967
3.28132080078125,-0.000948240635544,0.0020269209840334,0.0447346292614936,0.0025488487444818,-0.0007421905174851,-0.0014838622882962
3.2912998046875,0.0005885222113691,-0.0065302785515785,0.0406949984818696,-0.0012019473360851,-0.0018343525007367,0.001343882177025
3.30127880859375,-0.007901840899419,-0.0020699929407797,0.0424883116394281,0.0009891724912449,0.0005211206153035,-0.0015701388474553
3.3112578125,0.0013394136439077,-0.0003607413374818,0.0516167899906635,-0.0002974005183205,0.0003437539562582,-0.001413811231032
3.321236572265625,-0.0089792243399657,0.0004348112206906,0.0399421342879533,0.0004328457871451,0.0013635046780109,-0.0011766687966883
3.331215576171875,-0.0087945154228247,-0.0022994177824817,0.0459305610477924,0.0033527356572449,-0.0006024409085512,0.0004036509490106
3.341194580078125,-0.0045726051451638,-0.0073807761673815,0.0448866049528121,0.0001011997228488,-0.0017373552545905,0.0001894811866804
3.351173583984375,-0.0023566278624348,0.0008398300913162,0.0369575655192136,0.0023478423245251,0.0025194408372044,-0.0014931039186194
3.361152587890625,0.0008300028170458,-0.0012729425452649,0.0519219104170799,-0.0010681070853024,-0.0008012941107153,-0.0005308074178174
3.371131591796875,0.0031022037990391,-0.0033918891943059,0.0439911174178123,-0.0001336039276793,-0.0017349980771541,0.0012090356322005
3.38111083984375,-0.0016263225601986,-0.0050331353290006,0.0492301871150732,-0.0007059803465381,-0.0004815980792045,-0.0004209368198644
3.391089599609375,0.0075301032438874,-0.0003083170305006,0.0571668253332376,-0.0006191612919792,-0.0014563146978616,-0.0013916590251028
3.40106884765625,0.0042612924399785,-0.0006620258389972,0.0493880080252885,-0.0003938155132345,0.0002041077241301,-3.85674356948e-05
3.411047607421875,0.0040379868118092,0.0019894202515482,0.0375613766312599,-0.0023613590747117,0.0008243573829531,0.0002858055813703
3.42102685546875,0.0015035729633644,-0.0012933460124768,0.0615074848860502,0.0003246950218454,-0.0010511921718716,-0.0007852529524825
3.431004638671875,0.0055684660484082,-0.0100425427225418,0.042203064957261,-0.0005134017555974,-0.0021417569369077,-0.0014097642851993
3.440983642578125,0.0055134661918506,-0.0035240094076842,0.041751814058423,0.0011728151002898,0.0019791107624769,-0.0016556784976273
3.450962646484375,-0.0014439517306163,-0.0079740293527953,0.0508785388439893,0.0008950475603342,3.50037589669e-05,-0.0021158726885914
3.460941650390625,0.0055289742882363,-0.0020903598753735,0.0457879377067089,-0.0003414742532186,-0.002526506781578,0.0014497303636744
3.4709208984375,0.0020065723157487,-0.0058207420427352,0.0335194077640771,0.0006204595556482,0.0012839436531066,-0.0025785670150071
3.480899658203125,-0.0065791591946035,0.0005046615865081,0.0368050053060054,-0.0015145088545978,-8.07857140898e-05,-0.002704897429794
3.49087890625,0.0016363324975594,0.0037996297449804,0.0445855761796236,0.0022442769259214,-0.0008608261123299,-0.0011067345039919
3.50085791015625,0.0011692812413908,0.0010567607776261,0.0442909771472215,0.0018356193322688,-0.0014907103031873,0.0025007899384945
3.5108369140625,-0.0086491338690742,-0.0045996575488708,0.046986792102456,-0.0005843950202688,-0.0006472868844866,-0.0036401932593435
3.520815673828125,-0.001390102651529,-0.0098066881400533,0.0481833084106445,-0.0004324529436416,-0.000453233718872,0.0008686262299306
3.530794677734375,-0.0031698074088431,0.0034700689970515,0.0481827238887548,-0.0011504411231726,-0.0004979753866791,0.0027597369626164
3.540773681640625,0.0029401268388144,-0.0009202749163843,0.0501239210844039,-0.0017992241773754,-7.16280192136e-05,-0.0017878646031022
3.550752685546875,0.003278930339124,-0.0030307459980249,0.0481768786698579,-0.0008780366624705,-0.0004801573231816,0.0015043350867927
3.560731689453125,0.0050368068571202,0.0033663894268684,0.0389005162805318,0.0005782676162198,0.0002163853496313,-0.0001259442069567
3.570710693359375,-0.0014321516949683,0.0007296842477284,0.0380003525704145,-0.0017298940801993,-0.0005002710968255,0.0007949768914841
3.580689697265625,-0.0113646581717766,-0.0019556458461098,0.0529664510339498,-0.0003699956578202,0.0031173303723335,0.0002844356349669
3.590668701171875,-0.0117587355232797,-0.0036722222393378,0.0570090044230222,-0.0001707912306301,-0.0027155252173542,0.0011821872321888
3.600647705078125,-0.0048590391374193,-0.0127262836474925,0.0407002591788768,-0.0010865104850381,-0.000461752526462,-0.0005861798999831
3.610626708984375,-0.0005228182977065,-0.0087621109905652,0.0495277087569236,-0.0024636310990899,-0.0006111562252044,-6.4097475842e-06
3.620605712890625,0.0019731267038732,-0.0033058731449767,0.0393505981355905,-0.0022661215625703,-0.0030677961185574,-0.0002096836687996
3.630584716796875,-0.0057766471726819,0.0011917488015256,0.0403963077962398,4.63010510429e-05,0.0006683524698019,-0.0004632165946532
3.640563720703125,0.0041186508325859,0.0054436340923421,0.0415887324512004,0.0001715801190584,0.0015536025166511,-0.0027015022933483
3.650542724609375,0.0087090290964581,-0.0014369557342492,0.0510176550537347,0.001361480448395,-0.0006158081814646,0.000733176479116
3.660521728515625,0.0051999067306518,-0.0001918510439805,0.0570054972916841,0.0030847257003188,-0.0002391999587416,0.0012315604835748
3.670500732421875,0.0116410822266712,0.0039338505838997,0.049372225934267,-0.000632248353213,0.0013680178672075,-0.0013900552876293
3.680479736328125,-0.0013262984340079,-0.0017556845609098,0.0466764109790325,0.0012584223877638,0.0007581813260912,0.0003043109027203
3.690458740234375,-2.09879891015e-05,-0.0013605294971726,0.0456271941870451,-0.0017139316769316,-0.0003060176968574,0.000285136164166
3.700437744140625,0.0034299927149899,-0.0095399269626475,0.0496656559228897,-0.0001602790434844,-0.0009225606918334,-0.0001438530453015
3.710416748046875,-0.0045060061823576,-0.0057503984865732,0.0417360319674015,0.0021803732961416,-9.45832580327e-05,-7.80729751568e-05
3.720395751953125,-0.0019185652387328,0.0006679989220574,0.0397901585966348,-0.0003920739982277,0.0029722182080149,0.0011304890504106
3.730374755859375,-0.0004334047148935,-0.0010186755232512,0.044873745471239,-0.0003902097814716,0.0016201306134462,-0.0007491700234822
3.740353759765625,-0.0074023669446818,-0.0031918365775607,0.0445803154826164,0.0005490861367434,-0.0040562036447227,-0.0003162279608659
3.750332763671875,-0.0104250575004145,0.0071323178316466,0.0411415732055902,3.96233517676e-05,-7.13160261511e-05,0.0003149412223137
3.760311767578125,0.0040044864010065,0.0074384429050609,0.0375520242810249,-0.0001959477667696,0.0015771631151437,-0.0001322390162386
3.77029052734375,0.0002668159763328,-0.0002198898283764,0.0381499901741743,-0.0012423037551343,4.42480668425e-05,-0.0023823438677936
3.78026953125,0.0031102409750223,0.0020588139596395,0.0465279424190521,-0.00305419228971,0.0003717644140124,4.05959581257e-05
3.79024853515625,0.001693725240603,0.0042869383378885,0.0459247158288955,-0.0015516369603574,0.0018580742180347,-0.0001447600516257
3.8002275390625,0.0008588453190401,-0.0042550636285915,0.0388894103646278,-0.0030819217208772,0.000824362039566,0.0015035029500722
3.81020654296875,0.0063832347637042,-0.0026297091827727,0.0441290645837783,0.0003660729853436,-0.0016105659306049,-0.0003796181408688
3.820185546875,0.0070514346151612,-0.002357742107287,0.0535538955330848,-0.0002309376723133,0.0016322247684001,0.0004411221889313
3.83016455078125,-0.0047919469842687,-0.0056984308373183,0.0466688121944665,-0.000477280060295,-0.0012828707695007,-0.0002076238451991
3.8401435546875,-0.0101671006839722,-0.0023035642346367,0.0475625461637973,-0.0002519973786547,0.0013515688478946,0.0026054382324218
3.850122802734375,-0.0039508382513187,-0.0018355813967064,0.0522001428365707,-0.0007734443061053,-0.0005310196429491,-0.0004292336816433
3.8601015625,-0.0085151322258636,-0.0092069138823077,0.0417202498763799,-0.0017672276590019,-0.0003152079880237,-1.51513668242e-05
3.870080810546875,-0.004624664125964,-0.008329875319451,0.0495014052718877,0.0005981919821351,-0.0003684712573885,-0.0002966474858112
3.8800595703125,-0.0014690313729457,-0.0053007732892408,0.0466588753223419,-1.49154802784e-05,-0.0004866365343332,-0.0006711754249408
3.890038818359375,0.0006180040341801,0.0015238485664129,0.0503986463725566,0.0010476858587935,0.0007722396403551,0.0009453633101657
3.900017578125,-0.0016605901559814,-0.0080271295132115,0.0442635046184062,0.0018374561332166,0.0011231182143092,0.0001540943339932
3.909996826171875,0.0020909261309541,0.0014988419893197,0.0364805956572294,0.000882446533069,0.0003561275079846,-0.000310893607093
3.9199755859375,-0.0010070581506937,-0.000229443108011,0.042318800291419,-0.0006072103860788,-0.001024748198688,-0.0008703657076694
3.92995361328125,-0.0043254254510626,0.0034664705341681,0.0478577297180891,-0.0001036066096276,-0.0010050404816865,0.0003166052047163
3.939932861328125,-0.0112347116491757,-0.0057163135538809,0.0433726932585239,0.0012869831407442,-0.0015817135572433,-0.0006541362963616
3.949911865234375,-0.0058135816495865,-0.0042091055950149,0.0315524916052818,-0.0031066997908055,0.0002609277144074,-0.0007409553509205
3.959890869140625,0.0041549825212918,-0.0076478661383502,0.0547422285348176,-0.001811358728446,0.0019025802612304,-0.0011071944609284
3.969869384765625,0.0095131668198853,-0.0089384722044691,0.0490536615043878,-0.0009064166224561,-0.0009483331814408,-0.0008648467482998
3.9798486328125,0.0133902457152493,-0.0044348589085973,0.0441191277116537,0.0005971061182208,-0.0009045312181115,-0.0003642984083853
3.98982763671875,-0.0012092844582162,0.0007068148287944,0.0520493361890316,0.000758493610192,0.0015836600214242,-0.0021784438285976
3.999806640625,0.0055052463527768,-0.0023993710256181,0.0405237335681915,-0.0012722029350697,0.0018806243315339,-0.0015568371163681
4.00978564453125,0.0005244439992122,0.0067575479688122,0.03528583291471,0.0025441069155931,0.0002036318182945,-0.000276921869954
4.0197646484375,-0.0087814915444701,-0.0022669950839132,0.0418745636552572,0.0007896800525486,-0.0001744162291288,-0.0003075882559642
4.02974365234375,-0.0040716881520114,0.0021506386952474,0.0507025977551937,0.0021052816882729,-0.0007627084851264,0.0001672533544478
4.03972265625,-0.002923011307232,0.0033629918933846,0.0447165090829133,-0.0010586746502667,-0.001460819505155,0.001749446731992
4.04970166015625,-0.0132706379235722,-0.0008091974910348,0.0502536849439144,-0.0024203490465879,-0.0005966238677501,0.0013955127215012
4.0596806640625,-0.0039402985909953,-0.0030399704840965,0.0504021535038948,0.0007950879517011,-0.0021380977705121,0.0010999263031408
4.06965966796875,-5.53103838115e-05,-0.0059337556968443,0.0426262588053941,0.0005998783162795,-0.0017242422327399,0.0007068437407724
4.079638671875,0.0015518690844997,-0.0027981428185477,0.0418769017428159,0.0007130885496735,0.0006512748077511,0.0015584826469421
4.08961767578125,0.0034828736796975,-0.0024319398546591,0.0565384643018245,0.0007165506249293,0.0018632793799042,-0.0001965405681403
4.0995966796875,-0.0034648083000443,0.0045535351185128,0.0536965188741683,-0.0022559787612408,0.0002589235082268,-0.0012214268790557
4.10957568359375,0.0039461803425103,-0.0031402342544868,0.0535445431828498,-0.0003592754364944,0.0008517438545823,0.0005503742722794
4.1195546875,0.0041587453809566,0.0069024728648364,0.0391775796562433,-0.0008492419146932,0.0005012797191739,-5.7396806369e-05
4.12953369140625,0.0061148844174109,0.005292151591368,0.0408241778194904,0.0002381267258897,-0.0003834217786788,0.000247801450314
4.1395126953125,-0.0055469666026532,-0.0017968385552056,0.04127250610888,-0.0018457255791872,-0.0003243768587708,-0.0001391414407407
4.14949169921875,-0.0104404012000188,-0.0037725590749643,0.0388788889706134,-0.0016316075343638,0.0007004076614975,0.001106685376726
4.159470703125,-0.0016708558216691,-0.0040824104754254,0.0426204135864973,0.0004419300821609,-0.0005609840154647,0.0015369318425655
4.16944970703125,-0.00602620148696,-0.0073839362388476,0.0399269367188215,0.0015045311301946,0.0004861708730459,-0.0014234379632398
4.1794287109375,0.0002058247704058,-0.0048070166892372,0.0442652581840753,-0.001467038760893,0.0017693741247057,0.0006362692802213
4.18940771484375,-0.0051124841755256,-0.0009554740939289,0.0480061982780694,0.0016057163011282,0.001791744492948,0.001707658986561
4.19938671875,-0.007202460458409,-0.0001577295786701,0.0487497101217508,-0.0007112197345122,-9.86019149422e-05,0.0007529336726292
4.20936572265625,-0.0032025589009746,-0.0003590425707399,0.0474006336003541,0.001749541144818,0.0012236582115292,0.0009068644139915
4.21934423828125,0.0020083076151087,-0.0007847754358313,0.0523363364368677,-0.0022422219626605,-0.0011307364329695,-0.0011377938790246
4.229323486328125,-0.0029827604041434,0.0039455775543116,0.0406628497779369,-0.0007564445841126,-0.000218603760004,-0.0003276603529229
4.23930224609375,-0.0009543233164586,-0.0005768865725025,0.0388625223577022,3.88587941415e-05,0.0012523010373115,-0.0022413441911339
4.249281494140625,-0.0041407530665397,-0.0077463398104533,0.0397597634583711,6.62892707623e-05,-0.0007847510278224,-0.0003467713831923
4.25926025390625,-0.0002143734030425,-0.0041369536742568,0.0457464366525411,-0.0002274831640534,0.0001590801402926,-0.003319445066154
4.269239501953125,-0.0108480138865299,-0.0070702306471765,0.0390109909176826,0.0015379262622445,0.0013092989102005,-0.0015367249725386
4.279218017578125,-0.0063347011805512,-0.0050831119505688,0.0473918657720088,-0.001439154963009,-0.000362854450941,0.000389030581573
4.289197265625,-0.0068736851617693,-0.0090748484678566,0.0448503645956516,-0.0002223566989414,-0.0008590007200837,0.0021270096767693
4.299176025390625,-0.0116476580979302,-0.0040719438803382,0.0458989968657493,0.0009772276971489,-0.0014943107962608,0.001845025923103
4.3091552734375,0.007947926797159,-0.0094910097870044,0.0435065487712621,0.0025282527785748,0.0001869434490799,-0.0011867167195305
4.319134033203125,-0.0006283062324859,-0.0063149735667742,0.0509884289592504,0.0009798510000109,-0.0020645689219236,0.0005949940532445
4.32911328125,-0.0068703424272127,-0.0009710369892418,0.0469482136577367,-0.000475832785014,0.0006156368181109,0.000116424052976
4.339092041015625,-0.0064388191421516,-0.0020425386782735,0.0399169998466968,0.0004634373472072,-0.001847724430263,0.0018190555274486
4.3490712890625,0.0013738639027811,0.0007793686083517,0.0478483773678541,-0.0004478963091969,-0.0001331809908151,0.0011846905108541
4.35905029296875,0.0006831599585711,0.0038421354461461,0.0430564669162035,-0.0022062407806515,0.0002024993300437,-0.00156707665883
4.369029296875,-0.0078742770390585,-0.0006807670720852,0.0484445896953344,0.0001370745594613,0.0005937172099947,3.32168347085e-05
4.37900830078125,-3.92725644633e-05,0.0004139510957524,0.0453051226258277,-0.0011907282751053,-0.0017577847465872,0.0003566166560631
4.3889873046875,0.004354688078165,-0.0028790991002693,0.0490472317636013,0.0001134216436184,-0.0022430131211876,-0.0004694959206972
4.39896630859375,0.0046928339913487,-0.0098750772011466,0.0447065722107887,-0.0003477866994217,-0.0019032098352909,-0.0009847660548985
4.4089453125,0.0014036745191551,-0.0174080117229372,0.0518915152788162,0.0034714522771537,0.0015418557450175,-0.0013975560432299
4.41892431640625,-0.0114811972235329,-0.0047176213727332,0.0447100793421268,0.0010089731076732,-0.0013477643951773,0.0002284314250573
4.4289033203125,-0.0006785568486899,0.0049230990832671,0.0500993711650371,0.0022694473154842,0.000387018546462,-0.0007417581509798
4.438881591796875,-0.0009407697151415,0.0005079677884466,0.0384293916374444,0.0037127025425434,0.000132349319756,0.0003503558109514
4.4488603515625,-0.0090216752422042,-0.0055751332512125,0.049655719050765,0.0002703006612136,-0.0017054975032806,-0.0010153132025152
4.458839599609375,0.0012904416693374,0.0009179185625165,0.0530956303715705,-0.0029806983657181,0.0027322443202137,-0.000730181694962
4.468818359375,0.0066165137966163,0.0039143238995224,0.0486053332149982,0.000122683122754,-0.0014063082635402,0.0013380292803049
4.47879736328125,0.0001655292926356,-0.0007685001544654,0.0436661232471466,-0.0003138450556434,0.0003699678927659,0.0010406505316495
4.488776123046875,0.0072440893767401,0.0015387538745999,0.0435182392090559,-0.0015727212885394,-0.0014463076367974,-0.0006328799063339
4.49875537109375,0.0025989852509461,-0.0051446876783855,0.0447200162142515,-0.0009196635219268,-0.0008752811700105,0.0015035449760034
4.508734130859375,-0.0065163961566984,-0.0068145571193657,0.0427747273653745,-0.0026089064776897,-0.0012015188112854,-0.0008996916003525
4.51871337890625,0.000185768363066,-0.0030955365962348,0.0516056840747594,0.0015096365241333,-0.0008067032322287,0.0001330680097453
4.528692138671875,0.0032750944142229,-0.008391907704994,0.04367839820683,-0.0029045529663562,-0.0020559914410114,0.0004076398909091
4.53867138671875,0.0095461740403436,-0.009395915382076,0.0432306544393301,0.0012141686165705,-0.0003072777763009,0.0009756765211932
4.548650146484375,0.0007768113250844,-0.0044061625370755,0.0445773928731679,-0.0001839909236878,-0.0008455030620098,-0.0023825694806873
4.55862939453125,-0.0064708217156119,-0.0013386099263094,0.0403846173584461,-0.0025889785028994,-0.0003046402707695,0.0020972415804862
4.568608154296875,0.0040259310478344,-0.0086110486146993,0.0496609797477722,0.0009423732990399,0.0006141494959592,-0.0034839450381696
4.57858740234375,-0.0032817250844091,0.0010010120023973,0.0522059880554676,-7.01486133038e-05,0.0026795240119099,0.0012024408206343
4.588566162109375,-0.008079973945301,-0.0003552066458389,0.0513046553015708,0.0024350869935005,0.0005785562098026,0.0016554445028305
4.59854541015625,-0.006480904718209,0.0033751024562865,0.0442699343591928,-0.001347555196844,0.0019747512415051,8.35464161355e-05
4.608524169921875,-0.0038157223632559,-0.0038982312812469,0.0475625461637973,0.0009363717399537,-0.00129134953022,0.0014814395690336
4.61850341796875,-0.0023693412135355,-0.0015244878872297,0.0454693732768297,0.0002206510398536,-1.52578577399e-05,0.0006618701736442
4.628482177734375,-0.0001784070405177,-0.0076245400616899,0.048012628018856,-0.0009636567556299,0.0021695997565984,-0.0003368151956237
4.63846142578125,0.0013042875315994,-0.0087694175141863,0.0445692095667123,0.0013365515042096,-0.0001588156446814,-0.001018714159727
4.648440185546875,0.0033214543065987,-0.0074480144510045,0.0495049124032258,-0.0009463102323934,-0.000890651717782,0.0003251169109717
4.65841943359375,0.0023961013562977,0.0020084720118902,0.0442711034029722,0.0005198809085413,-0.0031041270121932,0.0003533253329806
4.668398193359375,-0.0042819881681352,-0.0011623765765689,0.0450227985531091,-0.0003642885712906,0.0010826280340552,-0.0001380278699798
4.67837744140625,0.0050686450337991,-0.0001120090071111,0.0447217697799205,-0.0007162814727053,0.002652714960277,0.0004360498278401
4.688356201171875,-0.0013798735184594,-0.0028621662317775,0.0496580571383237,-0.0003311884356662,-0.0019710650667548,-0.0002371972805121
4.69833544921875,0.0030375227986834,0.0027756021931767,0.0578922169983386,0.0005750483833253,-0.0008346987888216,-0.0015522578032687
4.708314208984375,0.0020037958367727,-0.0046798649119213,0.0381406378239393,0.0016371168894693,0.0016476335003972,5.33619750058e-05
4.71829345703125,-0.0027925533279776,-0.006533237693645,0.0483171639233827,-0.0015216297470033,0.0019608428701758,-0.0010855959262698
4.72827197265625,0.0021791706699877,-0.003223145031277,0.0523585482686758,0.0014941339613869,-0.0030256593599915,-0.0001961001835297
4.738251220703125,-4.23961033113e-05,-0.0094383297516964,0.0481704489290714,0.0004828419769182,-0.0003003552556037,-0.0012580255279317
4.74822998046875,0.0067833399971947,-0.0056244522856548,0.0438309584200382,0.0015539652667939,-0.0009368509054183,-0.0014854595065116
4.758209228515625,0.0029856099483557,0.0077208583093248,0.0421843602567911,-0.0004433430149219,0.0010775560513138,-0.0008800528594292
4.76818798828125,-0.0080091554651036,0.0024209252703003,0.0369464596033096,0.0015907794004306,0.0004908619448542,-0.0010856487788259
4.778167236328125,0.0022811697397381,0.0015638517832383,0.0384428356409072,-0.0003827852779068,0.0012726122513413,0.000198684138013
4.78814599609375,0.0097571133772842,0.000293229059223,0.0418833314836025,-0.0034659267403185,0.0019421316683292,-3.99351010855e-05
4.798125244140625,0.0056628298009745,0.0034962080853059,0.0484644634395837,-0.0016460588667541,-0.0020677410066127,0.0003492286487016
4.808104248046875,-0.0063296231466345,-0.0012879574513062,0.0376899714469909,0.0003832699730992,-0.0002197735011577,-0.0022252490743994
4.818083251953125,0.0025432547420263,-0.0018680040952749,0.0432306544393301,-0.0006223109085112,-0.0012506237253546,0.0014031078899279
4.828062255859375,-0.0010403028331696,-0.0027896489848382,0.0544558128088712,0.0006837033433839,-0.0008809771388769,-0.0009809539187699
4.838041259765625,-0.0082900547657161,-0.0038034108709543,0.0495166028410196,5.90437557548e-05,0.0006582485511898,-0.0022214592900127
4.848020263671875,-0.0144169036155566,-0.0068832932403311,0.0462234065145254,0.0004598494851961,0.000431346707046,0.0012001700233668
4.857999267578125,-0.0032845015633851,-0.002055873083882,0.0444265862256288,0.0007843282073736,-0.0016119005158543,-0.0001860899792518
4.867978271484375,0.001181811929401,0.0035084647786803,0.0370943436414003,-0.0003288731095381,-0.0029567964375019,0.001424589776434
4.877957275390625,-0.0060682139977812,0.012616941521503,0.036792730346322,-0.002099513541907,0.0018407776951789,0.0007954891189001
4.887935302734375,-0.0047256768150255,0.0029677454981021,0.0450216295093297,0.0005247653461992,-0.0002522002905607,0.0001336935674771
4.897914306640625,0.0018807905116118,0.0021398798392154,0.0459212086975574,0.0015536544378846,0.0002487422898411,-0.0027823979035019
4.9078935546875,-0.0081176938734948,-0.0009416830305941,0.049058922201395,-0.0004967133281752,0.0014903089031577,0.0016328569035977
4.917872314453125,0.0057438408816233,-0.006439312332496,0.0423223074227571,0.0009041841840371,-0.0001660911366343,0.0007151119643822
4.927851318359375,-0.0039893801634199,-0.0056586650825105,0.0460638320386409,0.0020434844773262,-0.0003152275457978,0.0002338787307962
4.937830078125,-0.0038335137482732,-0.0033245961117558,0.0450151997685432,-0.0013540402287617,0.0023406613618135,0.0003571204433683
4.947809326171875,0.000814458188042,-0.0028601386714726,0.0345347222864627,0.000971165834926,0.0018527703359723,0.0006828249897807
4.9577880859375,-0.0162849807760678,-0.0035858043312095,0.0478518844991922,0.0022886868100613,-0.0001146094873547,0.0013676409143954
4.967767333984375,0.0015789580208249,-0.0044054684173315,0.0488999322474002,-0.0019665120635181,-0.000750039704144,-0.0017653016839176
4.97774609375,-0.0026516104873269,-0.0049577685378491,0.0523386745244264,-0.0011419090442359,0.0018687974661588,-0.0006008085329085
4.987725341796875,0.0013788688714616,-0.0008251805114559,0.0442594129651784,0.0010413505369797,-0.0008657360449433,0.0001523334067314
4.9977041015625,0.0065989416073076,0.0017694390916265,0.0512929648637771,-0.0012905779294669,0.0012142769992351,0.0011061873519793
5.007683349609375,-0.0018783976251259,-0.0039326450075022,0.0414145449280738,-0.0022953886073082,-8.64109024405e-05,0.0002441221731714
5.017662109375,-0.0097758363440632,-0.002091218391899,0.0409679702043533,-0.0004308029310777,-5.28739765286e-05,-0.0005533150979317
5.027641357421875,0.0007341412271372,-0.0016986754103563,0.0430593895256519,-0.0024465494789183,0.0015618000179529,-0.0002609000075608
5.0376201171875,0.0002222827148623,0.0026472448394633,0.0393166958659887,-0.0003802455612458,-2.95927748084e-05,0.000245455710683
5.047599365234375,-0.0010138166850432,0.0030669680888764,0.0499397966891527,-0.0022383329924196,0.000405834056437,0.0005003202240914
5.057578125,-0.000163958390057,-0.0055160052088089,0.0470943441301584,-0.0009432618389837,4.16990369558e-05,4.71720995847e-05
5.067557373046875,0.0027742870189249,0.0005201148839667,0.0467950689226388,0.0016016549197956,0.0012044347822666,0.0014131073839962
5.0775361328125,0.001776526419539,0.0016563523722812,0.0559229627519845,-0.0006338752573356,-0.001076865941286,-4.01975376007e-05
5.087515380859375,-0.0005473682170733,-0.005446026978828,0.0481447299659252,0.0006228704005479,0.0003295494243502,0.0001994869671761
5.097494140625,-0.0037656178775243,-0.0030355683036148,0.0403629900485277,0.0002382633974775,-5.50933182239e-05,-0.0010613845661282
5.107473388671875,0.0007996990103274,-0.0004879113811068,0.0457516973495483,0.0005730227567255,-0.0016452660784125,-0.0003583100624382
5.117452392578125,-0.0016857793961651,0.0006283062324859,0.0482955366134643,-0.001865355297923,-0.0016318121924996,0.0008083223947323
5.127431396484375,-0.000170187201444,0.0002796754579059,0.0450064319401979,0.0004539916990324,-0.0012419251725077,0.0018203236395493
5.137410400390625,-0.002858549502585,-0.0046517530622892,0.0367705185145139,-0.0016163816908374,0.0012597246095538,-7.07825383869e-05
5.147389404296875,-0.0036322190225124,7.3485361319e-05,0.0373673153638839,-3.23334243148e-05,-0.0001096725463867,0.0019500240450724
5.157368408203125,-0.0116733405284583,-0.0035602132322266,0.0367658423393964,0.0016308163758367,0.0040204459801316,0.0004260060377418
5.16734716796875,-0.0031427732714451,0.0023548925630748,0.0417015451759099,0.0030401612166315,0.0020052315667271,0.000902711879462
5.177326171875,-0.0014555508368648,0.0005834259111434,0.0424509022384881,0.0001570221502333,-0.0017500985413789,-0.0014452856266871
5.18730517578125,0.0029693711996078,-0.0048514951517805,0.0435024571180343,0.002175964647904,-0.0010366374626755,0.0020935228094458
5.1972841796875,0.0097024423142895,0.0027027378863655,0.0488905798971653,0.0002615560078993,5.82244247198e-05,0.0027057006955146
5.20726318359375,0.0004289112028665,-0.0075845916437916,0.0515846412867307,-0.0014479270903393,0.001397262327373,-0.0010674659861251
5.2172421875,0.0061351782867684,-0.0097848781670443,0.0463484941989183,-0.0011587733170017,0.0004836404696106,-0.000101507299405
5.2272216796875,0.0086675828412175,-0.0048580710230395,0.0405126276522874,-0.0006357285310514,5.7534314692e-05,0.0001269919157493
5.237200927734375,0.002134893136844,-0.0080388199510052,0.0496411060035228,-0.0011706207878887,-0.0004621725529432,0.0001979573862627
5.2471796875,-0.0051047575267963,-0.0088345734385773,0.0451502243250608,-0.001497390680015,-0.0009388774633407,0.0004751924425363
5.257158935546875,3.10709916986e-05,0.0021727774618193,0.0472451507776975,0.0009696038905531,0.0012869238853454,0.0013220943510532
5.2671376953125,0.0086344112239778,0.0016344145351089,0.0435036261618137,0.0008319183252751,0.0021026507019996,0.0001657498360145
5.277116943359375,0.0037329577169381,-0.00078846523026,0.0411100090235471,0.0011394486064091,-0.0002947328612208,0.0005248410161584
5.287095703125,0.0042188050051219,0.0004686404250562,0.0469447065263986,-0.0012890880461782,-0.0006465362384915,0.0004409514658618
5.297074951171875,0.0027569522916339,-0.0066447717767208,0.0475455950289964,0.0007330996450036,-0.0002989927306771,-0.0016718202969059
5.3070537109375,-0.0015447817565873,-0.0068714201394468,0.0375157839238643,0.0026710820384323,0.0009636115282773,-0.000774601357989
5.317032958984375,0.0025901808899827,-0.0082786017899401,0.0472451507776975,-0.0005567520856857,-0.0006863055750727,0.0009363961871713
5.32701171875,-0.0002240910794585,-0.0020724588925018,0.047542672419548,0.0003926648059859,0.0017534168437123,-0.0002580315631348
5.336989990234375,-0.0050560230142436,-0.0077659578263759,0.0490413865447044,0.0001153756165876,-0.0021249428391456,0.0005121029680594
5.34696875,-0.004383439248614,-0.0153343472540378,0.040811902859807,-0.0014194040559232,0.0004063909873366,0.0015920147998258
5.356947998046875,-0.0036656829006969,-0.0066547269151546,0.0460422047287225,-0.0037340931594371,0.001931513659656,0.0001915804605232
5.3669267578125,-0.0081029712283983,0.0006455313619226,0.0363104997873306,-0.003404926508665,8.72751697897e-05,0.0005945167504251
5.376906005859375,-0.0039226168038323,-0.0027286577789112,0.0547165095716714,0.0028149532154202,0.0001474656164646,0.0002542595029808
5.386884765625,-0.0003495258237235,0.0011716010626405,0.0473842669874429,-0.000487100391183,0.0005248356610536,-0.0005888972664251
5.39686376953125,-0.0100270528924651,-0.0037004802194423,0.0460363595098257,-0.0015119421295821,0.0010237200185656,-0.0022598335053771
5.406842529296875,-0.0064217036105692,0.010223872372508,0.0409492655038833,-0.0006392243085429,-0.003030676394701,0.0012555392459034
5.41682177734375,-0.0053328671942465,0.009531761922501,0.0367611661642789,-0.0014942886773496,-0.001391127705574,0.0017589003546163
5.426800537109375,-0.0034878421157598,-0.00282663826067,0.0381102426856756,0.0023004494141787,-0.0007514357566833,0.0014877906069159
5.43677978515625,-0.0003506218022666,8.30934398807e-05,0.043199090257287,-0.0015206570969894,0.0010607922449707,-0.0001260935678146
5.446758544921875,0.000865749983862,-0.0065085416438058,0.0536713844329118,0.0002218491863459,9.88589599728e-05,0.000620124163106
5.45673779296875,-0.0017185856872238,-0.0092371263574808,0.0337713366985321,0.0005612629465758,-0.0018521463498473,0.0002199703012593
5.466716552734375,0.005667505976092,-0.0080405369840562,0.0496340917408466,-0.0004973435425199,-0.0005192337557673,-0.0010370416566729
5.47669580078125,0.0022327092218212,-0.0021881394277326,0.0575654692620038,-0.0003027170314453,-9.60733741521e-05,-0.0015639654593542
5.4866748046875,-0.0053517545578069,0.0076952672103419,0.0460445428162813,0.0025625778362154,-0.0010169949382543,-0.0006062928005121
5.49665380859375,-0.0094410514317452,-0.0018079810037277,0.041106501892209,0.0003998799948021,0.0009081242606043,0.0011030689347535
5.5066328125,-0.0061846434516832,0.0015983203084208,0.0318278014153242,9.94753791019e-05,-0.0009036250412464,-0.0002373000315856
5.51661181640625,-0.0082528462941758,0.0030991167928092,0.0417009606540203,0.0013084448873996,0.0026259366422891,-0.0008488387102261
5.5265908203125,0.0012463285329751,-0.0022861564421094,0.0415495694845914,-0.0002143506426364,0.0003931429237127,-0.0012879938585683
5.53656982421875,0.0064196943165734,0.0062307293494231,0.0491828408420085,-0.0017321858322247,-0.0014119548723101,-0.0018665656680241
5.546548828125,-0.0005775258933193,0.0010392068546265,0.0517284336715936,0.0010486869141459,0.0012645218521356,-0.0003240627702325
5.55652783203125,-0.0017013605577871,-0.0047276678427122,0.0394546430319547,-0.0013108738930895,-0.0005334680899977,-0.0009008174529299
5.5665068359375,-0.0075096084451302,-0.0015975713897496,0.0467874701380729,-0.0008855671039782,-0.0013478631153702,0.0001822901394916
5.57648583984375,-0.0026209230881184,-0.0101058537497185,0.0375128613144159,-0.0024802605621516,-0.0016051977872848,-0.001120918081142
5.58646484375,-0.0005017572433687,-0.0077048022236675,0.0464917020618915,-0.0012730497401207,0.0007775323465466,-0.0003147792303934
5.59644384765625,-0.0104198333360254,-0.0044517004455439,0.0427513464897871,0.0018689010757952,0.0008772239089012,-1.46773891174e-05
5.606423095703125,0.0080250836865976,-0.0062721390720456,0.0458943206906318,-0.0022358288988471,0.000299584120512,-0.0047918558120727
5.61640185546875,-0.0013812434916384,-0.0135416916836053,0.049635260784626,0.0003524324856698,-0.0026321057230234,-1.84095806616e-05
5.626381103515625,-0.0133881268233992,-0.0033860439754091,0.0509843373060226,-0.001444136025384,-0.0031274538487195,0.0011898665688931
5.63635986328125,-0.0084397654347121,0.0007154365266673,0.0405108740866184,0.0017334438161924,-0.0009080665186047,0.0013638091040775
5.6463388671875,-0.0018041998777538,0.0017340207183733,0.0366185428231954,-0.0015558265149593,0.0011162022128701,-9.0010522399e-05
5.656317626953125,-0.0118977604014799,0.0028339630506001,0.0420084191679954,-3.40916449204e-05,-0.0010678768157958,0.0001787222427083
5.666296875,-0.010176051175408,0.0031329459971748,0.0481453144878149,-0.0004886932438239,0.0014706486836075,-6.9750683906e-05
5.676275634765625,-0.0038756541232578,-0.0011539558080956,0.0550274752169847,0.0013705334858968,-0.001746566966176,0.0014641749439761
5.6862548828125,0.006899568521697,0.0090473942053504,0.0494943910092115,-0.0003205738030374,-0.0026360629126429,0.0010798807488754
5.696233642578125,0.0034680597030557,-0.0044013219651766,0.0360287602365016,-0.0024784789420664,-0.0009576510637998,-0.0032552110496908
5.706212890625,-0.0048854156876914,-0.0079031743399798,0.0482984592229127,-0.0005665956996381,-0.0008870773017406,0.0002729447442106
5.716191650390625,-0.0034059907848946,-0.0097102968271821,0.0480021066248416,0.003958442248404,-0.0007083527743816,2.69287338596e-05
5.7261708984375,0.0023651947613805,-0.0108157555847428,0.0441150360584259,0.0008910135366022,-0.0013680178672075,-0.0001616230729268
5.736149658203125,0.0017574015939608,-0.0028533801371231,0.0372322908073663,-0.0034055560827255,0.0027255723252892,-0.0015646587125957
5.74612890625,0.0036268121950328,-0.0066071797126904,0.0469528898328542,-0.0012316176434978,0.0003955727443099,-0.0011052633635699
5.756107666015625,-0.0085910287399776,-0.0052952385975979,0.0433621718645095,0.0004002212081104,-0.0014798389747738,-0.0011289030080661
5.7660869140625,-0.01462046336364,-0.007339001118578,0.0460556487321853,0.0012415138771757,-0.0003916705027222,0.0008157372358255
5.77606494140625,-0.0042730742093175,0.0063094023425132,0.0466582908004522,0.001251452602446,-0.0011219894513487,0.0005216642166487
5.7860439453125,0.0019495083662681,-0.0079776826146058,0.0408218397319316,0.0042392527684569,0.0005009407177567,-0.0002075093070743
5.79602294921875,0.0001256356736645,-0.0054447300708852,0.0474082323849201,-0.0009012694354169,-0.0006929272785782,0.0011237529106438
5.806001953125,-0.0075943093202076,-0.0063453504387289,0.0396282460331916,-0.0015787775628268,0.000671143643558,0.0014254890847951
5.81598095703125,-0.0009538666587322,-0.0030019034960307,0.037984570479393,0.0001155522186309,-0.0026607606559991,0.0003267418360337
5.8259599609375,-0.0016533932302147,-0.0016495755716226,0.0370879139006137,-0.0015324119012802,0.0003584651276469,-0.0017691659741103
5.83593896484375,-0.0035135245462879,-0.0086779763710685,0.0397831443339586,0.0023218868300318,0.0006524557247757,-0.0010439520701766
5.845917724609375,-0.005690010068845,-0.0095331866946071,0.0409825832515955,0.0013485013041645,-0.0021366728469729,-0.0008548675687052
5.855896728515625,-0.0030256131651811,-0.0014084054931998,0.0403846173584461,0.000468892045319,-0.0010467926040291,-4.70055456389e-05
5.865875732421875,1.13068453036e-05,0.0042131607156246,0.0465191745907068,-8.42465087771e-05,0.0006712125614285,0.0011479548411443
5.875854736328125,0.006858670255728,-0.0023903474689461,0.0477151063770055,-5.85665111429e-05,-0.0010996107012033,0.0017018361249938
5.885833740234375,0.0053249396161176,-0.0082105597887188,0.0483130722701549,0.0003821866121143,-0.0003808233886957,-0.0015722539974376
5.895812744140625,-0.0011348675151355,0.0005289375112392,0.0507055203646421,-0.0010371877579018,0.0009608063846826,0.0029907862190157
5.905791748046875,0.0074885656571015,-0.0085867909562774,0.0514525393396615,-0.0017450558952987,0.0025448547676205,0.0008397509809583
5.915770751953125,-0.0009656118954531,-0.0036360914800316,0.0514484476864337,-0.0008242318872362,-0.0005259606987237,-0.001483800355345
5.925749755859375,0.0048419053395278,-0.0008773856227286,0.0516021769434213,0.0003206611145287,-0.000336343422532,0.0021106682252138
5.935728759765625,0.0063149553004652,0.002977061315719,0.0417243415296077,-0.0002200193703174,0.0005298620089888,-0.0020436444319784
5.945707763671875,-0.0009411715739406,-0.0073972889107652,0.0466629669755697,-0.0016741052968427,0.0015559783205389,0.0006669210270047
5.955686767578125,-0.0080430394683964,-0.0050464880009181,0.0504039070695638,-0.0023333884309977,-0.002047412097454,0.0011935944203287
5.965665771484375,-0.00591320609916,-0.0057224510337226,0.0472638554781675,0.0006024803733453,-0.0017038639634847,6.28162160865e-05
5.975644775390625,0.0024718882725574,-0.0071099964019842,0.047113633352518,-0.0003633396700024,0.0003762226551771,0.0010477524483576
5.985623779296875,-0.00423234034013,0.0009144479637965,0.0471060345679521,-0.0003074132837355,0.0020454917103052,0.0006908887880854
5.995602783203125,0.0027399646242149,-0.0053399362558498,0.0381271938204765,-0.0012366083683446,0.0002577845007181,0.0003228308050893
6.005581787109375,0.0078169573612511,0.0036541385933756,0.0402221202731132,-0.0006049065850675,0.0008865566924214,0.0012674540048465
6.015560791015625,0.0008802351669408,0.0046464740989729,0.0396212317705154,0.0010072340955957,0.0003063129261136,-0.0013127661077305
6.025539794921875,0.0014576331960968,-0.0005986052139662,0.0460550642102956,-0.003281520679593,0.0013422826305031,-0.0021125134080648
6.035518798828125,0.0047452034994028,0.0016198380204848,0.0465033924996852,0.0010739288991317,0.0008983565494418,-0.0003236513002775
6.045497802734375,0.0064742375154048,-0.0063769694196991,0.0499421347767114,-0.0015708561986684,0.0003646584227681,-0.0010251279454678
6.055476806640625,-0.0013084522500634,-0.0088793076294474,0.0487467875123023,0.0013510078424587,-0.0015666177496314,-0.0009509496740065
6.065455810546875,-0.0064143422880209,-0.0084118179818615,0.0397685312867164,0.0002394045004621,0.0003314176574349,0.0011244517518207
6.07543505859375,0.0002008746006526,-0.007628047193028,0.0474012181222438,-0.0012928729411214,-0.0028524249792099,-0.0014298050664365
6.08541357421875,-0.0052334619403816,-0.0072200143814086,0.048001522102952,-0.0003655602340586,-0.0009477324783802,-0.0001325794000877
6.095392822265625,-0.0012992825629189,-0.0056214931435883,0.0486029951274395,0.0001464711967855,-0.0017823753878474,-0.0012193440925329
6.10537158203125,0.0025149967619217,-0.0039911519953981,0.0408265159070491,-0.0014066842850297,6.2396749854e-05,-0.0014680833555758
6.115350830078125,0.0060949010753072,-0.0074378583831712,0.0457639723092317,0.0003750785253942,-0.0001312941312789,-0.0019099113997071
6.12532958984375,0.0027720219966024,-0.0031356311446055,0.0388794734925031,-0.0011738159228116,0.0011446271091699,-0.0003394453378859
6.135308837890625,0.0044345483813434,0.0040797070616856,0.0521954666614532,0.0004207845777273,-0.0006382213905453,0.0011613448150455
6.14528759765625,-0.0045254232688806,-0.0050223034077323,0.0509995348751544,-0.0015691294101998,0.0019578281790018,0.0008361728396266
6.155266845703125,-0.0008359941664151,-0.0064741827164776,0.0492009610205888,-0.0009038197458721,0.0008570998907089,0.0002430008316878
6.16524560546875,-0.0033966567009687,-0.0135694564733654,0.0544365235865116,0.001103671034798,-0.0007304102182388,-0.0018297373317182
6.175224853515625,-0.0071159694850444,-0.0075590005448088,0.0369271703809499,-0.0008744493243284,-0.0007701599970459,0.000502100738231
6.18520361328125,0.0008000278038904,-0.0074090889464132,0.0414157139718532,6.75107585266e-05,0.0030999453738331,-0.0012518572621047
6.195182861328125,0.0043809184979647,-0.0095890633339993,0.035431378865242,-2.80416570603e-05,-0.001997192390263,-0.0013128704158589
6.20516162109375,-0.0070363831765018,-0.0040489648635499,0.0492032991081476,0.0013104631798341,0.0004241541028022,0.0012514874106273
6.215139892578125,0.0002615370130166,0.001991064219363,0.0352846638709306,-4.59384173154e-05,0.0004841703921556,-0.0022980207577347
6.22511865234375,-0.0010953940212726,-0.0008956519317813,0.0490501543730497,0.0016438373131677,-0.0005651153624057,-0.0003685605479404
6.23509765625,-0.0042490540129132,-0.0012796280143782,0.0468061748385429,-0.0005815857439301,0.0009634727612137,-0.0012978608720004
6.24507666015625,-0.0071088273582048,-0.0025722981734201,0.0373772522360086,-0.0021400675177574,-0.000969716347754,0.0024108572397381
6.2550556640625,-0.0065378956024535,0.0002201820893213,0.0526385342538356,0.0018793116323649,0.0004629148170351,0.0009000374702736
6.26503466796875,-0.0009609357203356,-0.0010889825467951,0.0566805031210184,-0.000958819175139,0.0010581314563751,0.0012007082113996
6.275013671875,0.001809131781198,-0.0087540920808911,0.0499444728642702,-0.000946426007431,0.0022485107183456,-0.0019033063435927
6.28499267578125,0.0045450047521851,-0.0180471316103823,0.049196869367361,-0.0023440530057996,-0.0007683187723159,-0.0007581471581943
6.2949716796875,0.0037961774125695,-0.010940222214628,0.044560441738367,-0.0005931610357947,-0.0016497690230607,-0.0021421913988888
6.30495068359375,0.0084832392502576,-0.0044367951373569,0.0518920998007059,-0.0008221928728744,0.0006959429010748,-0.0010441701160743
6.314929443359375,-0.0011414251200854,-0.0069309317743405,0.0574286911398172,-0.0016223710263147,0.0011264830827713,-0.0011828033020719
6.324908447265625,-0.0117597949692048,-0.0047711051256395,0.0432119497388601,-0.0011145061580464,0.0005171513184905,0.0005892639746889
6.334887451171875,-0.0020222813415341,-0.0014226349479518,0.0397714538961648,0.0025279931724071,0.0013597523793578,0.0012385366717353
6.344866455078125,-0.0013772431699559,-0.0053017048710025,0.0367798708647489,-0.0016747412737458,-0.0010741101577877,-3.44543441315e-05
6.354845458984375,-0.0016411182705312,-0.0027946904861368,0.0469581505298614,0.0010831020772457,0.0009222719818353,-0.0003074927080888
6.364824462890625,-0.0050491914146579,-0.0038622649187222,0.0355862771660089,-0.0007954917382448,-0.0015938822180032,0.0027053414378315
6.374803466796875,-0.0005500533645041,-0.000313650792744,0.0405237335681915,-0.0008035773062147,-0.0006600022315979,0.0014223380712792
6.384782470703125,0.0001780965132638,-0.0080482453664764,0.0402256274044513,0.0001061585498973,0.0008670538663864,9.52849222812e-05
6.394761474609375,-0.0027323475733399,-0.0050571007264778,0.0454611899703741,-0.0002606024499982,-0.000899183563888,-0.0022398200817406
6.404740478515625,0.0113961492885835,-0.0054467028322629,0.0474088169068098,0.0024829860776662,0.0006848648190498,-2.83310819213e-05
6.414719482421875,-0.0052086197600699,-0.0018953852925449,0.0418745636552572,0.0023881765082478,0.0007347138598561,-0.0008680042810738
6.424698486328125,0.001380750301294,0.0027733006382361,0.047561377120018,0.0007380819297395,0.0008063521236181,0.0023775901645421
6.434677734375,0.0030668036920949,-0.0030615247287787,0.0511503415226936,0.0011571932118386,0.0005620382726192,-0.0010891132988035
6.444656494140625,0.000987038275972,-0.0010203925563022,0.0399292748063802,0.0020301775075495,-0.0017599714919924,-0.0022334735840559
6.4546357421875,0.003985927831009,-0.0024203224821016,0.0423287371635437,0.0013710400089621,0.0013112286105751,-0.0001064221578417
6.464614501953125,-0.0016823453300632,-0.0001400843241252,0.0409808296859264,-0.0014300728216767,-7.33491033315e-05,0.0014885449782013
6.47459375,-0.0064196212513372,-0.000367043214105,0.0302057531714439,0.0012437186669558,0.0006614755839109,-0.0002233707491541
6.484572509765625,-0.0070425571889616,-0.012257551890891,0.0475619616419076,-0.0035821956116706,-0.0008003339171409,0.001523662940599
6.4945517578125,0.004568860551808,-0.0044364298111759,0.0489087000757455,-0.000704929116182,-0.0001544104889035,0.0010234240908175
6.504530517578125,0.0016851035427302,-0.0027441476089879,0.0396346757739782,-8.04178416728e-05,-0.0008723987266421,-0.0009646256803534
6.514509765625,-0.0043743608930148,0.007088789217174,0.0484632943958044,-0.000461791321868,-0.0011315457522869,0.0004075357574038
6.524488525390625,0.0020983057198114,-0.0047003597106784,0.0372357979387044,-0.0027057707775384,-0.0007949220016598,0.0020594946108758
6.5344677734375,0.0023904570668004,-0.0024869579775258,0.0453127214103937,-0.0003616024041548,-0.0002776999026536,0.0014036523643881
6.54444677734375,0.0019531068291515,4.35468807816e-05,0.031695699468255,-0.0006066132336854,0.0023071635514497,-9.51747206272e-05
6.55442578125,-0.0002230316335335,0.0013370207574218,0.0411199458956718,0.0015912509988993,0.0003528548404574,-0.0003703297115862
6.564404296875,0.0032486995976418,-0.0013770787731744,0.0409738154232501,0.0034024668857455,0.000246062874794,-0.0003689981531351
6.574383544921875,-0.0011666691591963,-0.0116985115023329,0.0421726698189973,0.0015121884644031,-0.0001339083537459,0.0019851024262607
6.584362548828125,0.008806388523709,-0.0050676769194193,0.0408288539946079,0.0014520010445266,-0.0007016947492957,0.0001059759742929
6.594341552734375,0.0082793507086113,0.0049969497707672,0.0403846173584461,0.0020002073142677,-0.0012094592675566,-5.71076598134e-05
6.604320556640625,-0.0052348867124877,-0.0038683110670186,0.0387403572827577,0.0004481170908547,-0.0002986583858728,-0.0036057697143405
6.614299560546875,-0.002700509396661,-0.0051336913603357,0.0511620319604873,0.0017281312029808,-0.0009196987375617,-0.0001404272625222
6.624278564453125,-0.0025441132585518,-0.0001200096504762,0.0441302336275577,-0.0014575420645996,0.0022736974060535,0.0004225649754516
6.634256591796875,-0.0053013943437486,-0.0014622911049053,0.0405348394840955,-0.0021923503372818,0.0003143660724163,-0.0004632849013432
6.6442353515625,0.0021257599823176,-0.0009157083391211,0.0426250897616148,0.0005946477176621,-0.000324260443449,0.0009433967643417
6.654214599609375,0.0049733496994711,0.0063983227349817,0.045470542320609,0.0012404627632349,0.0007395129650831,0.0026450466830283
6.664193359375,0.0011809899454936,0.0029752529511228,0.0451730206787586,0.0015736243221908,0.0007759984582662,0.0012101355241611
6.674172607421875,-0.0031108802958391,-0.004656904161442,0.0456219334900379,0.0014255988644436,0.0012213373556733,0.0001771632814779
6.68415185546875,-2.082359232e-06,-0.0048096470377407,0.0423322442948818,0.0009776550577953,-0.0020679328590631,-0.0013813186669722
6.694130615234375,0.0001598302042111,-0.001980670689512,0.0338029008805751,-0.0015123123303055,0.0008843783289194,-0.0006642722873948
6.70410986328125,0.0034809557172469,-0.0035048480494879,0.0481651882320642,-0.0011053814087063,-0.000263444148004,0.0021253889426589
6.714088623046875,-0.0022935360309667,-0.0011505765409208,0.0430786787480115,0.0003538678865879,-0.0018466981127858,-0.0005392075399868
6.72406787109375,-0.0043434725644066,-0.005527129391022,0.0475707294702529,0.0004739764844998,-0.0004788991063833,-0.0014806349063292
6.734046630859375,0.0120784141980111,-0.0042866278106346,0.0483159948796033,-0.0009163283393718,-0.0005877129733562,0.0009603111539036
6.74402587890625,0.0077124558071605,-0.0024439225533977,0.0499620085209608,0.0021028975024819,0.0005585122853517,0.0033457046374678
6.754004638671875,-0.0061618105653673,-0.0076581866029649,0.0429272875785827,0.0017613790696486,0.0007209349423646,0.000635702162981
6.763983642578125,-0.0004862308806739,-0.0089376867531798,0.048913376250863,0.0025486093945801,-0.0015731118619441,-0.0009195838938467
6.77396240234375,-0.0021454875960946,-0.0031446912338957,0.0420282929122447,0.0010962686501443,0.0024371296167373,-0.0005173549288883
6.783941650390625,0.0004804769933223,0.0022540625371038,0.049206221717596,-0.000222262518946,0.0022096959874033,-0.0001266691979253
6.79392041015625,-0.0020636362652294,0.0040132542293518,0.0501058009058237,0.0022050375118851,-0.0011157449334859,0.0012178203323855
6.803899658203125,-0.0025263036072254,0.0036193778072483,0.0384381594657897,0.0025650965981185,-0.0001612678170204,0.0011586981127038
6.81387841796875,-0.0024630656452849,0.0045255693993531,0.0378407780945301,0.0023835159372538,0.0003566918894648,-0.0003368098405189
6.823857666015625,-0.0061107927641831,0.0077619940373115,0.0408311920821666,-0.0014588928315788,-0.0006454549729824,-0.000804460956715
6.83383642578125,-0.0076347691947594,-0.0033295645478181,0.0433773694336414,0.0011857654899358,-0.0006758412346243,1.09927350422e-05
6.843815673828125,-0.0027960969919338,-0.0073111449972726,0.0411322208553552,-0.0032481313683092,0.0006701201200485,-0.0022641457617282
6.85379443359375,-0.000174351919908,-0.0188213856521993,0.0514566309928894,-0.0006908723153173,-0.0031758286058902,-0.0020153883378952
6.863773681640625,0.00073196753636,-0.0202898873021826,0.0481686953634023,0.0006790577899664,-0.0010186685249209,0.0004999671946279
6.87375244140625,-0.0062991914757527,-0.0308441241402178,0.0442798712313175,0.0002204931806772,-0.0010530212894082,0.0011870075250044
6.883731689453125,-0.0129907067373394,-0.0245048198497854,0.0457780008345842,-0.0003619401250034,-0.0008301148191094,0.0008407965651713
6.89371044921875,-0.0091631843384355,-0.0210026752140372,0.0435305141687393,-3.85370803996e-05,0.0023826481774449,-0.000929475063458
6.903689697265625,-0.0002097520268522,-0.0046163894879631,0.0315542451709508,0.0014075594954192,0.0019869031384587,0.0006753457710146
6.91366845703125,-0.0035681590766645,0.005687270122487,0.0433732777804136,0.0006417291588149,-0.0017601503059267,0.0005000346573069
6.923647705078125,0.0160494367208331,0.0133671571006067,0.0468137736231088,-0.0003875826369039,-0.000113783404231,-0.0019095934694632
6.93362646484375,0.0122128177000209,0.0232712777331471,0.043523499906063,-0.0001811184338293,-0.0005733789876103,0.0003568120882846
6.943605712890625,0.008260207616724,0.0215774428946897,0.041878655308485,0.00166178913787,-0.0009419610723853,-0.0002352086303289
6.95358447265625,-0.0024210531344637,0.0097612598294392,0.0432300699174404,0.0007977659115567,-0.0019909562543034,0.0001079574576579
6.963563720703125,-0.0038180056518875,-0.0004160882539115,0.0366448463082313,6.08692644163e-05,0.0012333327904343,-0.0009679595823399
6.97354248046875,-0.0062266376961953,-0.0001412533679045,0.0475713139921426,-0.0026752410922199,-0.0008576912805438,0.0017380309291183
6.983521728515625,-0.0082794968390837,-0.0047959290396422,0.0405354240059852,0.0008968569454737,-0.0007034940645098,0.0006815550150349
6.99350048828125,0.0015593765375204,-0.0141327346456237,0.0459206241756677,-0.0005079361726529,-0.0001428388059139,0.0014269595267251
7.003479736328125,0.0036616460463963,-0.025669863307476,0.0402343952327966,-0.0026840050704777,0.0008121710270643,0.0007486523827537
7.013458251953125,0.003025594898872,-0.0074912142719142,0.0414262353658676,-0.0031128504779189,0.0004544714465737,-0.0001586029538884
7.0234375,0.0089126071108505,-0.0039659444889053,0.0481593430131673,0.0011351576540619,0.0012531541287899,-0.0004345064226072
7.03341650390625,-0.0048945123095996,-0.0053359176678583,0.0373842664986848,-0.0007015726296231,-0.0001427782699465,0.0021993482951074
7.0433955078125,-0.0245475447466596,-0.0024881818202324,0.0418757326990366,-0.0019532584119588,-0.0009190896525979,-0.0011178849963471
7.05337353515625,-0.0209829658665694,0.0077580485145561,0.0504062451571226,-0.0020733249839395,-0.0007550977170467,0.0014363619266077
7.0633525390625,-0.009759816791024,0.0179888803508132,0.0453168130636215,-0.0016464202199131,-0.0002879798412322,-0.0016284039011225
7.07333154296875,-0.0008443784022703,0.0068849189418368,0.0483078115731477,-0.000900378159713,0.0010657515376806,-0.0009973216801881
7.083310546875,0.0002013312583789,0.0045391595332883,0.0450157842904329,0.0005425224662758,0.0024881456047296,-0.0001453764998586
7.09328955078125,-0.0067984645010903,0.0076299651554785,0.0387298358887433,0.0011332856956869,0.0005061477422714,-8.19617634988e-05
7.1032685546875,0.0060097435425035,-0.0007360226569697,0.0518967759758234,0.0013870848342776,0.0017216149717569,-0.0005384275573305
7.11324755859375,0.0081979195028543,-0.0050044389574788,0.0562362664848566,-0.0003682113019749,-0.0001427829265594,-0.0002907725283876
7.1232265625,-0.0029624117358587,0.0069284840889275,0.0563899957418441,0.0027737861964851,-0.0021161846816539,0.0002389301807852
7.133205810546875,-0.0087576357448473,0.0014564458860084,0.0487643231689929,-0.0014833111781626,-0.001610942184925,-0.0022719483822584
7.1431845703125,-0.000266523715388,-0.0044332697397097,0.047865328502655,0.0009942275937646,-0.0002996018156409,0.0020263935439288
7.153163818359375,-0.0078078242067247,-0.0016772855624556,0.0351461321830749,0.0012221459764987,0.0017006220296025,-5.29027965967e-05
7.163142578125,-0.0066894694349728,0.0044035321885719,0.0442711034029722,-0.0013355538249015,-0.0007553454488515,0.0011340680066496
7.173121826171875,0.0005141600672155,-0.0001039535648189,0.0417307712703943,-0.0019549296703189,0.0001591769978404,-0.0024165387731045
7.1831005859375,0.007664104887098,-0.0047217312922701,0.0475689759045839,0.0032275815028697,-0.0008163386955857,-0.0012002729345113
7.193079833984375,0.0026201193705201,-0.0074933148974552,0.0421843602567911,-6.5020751208e-05,-0.0021197516471147,-0.005366098601371
7.20305859375,-0.0094881602427922,-0.0069739854647777,0.0418868386149406,0.0007006381056271,0.0014270460233092,0.0023131258785724
7.21303759765625,-0.0041209706538356,0.003871927796211,0.0426391182869672,-8.82825115695e-05,-0.0006014555692672,-0.0003322089323773
7.223017822265625,-0.0103177612010389,0.0016984014157205,0.0441354943245649,2.14396859519e-05,0.0018664952367544,0.0006092184921726
7.232996826171875,-0.0164149455649778,0.0067072790862992,0.052511108481884,-0.0020029167644679,0.0008709672838449,0.0024825895670801
7.242975830078125,-0.0016335377522744,0.0054027540926821,0.0505628970235586,-0.0013738782145082,0.0015530027449131,-0.0020237453281879
7.252954833984375,0.0030041319857351,0.0035485227944329,0.0432259782642126,0.0012122162152081,0.0019897166639566,-0.001198636018671
7.262933837890625,-0.0016755137304775,-0.0010972937174141,0.035296938830614,0.0012513645924627,-0.0010127313435077,0.0013673196081072
7.272912841796875,0.0097808961116708,-0.0018042364103719,0.0439759198486804,-0.0024072080850601,-0.0006128894165158,0.0017315389122813
7.2828916015625,0.0092138733460567,3.31716172397e-05,0.0492120669364929,0.001242920407094,0.0007602367550134,-0.000179811817361
7.292870849609375,0.0019691081158816,-0.0078891640809364,0.0457692330062389,0.0010447236709296,0.0006056623533368,-0.0010569036239758
7.302849609375,-0.00461702880878,-0.0109042741184122,0.0460679236918687,-0.0003161517088301,0.0004163114354014,0.0003207495610695
7.312828857421875,0.0019622034510597,-0.0138800385261885,0.0457663103967905,0.0025549239944666,0.0008210949599742,0.0013702875003218
7.322807861328125,-0.0054792716613039,-0.0039919739793054,0.0379886621326208,0.0021290846634656,3.30656766891e-05,0.00083445943892
7.332786865234375,-0.011025160551723,-0.0094723416191525,0.0423293216854333,0.0007564815459772,0.0016290014609694,0.0020867125131189
7.342765869140625,-0.00472655359786,-0.0116217382053844,0.0480173041939735,0.0003183914814144,-0.0003305524587631,-0.0010390398092567
7.352744873046875,0.0041385063105262,-0.0069193692007102,0.0555015224695205,-0.0002335070166736,-0.0004390580579638,-0.0008167368359863
7.362723876953125,0.0034262846542522,-0.008777966146823,0.040989012992382,-0.0011339217890053,-0.0015088506042957,0.0002599791332613
7.372702880859375,-0.0047668673419393,-0.0060553362498991,0.0508639257967472,-0.0038132576737552,0.0006907070055603,0.0013839561725035
7.382681884765625,-0.0045970819992944,-0.0013038674064911,0.0493669652372598,0.0010936164762824,-0.0009013302624225,-0.0012693512253463
7.392660888671875,-0.0044230406066402,-0.0048890506831929,0.0457762472689151,-0.0006581891211681,-0.0009427526965737,-0.0004626602167263
7.402639892578125,0.0055807958070188,-0.0095031934151425,0.0400911873698234,-0.0005130468634888,0.000218384899199,-0.0008152627269737
7.412618896484375,0.0032865839226171,-0.0045612982998602,0.0463783048152923,2.14932952076e-05,-0.0010313531383872,0.0011397027410566
7.422597900390625,0.0001520670228637,-0.0190653687422163,0.0519148961544036,-0.0022440578322857,-0.0001663584262132,0.0002235753927379
7.432576904296875,-0.005828998414427,-0.0038091282256878,0.0451812039852142,-0.0008826100965961,0.0016071693971753,0.0003539111057762
7.442555908203125,0.0007411920224316,-0.0031197394557297,0.0430851084887981,-0.0006549098761752,-0.0007201666012406,-0.0010200137039646
7.452534912109375,0.0097955456915311,-0.0051169046223163,0.0418915147900581,0.0014548074686899,0.0010634222999215,-0.0003351505438331
7.462513916015625,0.001989694246184,-0.001811542933993,0.0550596239209175,-0.0016048981342464,0.0018927305936813,0.0008363740053027
7.47249169921875,0.0028455256242305,0.0018849552300758,0.0456301167964935,0.0015691048465669,0.0003865472972393,0.0010836031287908
7.482470947265625,0.0070635999769903,0.0111499742414802,0.0469774397522211,0.000231398968026,-0.0011956365779042,-0.0012703648535534
7.49244970703125,0.0116095545772463,-0.0009837503403425,0.0517670121163129,-0.0011807123664766,-0.0011452455073595,0.0004340318264439
7.502428955078125,0.0070989087523892,0.0022089447537437,0.0441360788464546,0.001959420973435,-0.0020938627421855,0.0008153964881785
7.51240771484375,-0.0039686296363361,0.0070952006916515,0.0450362425565719,-0.0012535233981907,-0.0022153556346893,-0.0026107553858309
7.522386962890625,-0.0001896956195123,0.0009906550051644,0.0511766450077295,-8.17325781099e-05,-0.0013495618477463,-0.0011643924517557
7.53236572265625,-0.0017881255257874,-0.0048268721671774,0.0526776972204446,-0.0004666303284466,-0.0029041646048426,0.0003202412626706
7.542344970703125,-0.0007286065354943,-0.0154631429991684,0.0502811574727296,0.0011557673569768,0.0011294595897197,0.0006259721703827
7.55232373046875,0.0059962264738045,-0.0101135803984478,0.0499772060900926,-0.0022685751318931,0.0014661122113466,0.0001921602233778
7.562302978515625,0.0083580967669375,-0.0129433787305839,0.044590252354741,0.0024883630685508,-0.001679346896708,0.000482444796944
7.57228173828125,0.0022805486852303,-0.0130990624826401,0.0372580097705125,0.0009584312792867,-0.0009230198338627,0.000667133484967
7.582260986328125,0.004079853192158,-0.0020075952290557,0.0529728807747364,0.0024213057477027,0.0004005720838904,0.001500170212239
7.59223974609375,-0.0074142583118751,-0.0060662777690216,0.0466886859387159,-0.0010953355813398,0.0010512014850974,0.0009508719085715
7.602218994140625,-0.0150548909918405,0.0056433213829062,0.0356108270853757,-0.0032588876783847,-0.0021608369424939,-0.0020409231074154
7.61219775390625,-0.0099671393987722,0.0013698818474076,0.0514706595182418,-5.10548707097e-05,0.0007218345999717,0.0019421796314418
7.622177001953125,0.0033541144671849,-0.0029987982234917,0.0531125815063714,-0.0008302957867272,0.0026547573506832,-9.24754276638e-05
7.63215576171875,0.0075119830653071,0.0119096883012913,0.0397901585966348,-0.0012536861468106,-0.0002911696210503,0.0007124405819922
7.642135009765625,0.0079946154830977,7.5914780423e-05,0.0555026915132999,0.0005277022719383,-0.0011127544566988,2.40133886109e-05
7.65211376953125,0.0041544893309473,-0.0056450384159572,0.0439811805456876,-0.0027586566284298,-0.0009078010916709,-0.0005459733656607
7.662093017578125,-0.000209350168053,-0.0092050507187843,0.0519090509355068,-0.001381269772537,0.0007670605555176,0.0003094339917879
7.67207177734375,-0.0079450407203286,-0.0149322875254787,0.0411322208553552,-0.0006046441849321,0.0008623879402875,0.0002306525420863
7.682051025390625,-0.0052664326282218,-0.007834949675668,0.0468161117106676,-0.0015788284363225,-0.0008457638323307,2.31922895181e-05
7.69202978515625,-0.0028911365979351,-0.0079638550186529,0.0475654687732458,0.0011150578502565,0.0002912255004048,0.0034545273520052
7.702009033203125,-0.0141201491586864,-0.0004831621407531,0.0534007507979869,-0.0009747245348989,-0.0007468750700354,7.8643133747e-06
7.71198779296875,0.0036562392189167,-0.0029124351142905,0.0544470449805259,0.0014834927860647,-0.0006781602278351,-0.0005739426705986
7.721966796875,0.0148824387680739,0.006158942754846,0.047563130685687,-0.0020004543475806,0.0005764542147517,-0.0010117663769051
7.731945556640625,0.0134617400488816,0.0033425701598636,0.0520505052328109,0.0010180987883359,-0.0009622015058994,-0.0003331468906253
7.7419248046875,0.0056229727146215,0.0100063754306174,0.0605804331690073,-0.0003691418096423,-0.0004671197384595,-0.0002023856941377
7.751903564453125,-0.004300272743497,-0.0013519625982269,0.0456166727930307,-0.0032588997855782,-0.000481734983623,-0.0013678794493898
7.7618828125,0.0065077196598984,-0.0009574651216156,0.0372363824605941,0.0010658074170351,-0.0003967806696891,0.0027099528815597
7.77186181640625,0.0066252450923435,-0.0006872881444171,0.0520493361890316,-9.55835566855e-05,0.0007064314559102,-0.0012547355145215
7.7818408203125,-0.0017438845252618,-0.0055645935908891,0.048902270334959,-0.0010718983830884,0.0016886051744222,0.0032129834871739
7.79181982421875,-0.0058779703889973,-0.01546889688652,0.0538373886495828,0.0004691407084465,-0.0015930738300085,-0.0013723460724577
7.801798828125,0.001056705978699,-0.0048777621041983,0.0524912347376346,-0.0006027816561982,-0.0004937211051583,0.0023515520151704
7.81177783203125,-0.0010740955049172,-0.0189269283859059,0.0484480968266725,-0.0012549615930765,0.0006941817700862,-0.0010666499147191
7.8217568359375,-0.0064495597318746,-0.0035477921420708,0.038122517645359,-0.0001359013840556,-0.0008853394538164,-0.0014333671424537
7.83173583984375,-0.0061861230227164,-0.0078836293892934,0.0426145683676004,-0.0004343328764662,-0.0010158941149711,2.33351674978e-05
7.84171484375,-0.0039823293681256,-0.008573146023415,0.0405173038274049,-0.0018543303012847,0.0015210332348942,0.0004297335690353
7.85169384765625,-0.0145161079400219,-0.0034500125897116,0.0473994645565748,0.003153312485665,0.0016379421576857,-0.0014966753078624
7.8616728515625,-0.0043995136005803,-0.0068796947774477,0.0460544796884059,0.0027381256222724,0.0006648227572441,-0.0002513812796678
7.87165185546875,-0.0004389028739184,2.76186592876e-05,0.0435153165996074,0.0008151426445692,-0.001770787872374,0.0009782696142792
7.881630859375,0.0048677704331465,-0.0060693099763244,0.0411234530270099,-0.0020802461076527,0.0002002175897359,-0.0013453384162858
7.89160986328125,0.0130979665040969,-0.0033539866030216,0.0518985295414924,-0.0024994583800435,-0.0006410228088498,0.00048880034592
7.9015888671875,0.0055567573443055,-0.010517411958985,0.0469628267049789,-0.0017580343410372,0.001178715378046,-0.0009397192625328
7.91156689453125,0.0001624788190238,-0.0065915437521412,0.0411275446802377,0.0003927997313439,0.0006150789558887,0.0003423229791224
7.921545654296875,0.0033691841721534,-0.0065194283640012,0.0370838222473859,-0.0006812531501054,-0.0002046423032879,-0.0006702108657918
7.93152490234375,0.0018868001272901,-0.0009479483745992,0.0477092611581087,0.0005273551796562,-0.0011353380978107,-0.0023244326002895
7.941503662109375,-0.0027682408706285,-0.011395966625493,0.0500999556869268,-0.0022218259982764,0.0005427198484539,0.0013688390608876
7.95148291015625,-0.0058409993794746,-0.0042883448436856,0.0539870262533426,5.07139484398e-05,-0.0003710277378559,-0.0008140619611367
7.961461669921875,-0.0088042513655498,-0.0102878957857377,0.0442640891402959,-0.0006363815627992,-0.0008346838876605,-0.00194990017917
7.97144091796875,0.0022142967822961,-0.0088098956550471,0.0397732074618339,0.001076549757272,0.0011963937431573,-0.0006572381826117
7.981419677734375,-0.0018078896721825,-0.0073735427089966,0.0444137267440557,-0.0003200119826942,-0.0017466656863689,0.001267161918804
7.99139892578125,0.0055646301235072,-0.001842723523546,0.0454623590141534,-0.0011302869534119,-0.0010589519515633,-0.0008765291422605
8.001377685546874,0.0018013685998506,-0.0051197724328376,0.0430687418758869,-0.0004692904185503,-0.00140249915421,-0.0007050215499475
8.01135693359375,0.0060699492971412,-0.0054238151470199,0.0462163922518491,-0.0004592896439135,-0.0020525529980659,0.0015543370973318
8.021335693359376,0.0059224305852316,-0.0022883849318139,0.045019291421771,0.0013394092675298,-0.0002679685130715,0.0009668436832726
8.03131494140625,-0.0095000698762945,-0.0022618439847603,0.0459171170443296,0.0008537657558917,0.0003987317904829,0.001345811993815
8.041293701171876,-0.0016491919791325,-0.0062220528526231,0.0545990206718444,0.0023989318870007,-0.0015408480539917,0.0005481953267008
8.05127294921875,0.0028563575454987,-0.0064182512781582,0.0454734649300575,-0.0013445622753351,-0.0018162038177251,0.0007629552274011
8.061251708984376,0.0017990122459828,-0.0041285146394744,0.0465156674593687,-0.0009621323551982,0.0022075660526752,-0.0022078009787946
8.07123095703125,-0.0048744011033326,-0.0053495078017935,0.042173254340887,-0.0019648291636258,0.0002386765554547,-0.0003685968695208
8.081209716796875,-0.0006440335245802,-0.007833232642617,0.0375339041024446,-0.0009613500442355,9.48654487729e-05,-0.001345710712485
8.09118896484375,-0.0014437325349077,0.0026798684674315,0.0515992543339729,0.0001513506867922,-0.0006248848512768,0.0002515581436455
8.101167724609375,-0.0011583579885773,0.0018159816470928,0.0345411520272493,-0.0002545150346122,0.0012156255543231,0.0017565104644745
8.11114697265625,0.0019012305114418,-0.004818396599777,0.044118543189764,-0.0006990537513047,-0.0009458316490054,0.0015001808060333
8.121125732421875,0.0002467961016111,-0.006514185933303,0.0415735348820686,-0.0017731066327542,-0.0019823340699076,-0.0003565750666894
8.13110498046875,-0.002725461174827,-0.0076401394896209,0.040226211926341,-0.0016248882748186,0.0006843954324722,-0.0004631521878764
8.141083740234375,0.0005990618716925,0.0036693544288165,0.0408241778194904,-0.0014083732385188,-0.0021430822089314,-0.0011680908501148
8.15106298828125,-0.0018575557664968,-0.002094688990619,0.0454635280579328,-0.0005675165448337,0.0002539921551942,0.0009164857328869
8.16104150390625,0.0032942557724192,-0.0130479898825287,0.0414244818001985,-0.002175266854465,-0.0007074084132909,-0.0016691774362698
8.171020751953124,-0.0056278315528295,-0.0112760300402529,0.051151510566473,-0.0002421423560008,0.0004223929718136,0.001438766834326
8.18099951171875,0.0010416362737305,-0.0115615324507467,0.0474094014286994,0.0004627963644452,0.0007646093145012,0.0001564548147143
8.190978759765626,0.0017258374119177,-0.0084763528517447,0.0391769951343536,-0.0004440399061422,-0.0005607642233371,0.0007550601148977
8.20095751953125,-0.0020707418594509,-0.0034356187381781,0.0411199458956718,0.0002885957364924,0.0011806767433881,-8.14387749414e-05
8.210936767578126,0.0039843386621214,0.0040931145325303,0.0411164387643337,0.0010950608411803,0.0006364164873957,-0.0007354257977567
8.22091552734375,-8.36048965342e-05,-0.0008787190632894,0.0502431635499,0.0001973091857507,-3.70973721146e-05,0.0010459626791998
8.230893798828125,-0.0043529345124959,-0.0132041485586203,0.0472509959965944,-0.0006842445582151,-0.0012907311320304,-0.0004162586992606
8.240872802734375,-0.0122784668147563,0.0024667737060226,0.0493488450586795,-0.0014720075996592,-0.0018249619752168,-0.00018403105787
8.250851806640625,-0.0053387306794524,-0.0075817238332703,0.0476999088078737,0.000264598056674,0.0006283782422542,0.0013379470910876
8.260830810546874,0.0035596104440279,-0.0109645894709043,0.0459007504314184,-0.0016366327181458,0.0008707251399755,-0.0002072189818136
8.270809814453125,0.0117587537895888,-0.0024696232502348,0.0497901590853929,0.0010964632965624,-0.0013658115640282,0.0012813868233934
8.280788818359374,-0.0010724150044843,-0.000283858442679,0.0366010071665048,0.0175787676125764,0.0568311847746372,-0.0018049505306407
8.290767822265625,-0.0136929184562526,-0.0019667700283229,0.0865747061252593,0.0047846846282482,0.0350763723254203,-0.0018785190768539
8.300746826171874,-0.0407921387134119,0.0006936630862765,0.2426549101531505,-0.0051382537931203,-0.0033312030136585,0.0001028726765071
8.310725830078125,0.0725667121041566,-0.0061024633272551,-0.2478244217455387,-0.0077121797949075,-0.042771115899086,0.0007204229477792
8.320705078125,0.001535319808498,-0.0052975218862295,0.0251882172703742,-0.0055555519647896,-0.018546737730503,-0.0015280839288607
8.330683837890625,0.0078025269770994,-0.0017668087431229,0.0181803843349218,-0.0012985636712983,-0.0180544648319482,0.0014058421365916
8.3406630859375,-0.0312644501778297,0.0003772540808655,0.1193576163083314,0.000869515701197,-0.0006328644230961,-0.0004258800763636
8.350641845703125,-0.0022284349055029,-0.006796966663748,0.0372106634974479,4.2614294216e-05,-0.0027224998921155,-0.001308488775976
8.36062109375,-0.0062072023433633,-0.0104308296540752,0.0734258862167596,0.0004247778560966,8.92654061317e-05,-0.0002528117620386
8.37059912109375,0.0078974935178644,-0.0072343717003241,0.0451467171937227,0.0019848213996738,-0.0030490765348076,-0.0001427761162631
