seconds_elapsed,ax,ay,az,gx,gy,gz
0.068213134765625,0.0017537665984593,-0.0079218973067589,0.0366354939579963,-0.0020080502144992,0.0002036476507782,-0.0007007393287494
0.0781923828125,0.0083233725134283,-0.0062663486520759,0.0399310283720493,-0.0017393373418599,0.0007807547226548,0.0005690559046342
0.088171142578125,-0.0005051365105435,-0.0052420653719455,0.0481640191882848,-0.0008237267611548,-0.0014731744304299,-4.88199220853e-05
0.098150390625,0.0007655044797807,0.0054699010447598,0.052061611148715,-0.0006213265587575,-0.003847116138786,-0.0006845164461992
0.108128173828125,-0.0014638985401019,-0.00192035533702,0.0333586642444133,-0.0006676655611954,-0.001230826601386,0.0015962147153913
0.118107421875,-0.0009043832275085,-0.0010963438693433,0.0469797778397798,0.0008687197696417,-0.0020159846171736,-0.0001728409115457
0.128086181640625,-0.0039662184835411,8.0371759831e-06,0.0641910248816013,-0.0005177717539481,-0.0005245925858616,0.0023991544730961
0.1380654296875,0.004987889681477,0.0063500448801554,0.0507277321964502,0.0005597431445494,-0.0013917181640863,-0.0006088860100135
0.148044189453125,-0.0080681191107258,0.005084554988984,0.0546545502513647,0.0016377853462472,0.0001753447577357,0.0002346199471503
0.1580234375,0.0006638342035934,0.0076425323761068,0.042143443724513,-0.0009460136061534,-0.0002723326906561,0.002441847929731
0.168002197265625,-0.0020601108675822,0.0013958930714987,0.0508557424902915,0.0006043229950591,-0.0001912480220198,-0.0003682161914184
0.1779814453125,0.002580225751549,-0.0053387854783795,0.0460340214222669,0.0024925041943788,-0.0020903479307889,-0.0020420129876583
0.187960205078125,2.55728326737e-05,0.0011958039221353,0.0502414099842309,0.0001157929655164,-0.0015530465170741,0.0004968465073034
0.197939453125,-0.0074133084638044,-0.0013228461015969,0.0502449171155691,-0.0003012580564245,0.0043751494958996,-0.0005425852141343
0.20791845703125,-0.0111567327758297,0.0012384009548462,0.0520475826233625,-0.0005544393789023,-9.50982794165e-05,0.0001877912000054
0.217897216796875,-0.0159476385804824,-0.0033510822598822,0.0500742367237806,0.0024591935798525,-0.0013590343296527,0.0005137621192261
0.2278759765625,-0.0056016741982661,-0.0069344754382967,0.0515852258086204,-0.0019188057631254,-0.0006980374455451,-0.0001657808024901
0.237855224609375,0.0048710401024669,0.0007024309146218,0.0490191747128963,-0.0020050923340022,0.0002191551029682,-0.0012909664073958
0.247834228515625,0.0101097079409286,0.0002070851457305,0.0440823028326034,0.0022865349892526,-0.000879319384694,-0.0007930939900688
0.257813232421875,-0.0052499564174562,-0.0027059162241406,0.0427343953549861,-0.0004775598354171,0.0016482872888445,-0.0003872282395604
0.267792236328125,0.0021916830916889,-0.0039263796634972,0.0533574961781501,-0.0001588596496731,-0.0030648950487375,-0.0005115726380608
0.277771240234375,0.0001829005525447,0.0044039340473711,0.0472340448617935,-0.0010443606879562,0.001918944530189,-0.0021723199170082
0.287750244140625,-0.0051545332189649,-0.0009675115915946,0.0469505517452955,0.0010414700955152,-0.0001454027369618,-0.0024947826750576
0.297729248046875,-0.0034745077101513,0.006676372491382,0.0450298128157854,-0.0038187988102436,-0.0021670088171958,0.0005404218682087
0.307707275390625,-0.0012443192389793,0.0003363192822784,0.0478840332031249,0.0002818063367158,-0.0021485136821866,0.0008784456294961
0.317686279296875,-0.0001227313305251,-0.0122926232042722,0.0438309584200382,0.0010575851192697,0.0004850858822464,-0.0007961500668898
0.32766552734375,0.0035382205961272,-0.0086852646283805,0.0545896683216095,0.000270199147053,-0.0010230168700218,0.0021636702585965
0.337644287109375,0.0025606442682445,-0.0024683628749102,0.052503509697318,-0.0002102350699715,-0.0001931758597493,4.32614033343e-05
0.34762353515625,-0.0015818075650371,0.0032637145036831,0.0493558593213558,0.0003277181531302,0.0002650935202836,-0.0010282844305038
0.357602294921875,-0.004985789055936,0.0027722594586201,0.0453097988009452,0.0013311973307281,0.0017034662887454,-3.49253750755e-05
0.36758154296875,-0.003974164327979,-0.0019759031828492,0.0441197122335433,0.0015717664500698,-0.0015332782641053,0.0015722009120509
0.377560302734375,-0.008061616304703,0.0015775515150278,0.0496563035726547,-0.0030291103757917,-0.0014773523434996,0.0001364907802781
0.38753955078125,-0.0181077392238192,0.0018085655256174,0.0586328062325715,0.0007684111478738,0.0006877072155475,0.0001216319433297
0.397518310546875,-0.0004347381554543,-0.0061050936757586,0.043072249007225,-7.39467213861e-05,0.0001356340944766,0.0014244504272937
0.40749755859375,-0.0100150884600356,-0.0032052440484054,0.047561377120018,-0.0010230913758277,-0.0004259636625647,0.0009294211049564
0.41747607421875,-0.0059320569301024,0.0039886677773669,0.0435188237309455,0.0002605522749945,-0.0003822883591055,0.0007371408282779
0.427455322265625,0.0078728705332614,0.0056514316241256,0.052042906448245,0.0025834005791693,0.0017272196710109,0.0005784334498457
0.43743408203125,0.0004766593347303,-0.0040596689206548,0.0438128382414579,-0.0007937538903206,0.0020944699645042,0.0023640829604119
0.447413330078125,-0.0036735556798987,-0.0032575222249142,0.0490484008073806,0.0015916735865175,0.0001048818230628,-0.0008416405762545
0.45739208984375,0.0016415018630214,0.0017745719244703,0.0503968928068876,-0.0013947952538728,-0.0004136357456445,-0.0010954398894682
0.467371337890625,0.0029406382954679,-0.0013098587558604,0.0502560230314731,-0.001509323134087,-0.0002082698047161,0.0006119795143604
0.47735009765625,-0.0073034548811614,-2.11158532649e-05,0.0478618213713169,-0.0002403268590569,0.0023409081622958,-0.0008586180629208
0.487329345703125,-0.0029834910565055,0.008122260450758,0.0504097522884607,-0.0011273197596892,-0.0003138044849038,0.0008813835447654
0.49730810546875,0.0037205366267822,0.0035127390949986,0.0489139607727527,0.0013073419686406,-0.0020232880488038,0.0015248032286763
0.507287353515625,-0.0062128648991696,0.0038176585920155,0.0514496167302131,0.0019867308437824,-0.0003658607602119,0.0018512259703129
0.51726611328125,-0.0060742784123867,0.0078135963603854,0.052199558314681,-0.0014564699959009,-0.0005418956279754,-0.0003024723264388
0.527244384765625,0.0016033070107921,0.0051430437105707,0.0439706591516733,0.0012419014237821,0.0006023300811648,0.0013294586678966
0.537223388671875,-0.0106574780168011,0.0004733713991008,0.0385807828068733,-0.002203163690865,-0.0014019645750522,0.0008679329184815
0.547202392578125,-0.0106913437537848,0.0002608611595816,0.0406704485625028,0.0005741956993006,0.000555669888854,0.0013082232326269
0.557181396484375,-0.0021169556213542,-0.0057403702829033,0.0441132824927568,0.0005137419211678,0.0017956374213099,-0.000183945900062
0.567160400390625,-0.001242821401637,-0.0111686789419502,0.0551823735177516,0.0024018259719014,-0.00078153796494,0.0010794576955959
0.577139404296875,0.010359737179242,-0.0045311588899232,0.0394698406010866,0.0016976862680166,-0.0011040465906262,-0.0009458762360736
0.587118408203125,0.0045595995331183,-0.0060221281000413,0.0515922400712966,-0.0010219368850812,-0.0007274188101291,-0.0017399528296664
0.597097412109375,-0.0028505305929109,-0.0002432889702729,0.0441056837081909,-0.0022424636408686,-0.0006046472117304,0.0008230733219534
0.607076416015625,-0.0050239839081652,0.0011404022067785,0.0385655852377414,0.0011075739748775,-7.07786530256e-05,-0.0009144094074144
0.61705517578125,-0.006192918089684,-0.0009077259620651,0.0508440520524978,-0.0016746304463595,-0.0039089266210794,-0.0009879126446321
0.6270341796875,-0.0059883171619847,0.0024343144748359,0.0498036030888557,-0.0013909393455833,-0.0009411443024873,0.0002144856553059
0.63701318359375,-0.0087978581573814,0.000309504340589,0.0375362421900033,-7.77345849201e-05,0.0007462343201041,0.0011479236418381
0.6469921875,-0.0007151990646496,-0.0049786103964783,0.0468178652763366,-0.0030957600101828,-0.0015589389950037,-0.0003641514631453
0.65697119140625,-0.0075586900175549,-0.0052475269983522,0.0438192679822444,-0.0008091699564829,-0.0011232458055019,0.0013969969004392
0.6669501953125,-0.011485727268178,-0.0108660062009468,0.049655719050765,-0.0022761630825698,-0.0006701312959194,0.0004514956381171
0.67692919921875,-0.0090272282001562,-0.0110230964588001,0.0510036265283823,-0.0014612358063459,-0.0029697716236114,0.0006592221907339
0.686908203125,-0.0113539358483627,-0.0062924329414032,0.0456172573149204,0.0013710579369217,0.0017674583941698,0.0002735528396442
0.69688720703125,-0.0100865645273588,-0.0100134079596027,0.041878655308485,0.0015449621714651,-0.0010530957952141,-0.0003347131423652
0.7068662109375,-0.0006712320587597,-0.0022281061119399,0.0481663572758436,0.0007430058903992,0.0028422372415661,-0.001440338906832
0.71684521484375,-0.0047969884855672,0.0085969835567288,0.0444283397912979,-0.000662344158627,0.0003370018675923,0.000866491231136
0.72682421875,-0.0034417014190927,0.0082344338546507,0.0373971259802579,0.0026383008807897,-0.0009627752006053,0.0019533117301762
0.73680224609375,0.0001375453071668,0.0044532896144315,0.042788755890727,0.0017477398505434,-0.0006338749080896,-0.0023985598236322
0.746781494140625,0.0003235145996324,0.0080101966447196,0.0481821393668651,-0.0005222873296588,8.01943242549e-05,0.000323286949424
0.75676025390625,0.0015131993082351,0.0131148445736616,0.0408563265234231,0.0035584743600338,0.0008663590997457,0.00159388105385
0.766739501953125,-0.0012382730906829,-0.0030183249078691,0.0419090504467487,0.001083934912458,0.0010217120870947,-8.66925765876e-05
0.77671826171875,-0.0044670441451482,-0.0074141121814027,0.0378746803641319,-0.0013621784746646,-0.0007705949246883,-0.0018076272681355
0.786697509765625,-0.0050465062672272,-0.0015826478152535,0.0429588517606258,0.0024886508472263,0.0020298259332776,-9.56016156123e-05
0.79667626953125,0.0014579254570417,-0.0011843144137412,0.0426543158560991,-0.0033343508839607,0.0016596466302871,-0.0002695060393307
0.806655517578125,0.0025104849835857,-0.0020229937275871,0.0369604881286621,-0.0011116113746538,0.0035020960494875,0.0037550723645836
0.816634033203125,-0.0069776204602792,0.0104369123349897,0.096463647454977,-0.0040011410601437,0.0266034211963415,0.0011094881920143
0.82661328125,0.0077849547877907,0.0075512921623885,-0.009606617256999,0.0004576854407787,-0.0224019400775432,-0.0011660412419587
0.836592041015625,0.0088052925451658,0.0012297792569734,0.0494996517062187,-0.002840373199433,-0.0026876227930188,-0.0012190381530672
0.8465712890625,0.0096657087667845,0.0012095036539249,0.049519525450468,-0.0007387439254671,-0.0013437289744615,-0.0021100905723869
0.856550048828125,-0.0070051477880217,0.001456299755536,0.0673234776884317,0.0007723337039351,-0.0032755862921476,-0.0002243061608169
0.866529296875,-0.0092610004234127,0.0083071702972985,0.0330623116463422,-0.000857938779518,0.0028488226234912,0.0001195531367557
0.876508056640625,-0.008991133973468,0.0016392185743898,0.0586474192798137,-0.0008307745447382,-0.0028061335906386,0.001269239699468
0.8864873046875,-0.0075225592582486,-0.01166386031406,0.0427852487593889,8.0678728409e-06,0.0019758623093366,0.0021178787574172
0.896466064453125,-0.0057529009709134,-0.0041006950507871,0.0451776968538761,0.0011670754756778,-0.0004348317161202,-0.0012190621346235
0.9064453125,-0.0021229835033416,-0.0062143079375848,0.0519084664136171,-0.0006659554783254,-0.0009178118780255,-0.000385691266274
0.916423095703125,-0.0012488310173153,-0.005323715773411,0.0454734649300575,-0.0013384036719799,-0.0014909235760569,0.0031989235430955
0.926402099609375,0.0021171017518267,-0.0030337234064005,0.0516086066842079,-0.0026593538932502,-0.0021530985832214,-0.0005839091609232
0.936381103515625,-0.0111615916140377,-0.0026167949022725,0.0529565141618251,0.0005590762593783,-0.0018484331667423,0.0009703116375021
0.946359375,-0.0136443118078634,0.0023124781934544,0.0444260017037391,0.0014750504633411,0.002083696424961,0.0001006179081741
0.956338134765625,-0.0169120996984653,0.0045530967270955,0.0406821390002965,-0.0001665219897404,0.0020794356241822,-0.0012868890771642
0.9663173828125,-0.015006905397959,0.0020930632891133,0.0430769251823425,0.0011248474474996,0.0002628713846206,0.0015893398085609
0.976296142578125,-0.0041179384465329,-0.0017534560712054,0.0403869554460048,-0.0005880977842025,-0.0013792337849736,-0.0010431949049234
0.986275390625,-0.0003151851627044,-0.004837448360119,0.0402396559298038,-0.0019156787311658,0.0007879054173827,-0.0011957753449678
0.996254150390625,-0.0005393127747811,0.0041414837189018,0.0432341615706682,-0.0012413662625476,-0.0019940324127674,-0.0013891209382563
1.0062333984375,0.0086013492045924,-0.0043994588016532,0.0332049349874258,9.68986423686e-05,-0.0008480530232191,0.0003713599871844
1.016212158203125,0.0139325724310241,-0.0019288491707295,0.0396492888212203,-3.41288978233e-05,-7.25397840142e-05,0.0023985581938177
1.02619140625,-0.001225852000527,-0.0013741013647988,0.0424935723364353,-0.0014800750650465,0.0018525617197155,-0.0008278474560938
1.036170166015625,0.0084316917261108,-0.0009413725033402,0.0472813911348581,-0.001697122817859,0.0012253876775503,-0.0006651282892562
1.046149169921875,-0.0025401129368692,0.0117346239953301,0.0528197360396385,-0.0017029242590069,-0.0003055222332477,-0.0023665104527026
1.0561279296875,-0.009292619404383,0.0065746839488856,0.0432446829646825,-0.0034054829739034,0.0001165885478258,-0.0009675520705059
1.066107177734375,-0.0042082836111076,0.0031573497860692,0.0611988573282957,-0.0020337598398327,-0.0001423368230462,-0.0014841149095445
1.0760859375,-0.0009334814578294,0.0045209297568537,0.051768765681982,-0.00027500820579,9.7304582595e-06,0.0013452273560687
1.086065185546875,-0.0109586711867712,-0.0082444620583206,0.0402425785392522,0.0003298418596386,0.0005660969763994,0.0024618036113679
1.0960439453125,-0.006564783609379,-0.0074209620472975,0.0575935263127088,0.0003029439831152,0.0028486931696534,-0.0002346470719203
1.106023193359375,-0.0061766428083181,-0.0057318581828847,0.0540016393005847,0.0018011223291978,0.0005795713514089,0.0006268350989557
1.116001953125,-0.009529003709834,-0.0104172029875218,0.0349918184041976,-0.0013219666434451,0.0001145834103226,-0.0014296579174697
1.125981201171875,0.0017215448292903,-0.0137484845683909,0.0451619147628545,-0.0025139113422483,0.0012721344828605,0.0028696113731712
1.1359599609375,-0.0025080920970998,-0.0007659976701252,0.0484521884799003,0.0008541884599253,0.0003730515018105,-0.0013413787819445
1.145939208984375,-0.0040644181610085,-0.0043672187661752,0.0481546668380498,0.0011978620896115,0.0014115218073129,0.0024013435468077
1.15591796875,0.0023805567272938,-0.0075396017245948,0.0462093779891729,-0.0035207266919314,-0.0010777348652482,0.001165104098618
1.165896240234375,-0.0047596521498635,0.0024538594255223,0.0462134696424007,0.0019590877927839,0.0006476081907749,-0.0003757406957447
1.175875244140625,0.0088125077372416,-0.0113382816215045,0.0450210449874401,-0.0003546665539033,-0.0015822565183043,-0.0021177143789827
1.185854248046875,0.0051273164184764,-0.0041944194825366,0.049812370917201,-0.000480241200421,0.0020076772198081,-0.0001466014800826
1.195833251953125,-0.0071394416921772,0.002013586578425,0.041134558942914,-0.0001212470815517,-0.0008474979549646,0.000689631095156
1.205812255859375,-0.0006861373669467,-0.0039263796634972,0.04144026389122,0.0011459029046818,-0.0003087474033236,0.0007391637773253
1.215791259765625,-0.0115542989923618,-0.0030537980800494,0.0598491962850093,2.76414793916e-05,-0.000638180412352,0.0001743073080433
1.225770263671875,-0.0074222224226221,-0.0037431868500076,0.0475824199080467,-0.0004125197301618,-0.000604934990406,-0.0001998208172153
1.235749267578125,-0.0053409226365387,0.0019892375884577,0.0404003994494676,-0.0010143941035494,0.0010387683287262,0.0006475970731116
1.24572802734375,0.0011680573986843,0.0045278161553665,0.0347159240722656,0.0002835258492268,-0.0010886704549193,0.0014895636122673
1.25570703125,0.0033117366301827,-0.006009579145722,0.0444447064042091,0.0012558458838611,-0.0040644868277013,0.0015769153833389
1.26568603515625,-0.0036105186473578,0.0021910072382539,0.0477355646431446,-0.001057663699612,0.0017097368836402,-0.0001070581492967
1.2756650390625,0.0023759901500307,-0.0055965778980404,0.0478846177250146,0.0021359990350902,0.0004282239824533,-0.0005246417713351
1.28564404296875,0.0026025289149023,-0.0016983831494115,0.0396557185620069,-0.0012897873530164,-0.0003995690494775,-0.0011930452892556
1.295623046875,0.0006160860717296,-6.32927608676e-05,0.052227615365386,0.0001938596833497,-0.0010286075994372,-0.0005283202626742
1.30560205078125,0.0047978652684018,0.0012743855836801,0.0475946948677301,-0.0005320562049746,-0.0009368658065795,0.0003637519839685
1.315581298828125,0.0067407612307928,0.0031645284455269,0.0529769724279642,-0.0012311360333114,0.0007686223834753,0.0015315480995923
1.32556005859375,0.0031932248170487,-0.0021422544593922,0.0502834955602884,-0.000221985974349,-0.0004680408164858,-0.000284658774035
1.335539306640625,-0.0093841701453551,0.0004954188341274,0.054176411345601,-0.0012843209551647,-0.0029450468719005,-0.0005917212110944
1.34551806640625,-0.0076709547529928,-0.0057138841347768,0.0381628496557474,0.0023255494888871,0.0008339434862136,-1.1472548067104073e-07
1.355497314453125,-0.0072044149534776,0.0015781177706085,0.0414531233727931,-0.0004353497060947,0.0031136088073253,-0.0009402105933986
1.365475341796875,-0.0093150686982087,0.0040376214856281,0.0445896678328514,-0.0019712126813828,0.0014199549332261,-0.0022837950382381
1.3754541015625,-0.0088375325806438,0.0024694953860715,0.0409977808207273,-0.0015485691837966,0.0001560179516673,0.0022134850732982
1.385433349609375,-0.0003740574767813,0.0014132825977168,0.0510194086194038,-0.002289711497724,0.0017650043591856,-0.0024604359641671
1.395412109375,0.0092811481622979,0.0030866043711081,0.0547533344507217,-0.0008952803327701,0.0026377225294709,-0.0031493955757468
1.405391357421875,0.0007785466244444,0.0005107077348046,0.0406838925659656,0.000148381688632,0.0006738333031535,-0.0011829618597403
1.415370361328125,-0.0047364722036756,-0.0087802677017636,0.0388882413208484,-0.0010543018579483,-0.0002795783802866,0.0017212152015417
1.425349365234375,0.004776804214064,-0.0034105390958487,0.0526554853886365,0.0013585680862888,0.0012379046529531,0.0016419845633208
1.435328369140625,0.0004420994780026,-0.0044486499719321,0.0486181926965713,-0.000240926456172,2.90954485535e-05,0.0008845815318636
1.44530712890625,0.00494039727794,-0.0037560097989626,0.0463742131620645,-0.0021900618448853,-0.004305656068027,0.0012079139705747
1.4552861328125,-0.0028304376529529,-0.0060241556603461,0.0477238742053508,5.07216900587e-05,0.0001697856932878,0.001265438273549
1.46526513671875,0.0048562991910614,0.0027418825866654,0.0405418537467718,0.0009098121663555,0.0001685628667473,0.0001499659992987
1.475244140625,-0.0021483554066158,-0.0089407920257188,0.0385936422884464,8.23680311441e-05,-0.0001145312562584,0.0010290754726156
1.48522314453125,-0.0015978271180763,-0.0072406735769473,0.0529582677274942,0.0006444426253437,-0.0006425874307751,-0.0003976175794377
1.4952021484375,-0.0022335494720377,-0.0023152912050485,0.0471276618778705,0.0024178414605557,-0.0007589682936668,0.0026003026869148
1.50518115234375,-3.41762642376e-05,0.00035769086387,0.0456330394059419,-0.0023841308429837,0.0007191179320216,0.0005049806204624
1.51516015625,-0.0069574727213941,0.0004069185667671,0.0504191046386957,-0.003382550086826,0.0009473506361246,0.0004602394765242
1.52513916015625,-0.0055199689978733,0.0008881627450697,0.0569996520727872,0.0002639895537868,0.0006392681971192,-0.0002057488454738
1.5351181640625,-0.0093514369195327,0.0051659679284319,0.0517652585506439,0.0012070150114595,-0.0001359786838293,-0.0002515552332624
1.54509716796875,-0.002920928948,0.0017983546588569,0.0558066428959369,-0.0001220740377902,-0.0001157689839601,1.7663307517e-05
1.555076171875,0.0125586902619339,-0.0087452329210005,0.0507218869775533,-0.0003590953419916,0.0009913071990013,-0.0012116518337279
1.56505419921875,0.0158730937732383,-0.0076042279260233,0.0472790530472993,0.0001009246334433,0.0009226230904459,-5.28929922438e-05
1.575033203125,0.0180478805290535,-0.00562763062343,0.0342652576953172,0.0009978773305192,-0.0008979132398962,0.0004264760063961
1.58501220703125,0.0041988216630183,-0.0140539155220612,0.0493798247188329,-0.0004353731055743,0.0006343368440866,-0.002028617542237
1.594991455078125,-0.0012737645291723,0.0034102103022858,0.0665852265417575,0.0012477447744458,0.0009240880608558,-0.0014017093926668
1.60497021484375,-0.0131481075224466,0.0050198191897012,0.0532680643290281,0.0005257809534668,-0.0002724155783653,0.0005595373804681
1.614949462890625,-0.0205365738059394,-0.0034923721604049,0.0517716882914304,-0.0006896857521496,0.0003619492053985,0.0004114655894227
1.62492822265625,-0.0178337993869557,-0.0010412709475494,0.0583569119006395,0.000751644722186,0.0011721234768629,0.0012468906352296
1.634907470703125,-0.0086888630912639,-0.0116557866054587,0.0543137739896774,-0.0003378544352017,-0.0016995631158351,0.0025286702439188
1.644885986328125,0.0012800846721045,-0.0021560820553451,0.0417412926644086,-0.0008848701836541,0.0011395215988159,0.0008869843441061
1.654865234375,0.0063167088661342,-0.0019365575531497,0.046074937954545,0.0012187607353553,7.26589933037e-05,0.0008108179317787
1.664843994140625,0.005568721776735,-0.0068689724540337,0.0532575429350137,0.0002481421106494,-0.0003893095999956,-0.0002512980136089
1.6748232421875,-0.0053609790438786,-0.0042949389812536,0.0433820456087589,0.0013541528023779,0.0019329665228724,0.0011894721537828
1.684802001953125,-0.0118311066397465,0.0050989488405175,0.0499643466085195,0.000569702591747,0.0026016971096396,-0.0009684943943284
1.69478125,-0.0101179095136933,0.0068573916140943,0.0450274747282266,0.0014757100725546,0.0019787838682532,0.0031602040398865
1.704760009765625,0.0057577050101943,-0.0041333004124462,0.0457750782251358,0.0005488764145411,0.0038257967680692,-0.0001420919579686
1.7147392578125,0.0105764304035343,0.0043232700265944,0.0435287606030702,-0.0009251831797882,1.34818255901e-05,0.0016603354597464
1.724718017578125,0.0109278376570902,0.0015576047055423,0.0445785619169473,-0.0013970014406368,-0.000751837156713,0.0006303149275481
1.734697265625,0.0171942228417843,0.000216638425365,0.0502647908598184,0.0007785347988829,0.0011581815779209,0.0003086050855927
1.744676025390625,0.0068768817658536,-0.0002706519012339,0.0436830743819475,-0.0008983651641756,0.0004671225324273,-0.002214481588453
1.7546552734375,-0.0040630664541386,0.0061915846491232,0.0423363359481096,0.00138396397233,0.0021073631942272,-0.0001401453046128
1.764634033203125,-0.0148261420035734,0.0002452251990325,0.0484720622241497,-0.001301678828895,0.0025096237659454,-0.0002709613763727
1.77461328125,-0.0198797355987131,-0.0035936771104112,0.0475701449483633,-0.001914472086355,0.000766584649682,3.15737124765e-05
1.784591064453125,-0.0138681471589952,-0.0001567797305993,0.0424766212016344,-0.0001637957175262,0.0007986929267644,0.0004589128075167
1.7945703125,-0.005137582084164,0.0001584419647231,0.0447159245610237,0.0001142382388934,0.0025779511779546,-0.001947519602254
1.804549072265625,-0.0062019781789742,0.0011675642083398,0.0518938533663749,-1.46970851346e-05,8.86041671037e-05,0.0005260349716991
1.8145283203125,-2.41480605676e-05,0.0005400982260704,0.0369271703809499,-0.0003180311759933,-0.0013098213821649,0.0011835694313049
1.824507080078125,0.0102123645978048,-0.0056232101766392,0.0441103598833084,-0.0003446878399699,0.0002987282350659,-0.0001907387049868
1.834486328125,0.0087025810893625,-0.0023539609813131,0.0485965653866529,0.0005272310809232,0.0019797161221504,-0.0011404219549149
1.844465087890625,0.012176102418825,0.0019991013953462,0.0414145449280738,-0.0004050399293191,-0.0001323707401752,-0.0003275751369073
1.854444091796875,0.0056975175218656,-0.0066314921700395,0.0403729269206523,0.0032695899717509,0.0013981480151414,-0.0009936316637322
1.864423095703125,0.0011607508750632,-0.0049110067866742,0.0463625227242708,-0.0008387166308239,-0.0002452321350574,-0.0022691872436553
1.874402099609375,-0.0045303003733977,-0.0054233767556026,0.0536935962647199,-0.0008658808656036,0.0014538643881678,-0.0002624953922349
1.884381103515625,-0.0118654107681475,-0.0018294439168646,0.0460620784729719,0.0015557392034679,-0.0008279513567686,-0.0025969017297029
1.894360107421875,-0.0018294439168646,-0.0014834982897154,0.0453144749760627,0.0010486731771379,-0.0001999782398343,4.86825229017e-05
1.904339111328125,-0.0004950169753283,-0.0004864866090007,0.0493564438432455,-0.0013212353223934,0.0007522152736783,-0.0006837064865976
1.914318115234375,-0.0115445813159458,-0.0037940585207194,0.0417190808326005,-0.0024935589171946,0.0011532874777913,0.0004321580345276
1.924301025390625,-0.0090972794953733,-0.0006568199409171,0.0442605820089578,-0.0002942002029158,0.0009906878694891,-0.000676130875945
1.934280029296875,-0.0110923623027279,0.0006800729523412,0.0489005167692899,-0.0015205859672278,-0.0011955006048083,-0.0001786523935152
1.944259033203125,-0.0041607181423343,-0.0013014927863143,0.0466588753223419,0.0003871115623041,0.0001387000083923,-0.000723022094462
1.954238037109375,-0.0057703818286769,0.001589735143166,0.0512993946045637,0.0003226629924029,0.0002279160544276,0.001331873005256
1.964217041015625,-0.0040498781790025,-0.0050675307889468,0.0524970799565315,-0.0017223379109054,-0.0017337203025817,-0.0024806447327136
1.97419482421875,0.000499090362247,-0.0104530414858832,0.0536994414836168,-0.0002863614354282,-0.0025220168754458,-0.0006430635112337
1.984174072265625,0.0158480141309089,-0.0105855087591335,0.0471112952649593,-0.0022424161434173,0.0017676828429102,-0.0004263168375473
1.994153076171875,0.0009032324500381,-0.0035927820612676,0.037085575813055,-5.72924618609e-05,-0.0020182663574814,-0.0015451107174158
2.004132080078125,-0.0025310711138881,-0.0065953614107333,0.0459147789567708,-0.0007093811873346,-0.0016143331304192,4.71498751721e-05
2.01411083984375,0.0056631585945375,-0.0009164024588651,0.038435821378231,-0.00212431862019,-0.0016020834445953,-0.0008681785548105
2.02408984375,-0.006859693169035,-0.0001513363705016,0.0454635280579328,0.001484811422415,-0.0013884333893656,-0.0010405046632513
2.03406884765625,0.0045860126160085,-0.0001161371929571,0.0306482362419366,-4.17124247178e-05,-0.0005846917629241,-0.0016564938705414
2.0440478515625,0.0011327486232854,-0.0003570698093622,0.0411263756364583,0.0027003814466297,0.0009221509099006,-0.0002149788342649
2.05402685546875,-0.0057396944294683,0.0058573111934587,0.0460685082137584,0.0009062098106369,-0.0017468687146902,0.0004180545511189
2.064005859375,-0.0002590710612945,0.0104531693500466,0.0382914444714784,0.0025649038143455,-0.0018915859982371,0.0002119938435498
2.07398486328125,-0.0029353775984607,0.0022959471837617,0.0420341381311416,0.0006306499126367,0.0020964974537491,-0.0012034762185066
2.0839638671875,-0.0083253818074241,-0.0081834525860846,0.0384393285095691,-0.0006173327565193,0.0003044633194804,-0.0014573081862181
2.09394287109375,-0.0022060404106043,-0.0041688101172447,0.0511573557853698,-4.55520348623e-05,3.14889475703e-05,0.0028655347414314
2.103921875,0.0003847615338861,-0.0031544637092389,0.0447200162142515,-0.0006137859309092,0.0025181034579873,-0.0009578742319718
2.11390087890625,0.0003009557079523,-0.0034673473170027,0.0492038836300373,-0.003119554137811,0.001642988063395,-0.0012183315120637
2.1238798828125,-0.0047641273955814,-0.0022909239487722,0.0390308646619319,-0.0006560080801136,-0.0017372658476233,0.0023497296497225
2.133859130859375,-0.0025854864485561,-0.0015705372523516,0.0432224711328744,0.0005107227480039,0.0006878087297081,0.0015539769083261
2.143837890625,-0.0051293805113993,0.0002241458783857,0.050252515900135,-0.0009514924022369,0.0001221718266606,-0.0007772654062137
2.153817138671875,-0.0075263221179135,-0.0066995707038789,0.0502519313782453,0.0001055162283591,-0.0003425497561693,-0.0011557006509974
2.1637958984375,-0.0073455587235279,-0.0021918657547794,0.0421726698189973,0.0009704341064207,-0.0018403846770524,0.0004428996471688
2.173775146484375,-0.0071662383675575,-0.0047359972796402,0.0462111315548419,0.0002907954039983,0.001615067012608,0.0005430345190688
2.1837529296875,-0.0084187957119196,-0.0046611054125241,0.0427665440589189,5.11853140778e-05,0.0004362566396594,0.000253368547419
2.193732177734375,-0.0038163616840727,0.0024841632322408,0.037976971694827,0.0006133785936981,0.0003744708374142,0.0012496571289375
2.2037109375,-0.0044884339930489,-0.0014519341076724,0.0378244114816188,-0.0006352927302941,0.0001543881371617,0.0006327246082946
2.21368994140625,-0.0054596536453813,-0.0011029745395295,0.0373754986703395,-0.0023136166855692,-0.0004192572087049,0.0001669377088546
2.223668701171875,0.0084103932097554,-0.005565616504196,0.0438128382414579,0.0003506153007037,-0.0025355657562613,-2.37925196415e-05
2.23364794921875,-0.0022515417864546,0.0036281456355936,0.0396270769894123,-0.0004677741380874,0.0004218742251396,-0.0011127589968964
2.243626708984375,0.0004933912738226,-0.0017991218438372,0.0457628032654523,-0.0006957509904168,-0.0020000468939542,0.0005819879006594
2.25360595703125,0.0005096665551885,0.0052848085351288,0.0421726698189973,0.0011058775708079,0.0002487264573574,0.001553775393404
2.263584716796875,0.0032984204908832,-0.0020914375876076,0.0345452436804771,0.0008866454008966,-0.000286609865725,0.0010457009775564
2.27356396484375,0.0031636881953105,0.0054775546282529,0.046956981486082,-0.0022505582310259,0.0017672199755907,0.0018478450365364
2.283542724609375,-0.0075057542539201,0.0044822599805891,0.0417173272669315,-0.0005814885953441,0.0005627265200018,-0.000744913064409
2.29352197265625,-0.0030547479281201,-0.0018949469011276,0.0444108041346073,-0.0003854799433611,0.0005928203463554,0.0009153015562333
2.303500732421875,-0.0047610221230424,-0.0078693451356142,0.0566799185991287,-0.0011578943813219,0.0024318844079971,0.0012107235379517
2.31347998046875,-0.0004260799249634,-0.0095754732000641,0.0387187299728393,-0.0003336460213176,0.0007801922038197,-0.0004052826261613
2.323458740234375,-0.0138516892145387,-0.0049791218531318,0.0497884055197238,-0.000787082419265,0.0001243026927113,-0.0003524983476381
2.33343798828125,-0.0122644200230948,-0.001874616499152,0.0405114586085081,0.0013690127525478,0.0007144594565033,0.0016616503708064
2.343416748046875,-0.0015627375383861,0.0030565380264073,0.0390168361365795,0.0007116200285963,-3.26912850141e-05,0.0001218881225213
2.35339599609375,0.0040190629156306,0.0074710117341019,0.04545008405447,0.000123594130855,-0.0017062220722436,-0.0014262073673307
2.363374755859375,0.0032981282299384,0.005552446495369,0.0559223782300949,0.0011202858295291,0.0003033094108104,1.81789691851e-05
2.37335400390625,0.001147507801,0.0103140531403012,0.0484410825639963,0.0021296238992363,0.0006889356300234,0.0019047622336074
2.38333203125,0.0065044317242689,-0.002706062354613,0.0491910241484642,0.0038090741727501,-0.0005749054253101,0.0013152507599443
2.39331103515625,0.0033600510176271,-0.0046573425528593,0.0369207406401634,-0.0023612037766724,0.0009524170309305,-0.001415021950379
2.4032900390625,-0.0085829184987582,-0.0106013639153912,0.0542775336325168,-0.0005116492975503,-0.0009663412347435,-0.0014502570265904
2.413268798828125,0.0016983831494115,-0.0088596530809067,0.0499421347767114,0.0015754699707031,0.0002291519194841,-0.0003216092591173
2.423247802734375,-0.0048367907729931,-0.0068100818736478,0.0432113652169704,0.0009321446996182,-0.0019258223474025,-0.0027630622498691
2.433226806640625,-0.0037541831680573,-0.0103807069020345,0.0569791938066482,0.0001558333169668,-0.0009457785636186,0.0032753893174231
2.443205810546875,-0.0092770017101429,0.0055180145028047,0.0421662400782108,0.0011883232509717,-6.78189098834e-05,-0.0017172031803056
2.453184814453125,0.0014618892461061,0.0178062537929043,0.0421633174687623,-0.0016247737221419,0.0007875878363847,0.0008490188047289
2.463163818359375,-0.0006203238554298,0.0066276562451384,0.0481499906629323,0.0002521669957786,-0.0016940785571932,0.0014122655848041
2.473142822265625,0.0045934287374839,0.0029753808152861,0.0460556487321853,-0.0004450485575944,-0.0016099223867058,0.0005960067501291
2.483121826171875,0.0086798760672099,0.0035588980579748,0.0462123005986213,-0.0007911094580776,-0.0011946558952331,0.0011771081481128
2.493100830078125,0.002951086624246,-1.55263626947e-05,0.0375362421900033,0.0007700355490669,-0.0008260738104581,0.0005315578891895
2.503079833984375,0.0035000622765161,-0.0060108212547376,0.05085866509974,-0.0023975207004696,-0.0019772993400692,0.0013773259706795
2.513058837890625,-0.0058805642048828,-0.0018533910480327,0.054450552111864,-0.0035075261257588,-0.0006252126768231,-0.000212581231608
2.523037841796875,-0.008678853153903,-0.0079604392188601,0.0417301867485046,-0.0004832287086173,0.0007176091894507,0.0013112776214256
2.533016845703125,-0.0021703845753334,-0.0002210588721558,0.0424736985921859,0.0003130564000457,-0.0011388808488845,0.0007016800809651
2.542995849609375,0.0058296560015529,-0.0052509793307632,0.0319961437195539,-0.002044174587354,0.0005540298298001,-0.0001780441671144
2.552974853515625,0.0002570617672987,-0.0098950240106321,0.0563800588697195,0.000778776127845,0.0017423322424292,-0.0014928467571735
2.5629541015625,-0.0072560355428606,-0.0015917809697799,0.0418593660861253,0.0006122968625277,0.0006676875054836,0.0011659144656732
2.572932861328125,0.0006330920054577,0.0037260530521161,0.0406605116903781,-0.0023238384164869,0.0015353458002209,-0.0002325114182895
2.582910888671875,-0.0005324446425773,0.0056995816147886,0.0424573319792747,0.001461750594899,0.001160318031907,-0.0002793141175061
2.59289013671875,-0.0159936148803681,0.0007459047301672,0.0415542456597089,-0.0008235078421421,0.0007171677425503,0.000950533663854
2.602868896484375,-0.0063456426996737,-0.0016865831137634,0.0491898551046848,0.0037998552434146,-0.0009728856384754,-0.0005026470753364
2.612847900390625,-0.0019523031115531,0.0010661496604792,0.0517354479342699,5.46515220776e-05,-3.33227217197e-05,0.0011354632442817
2.62282666015625,0.0057536864222027,0.0003627871640957,0.0387163918852806,0.00058049778454,0.0009781662374734,-0.0009235284524038
2.632805908203125,0.0095851726101711,-0.0081403075641021,0.0378173972189426,-0.0008317764732055,0.0004652412608265,-0.0003051424282602
2.64278466796875,-0.0093304306641221,0.0015104228292591,0.0420084191679954,-0.0022090841084718,-0.0005483580753207,0.0013575367629528
2.652763916015625,-0.0056638527142815,0.0024125593007542,0.0505365935385227,-0.0001709669595584,-0.0011963052675127,-0.0013554254546761
2.66274267578125,-0.0073094096979126,0.0036263007383793,0.0527753123760223,0.0009704638505354,0.0018258495256304,-0.0013940412318333
2.672721923828125,-0.0143404956447891,0.0058779155900701,0.0430552978724241,0.0003409232595004,-0.0015688901767134,0.0010958564234897
2.68270068359375,-0.0121642110516317,-0.003453245726414,0.0406646033436059,-0.0006447936757467,0.0006204396486282,-0.0002037520898738
2.692679931640625,0.0005650317379273,-0.0022500622154213,0.0465010544121265,0.000749104830902,-0.0008690664544701,-0.0024048548657447
2.702658935546875,0.0027829087167978,-0.008568652511388,0.0484451742172241,-1.40879419632e-05,0.0013122465461492,-6.14365417277e-05
2.712637939453125,0.0022536972109228,0.0014088621509261,0.0394639953821897,-0.0007509846473112,-0.0003032265231013,-0.000255314662354
2.722616943359375,-0.0021984233597293,0.0005096665551885,0.0427542690992355,-0.0020409193821251,0.0008624894544482,-0.000189200261957
2.732595947265625,0.0016423055806197,-0.0053242637626826,0.0443967756092548,0.0002885475987568,0.0019077798351645,0.0011996382381767
2.742574951171875,-0.0053797750758938,0.0006233925953507,0.0541226353317499,0.0012178211472928,-0.0008593956008553,-0.000680977187585
2.752553955078125,-0.0148589848272502,0.0013810060296207,0.057716275909543,0.0007440447225235,0.000595754943788,0.0003872167435474
2.762532958984375,-0.0023648294351994,0.003331939167995,0.0460515570789575,0.0034112799912691,-0.0009355526417493,-0.001294340705499
2.772511962890625,0.0009339015829376,0.0002853562800213,0.0476969861984252,-0.0010495146270841,0.0004197303205728,0.0007096880581229
2.782489990234375,-0.0009747450499795,0.0052390879635699,0.0439572151482105,0.0001765516353771,-2.90842726826e-05,0.0012656894978135
2.792468994140625,-0.0026739501832984,0.0013122699086554,0.0458978278219699,-0.0025380086153745,0.0008921036496758,0.0001391723490087
2.8024482421875,0.0021665121178142,-0.003495879291743,0.0524795442998409,-0.0014292760752141,0.0021357145160436,0.0003715911589097
2.8124267578125,-0.0040117198593914,-0.0017334361964836,0.0379652812570333,6.12952280789e-05,-0.0018419828265905,-0.000116299939691
2.822406005859375,-0.0131728035722859,-0.002623918762803,0.0450011712431907,-0.0021675387397408,0.0006481511518359,-0.0005585102480836
2.832384765625,-0.0045737559226341,0.0020003435043618,0.0452957702755928,-0.0023142788559198,0.0010761208832263,4.68262369395e-05
2.842364013671875,-0.0090193554209545,0.0089582546171732,0.0382628028988838,-0.0004363001789897,-0.0013739820569753,0.0032799313776195
2.8523427734375,0.0065884384796023,-0.0020086912075988,0.0473906967282295,-0.0004799760354217,0.0009363098070025,0.0004950636648572
2.862322021484375,0.0003349493090994,-0.0053330133247189,0.0333212548434734,-0.0025271303020417,0.0004170183092355,0.0020075226202607
2.87230078125,0.0090488372437655,0.000260623697564,0.037359716579318,-0.0007369534578174,0.0032018851488828,-0.0007166247814893
2.882280029296875,0.0134634205493144,-0.003425882795453,0.0452875869691371,-4.74454718641e-05,-0.0020872540771961,0.0006448617205023
2.8922587890625,0.0057233826154842,-0.003941577232629,0.0436444959372282,-0.0001377266598865,-0.0016632787883281,0.0010691033676266
2.902238037109375,-0.0029262261776253,-0.0049698973670601,0.0565180060356855,-0.0012577374000102,0.0012410590425133,-0.0009245704859495
2.912216796875,-0.0012530505347065,-0.0098281510531902,0.0433522349923849,0.0018925159238278,0.0002168072387576,0.0002639982849359
2.922192626953125,-0.0087061064870096,-0.001680884025339,0.0415554147034883,-0.0012403912842273,-0.0020467629656195,-0.0015348294982686
2.932171630859375,-0.0067388798009604,-0.0048718438200652,0.0446948817729949,-0.001051839441061,0.0008422341197729,0.0016500448109582
2.942150634765625,-0.0032499051740393,-0.0111053313821554,0.0458913980811834,-0.0011671201791614,0.0002154605463147,0.0001700809807516
2.952129638671875,-0.0041274369272403,-0.0071145081803202,0.0559136104017496,-0.0011777728796005,0.0017819311469793,0.0006364005384966
2.962108642578125,0.0005915544186718,-0.005721574250888,0.0457347462147474,0.000158192415256,-0.0001609632745385,0.0015679813222959
2.972087646484375,-0.0099445805070921,-0.0018297909767366,0.0416927773475646,-0.0006942853797227,0.001217489130795,-0.002022492699325
2.9820654296875,-0.0011272687305696,-0.0073752414757385,0.0445353072971105,0.0012823611032217,-0.0003491174429655,0.0023051518946886
2.99204443359375,0.0009928286959417,0.0003087736882269,0.0503694202780723,0.0006807529134675,0.0021185670047998,-0.0002038122911471
3.0020234375,-0.0174273009452968,-0.0085088303492404,0.0485737690329551,-0.002451429143548,-4.61917370557e-05,0.0014216233976185
3.01200244140625,-0.0102421569478698,-0.0038756175906397,0.0484276385605335,0.0007909693522378,-0.0015064030885696,-0.0019906850066035
3.0219814453125,-0.0055912076031789,0.0013382993990555,0.0406488212525844,-0.0006090739043429,0.0001995218917727,0.0001706627081148
3.031960693359375,-0.0069904982081614,-0.0051577846219763,0.03705751876235,0.0001608459861017,0.0025074174627661,0.0001674669038038
3.041939453125,-0.0108464612502604,0.0022834164957515,0.0422942503720521,0.002187178004533,-0.0019748071208596,-0.0007418910390697
3.051918701171875,-0.009607329643052,-0.0017950119243003,0.0455892002642154,-0.0014469716697931,0.0013754498213529,0.0009177909814752
3.0618974609375,-0.0101013419713824,-0.0015025135174393,0.0491758265793323,-0.0009942590259015,0.0036123851314187,7.8486555139e-06
3.071876708984375,-0.0048403709695674,-0.0037267289055511,0.0562035332590341,-0.0007881303899921,-0.0005914140492677,0.0004462049691937
3.08185546875,0.0038566936944611,0.0036520562341436,0.0494675030022859,0.0006556288572028,0.0003859139978885,0.0006658412748947
3.091834716796875,-0.0085730181592516,-0.0053089383293874,0.0404927539080381,0.0005901150871068,-0.0010370127856731,-0.0012545642675831
3.1018134765625,-0.0103338720856234,-0.0052331331468187,0.0473760836809873,-0.0004062246298417,0.0016116127371788,-0.0020712404511868
3.111792724609375,-0.0041955337273888,0.0034656485502608,0.0364519540846347,0.001255587907508,0.0010243859142065,-0.001420896500349
3.121771484375,-0.0008288520395755,-0.0028135047844611,0.044383331605792,0.0016476485179737,-0.0006724270060658,0.0009591260459274
3.131750732421875,-0.0043725707947276,-0.0056477783623151,0.0490232663661241,-0.0010405463399365,0.001006162725389,-0.0008278550230897
3.1417294921875,-0.0017229513350874,-0.0117308063367381,0.0325631299525499,0.0025397506542503,-0.0020106742158532,0.0012013980885967
3.151708740234375,-0.0122392673155292,-0.0010979147719219,0.0458826302528381,0.0005050955805927,0.0021374654024839,0.0006282858084887
3.1616875,-0.0096506207955069,0.0010021262472495,0.0452817417502403,0.0007326042396016,0.0023308536037802,0.0017849114956334
3.17166552734375,-0.0014040215790271,0.0066411367812193,0.0502191981524229,-0.0023369551636278,-0.0004846407100558,0.0001167073205579
3.18164453125,-0.001194653144665,0.0083228610567748,0.0427332263112068,-0.0018004733137786,0.0030279364436864,-0.0002614398545119
3.19162353515625,0.002963197187148,0.0070368581005372,0.05425298371315,-0.0001895272289402,-0.0015649506822228,0.0004735926049761
3.2016025390625,0.0095976850318722,0.0059377925511449,0.0458738624244928,-0.0024460097774863,0.0004943422973155,0.0011756581952795
3.21158154296875,0.0087519001238048,0.0003678469317033,0.034200375765562,-0.0045126224867999,0.0001486642286181,-0.0010201181285083
3.221560546875,-0.0001024739937856,-0.0060482671882957,0.0395814842820167,-0.002631806069985,-0.0002230256795883,-1.23965219245e-05
3.23153955078125,0.0051859330042265,-0.0072380432284437,0.0407762470245361,-0.0005686553195118,0.0005482258275151,0.0008808277198113
3.2415185546875,-0.0047623372972942,-0.0079016582363285,0.0428746806085109,-0.0014787779655307,-0.0018296055495738,0.0010636115912348
3.25149755859375,-0.0036384843665175,-0.0119686154142953,0.0479600210487842,0.0001833009300753,-0.0001696571707725,-0.0013473480939865
3.2614765625,-0.0022645473985001,-0.0015774601834826,0.0409288072377443,0.0014567001489922,-8.52011144161e-05,0.0013920195633545
3.27145556640625,0.0050410081082023,0.0031138942368328,0.0455681574761867,-0.0001015154412016,0.0011177491396665,0.0004865447408519
3.2814345703125,0.0027210407280363,0.004524144627247,0.0412251598358154,6.96596107445e-05,-0.0003456259146332,0.0007308023050427
3.29141357421875,0.0020530235396698,0.0109056440915912,0.0410790293633937,0.0013876579469069,-0.0029853507876396,0.0005529031041078
3.301392578125,-0.0010207213498651,0.0031494952731765,0.0445230323374271,0.0008495839429087,0.0008334014564752,0.001185369445011
3.31137158203125,-0.0065632127068005,0.0017261662054806,0.0551449641168117,0.001682354370132,0.001930090598762,0.0009427554905414
3.3213505859375,-0.0103573990916833,0.0026302023731172,0.0521533810853958,0.0016446823719888,-0.0002841586247086,0.0002180188312195
3.33132958984375,-0.0114048440516926,-0.0076961805257946,0.0506570050477981,-4.5093416702e-05,-0.00207513384521,-0.0003513650153763
3.34130859375,-0.0080174666357226,-0.0028954291805624,0.0491594599664211,0.0021387920714914,0.0002716500312089,0.0028520952910184
3.35128759765625,-0.0036946167342364,-0.003466415735241,0.0470610263824462,0.0017366546671837,0.0006399657577276,0.00246487185359
3.3612666015625,-0.0069550433022901,-0.0026569259832613,0.0388292046099901,0.0001661459682509,0.000706298276782,-0.0013353422982618
3.37124462890625,0.0054878020276315,-0.0036477453852072,0.044814124238491,-0.0009648984996601,-0.001641278155148,0.0013363409088924
3.381223388671875,0.0012416523578576,-0.0006855711113661,0.0503524691432714,-0.0005611817468889,-0.0006241956725716,0.0004663336731027
3.39120263671875,-0.0050406427820213,0.0014670220789499,0.0524479801177978,0.0016961136134341,0.0004711626097559,-0.0016045403899624
3.401181396484375,-0.0080597714074887,0.0042090142634697,0.0464630604892969,-0.0014326735399663,8.69194045662e-05,-0.002102154539898
3.41116064453125,-0.0079411865291185,0.0030364085538312,0.0463163454949855,0.0023301066830754,-0.0007075015455484,-0.0015455540269613
3.421139404296875,-0.0094379278928972,-0.0021618359426967,0.0488584311932325,-0.000304837769363,-0.0004200208932161,0.000251967983786
3.43111865234375,0.0013867964495904,-0.0035106567357666,0.0476589922755956,-0.0015056570991873,0.0025478061288595,0.0021566606592386
3.441097412109375,0.0068642414799891,0.0021095029672607,0.052747839847207,-0.0011873702751472,-0.0004595471546053,-0.0009453390957787
3.45107666015625,-0.0074903009564615,-0.0020659560864791,0.0514075311541557,0.0023141538258641,-0.0030753035098314,8.31737343105e-05
3.461055419921875,0.0030147812439128,-0.0027165289497002,0.0458732779026031,0.0006756794755347,0.0009777974337339,0.0014360868372023
3.47103466796875,-0.0032090251743793,-0.0042961445576511,0.042281390890479,0.0009760839748196,0.0013186819851398,-0.0001050845094141
3.481013427734375,-0.005113671485614,-0.0011414433863945,0.0475157844126224,-0.0002006478607654,-0.0001619914546608,0.0007544512045569
3.49099267578125,-0.0080437701207585,-0.0014930698356591,0.0424251832753419,0.0011951149208471,-0.0007662624120712,0.0017560661071911
3.500971435546875,-0.0028898214236833,-0.006632021893002,0.0425759899228811,-0.001937034772709,-0.0013542920351028,-0.0002895264187827
3.51095068359375,-0.0054592883192002,-0.0021397154424339,0.0437725062310695,0.0021258839406073,-0.0012693377211689,-0.0008985913009382
3.520929443359375,-0.0103143819338642,-0.0031891879627481,0.0458691862493753,-0.0013618713710457,-0.0019511487334966,0.0015755615895614
3.53090869140625,-0.0053469505185261,-0.0010867175244726,0.0451192446649074,-0.0014572124928236,-0.0005913386121392,-0.0008865307318046
3.540887451171875,-0.0010355901254341,-0.0013999116594903,0.0497568413376808,-0.0021924995817244,-0.0004192376509308,0.0010053977603092
3.55086669921875,-0.0085394812158308,-0.0024612755469977,0.0518511832684278,0.0012962413020431,0.001026326790452,-2.57781794061e-05
3.5608447265625,-0.0103883056866005,-0.0017797595562413,0.0517050527960062,0.0026907036080956,-0.0014745937660336,0.0001582082331879
3.570823486328125,-0.0029718188850209,-0.0035739494966343,0.0428811103492975,-0.0001274535898119,-0.0017792591825127,-0.0004575146303977
3.580802490234375,-0.0144634279047138,-0.0046716268065385,0.0351022930413484,0.0008685900829732,-0.0034045688807964,0.0021062863525003
3.590781494140625,-0.010726743860729,0.0026191695224493,0.045429625788331,1.2650154531e-05,-1.48974359035e-05,0.0011179870925843
3.600760498046875,-0.0018412622188217,0.0045704679870046,0.0449818820208311,-0.0005017108051106,0.0001484351232647,0.0001346657663816
3.610739501953125,0.0038383725864812,0.0027870369026437,0.0505219804912805,-0.0006604351801797,-0.0020494721829891,0.0017669172957539
3.620718505859375,-0.0014362798808142,-0.0043253341195173,0.0394528894662857,0.0004327911301515,0.0007085977122187,0.0006569980760104
3.630697509765625,-0.0050432913968339,-0.008939842177648,0.0452887560129165,-0.0006090374663472,-0.000481036491692,-0.0023760760668665
3.640676513671875,-0.0018432532465085,0.0069029843214899,0.0532230561435222,-0.0008466878789477,-0.000848994590342,0.0003110794932581
3.650655517578125,-0.0012739106596447,-0.0023395305971615,0.0517301872372627,-0.0003753083874471,-0.000318226404488,-0.0009406062308698
3.660634521484375,-0.0031243242993019,0.0024956344743259,0.0421539651185274,-0.0013151642633602,-0.0005882382392883,-0.002834401326254
3.670613525390625,-0.0048929779396392,0.0044914296677336,0.0379652812570333,-0.0009162227506749,0.0018978221341967,0.0011092076310887
3.680592529296875,0.0075871306607499,-0.0014418693713843,0.0577139378219842,0.0021493197418749,-0.0004559168592095,0.0006910318043082
3.690571533203125,-0.0047625382266938,-0.0067139645554125,0.0530763411492109,-0.0003167674294672,-5.0850212574e-05,-0.0001523913524579
3.700550537109375,-0.0089989336874336,-0.0035919600773602,0.0436474185466766,0.0011010407470166,-0.0003688018769025,-0.0013126002158969
3.710529541015625,0.0016124036327004,-0.0056705747160129,0.0427560226649045,0.0038448954001069,-0.0027832239866256,-0.0012702558888122
3.7205087890625,-0.0039407187161035,0.0026413265553303,0.0420125108212232,0.0032887463457882,-0.0020688762888312,-0.0005652025574818
3.730487548828125,-0.00353469519848,0.0026342026947997,0.0563800588697195,-0.0023648783098906,-0.0003841603174805,0.0027126159984618
3.740466796875,-0.0004716360997408,-0.0014723741075024,0.0518938533663749,0.0024102132301777,-0.0008277483284473,-0.0006417218828573
3.75044482421875,-4.0898265969e-05,-0.0001200279167853,0.0548860209196805,0.0014168540947139,0.0005437796935439,-9.653304005041718e-07
3.760423583984375,-0.0018047843996435,-0.0013655527321621,0.0488999322474002,-0.0011455926578491,0.0011208029463887,0.0008133488590829
3.770402587890625,-0.0025255364222452,-0.0063114481691271,0.049499067184329,0.000471212377306,-0.0016408953815698,0.0013308010529726
3.78038134765625,-0.0059152153931558,-0.0063084524944424,0.0391810867875814,0.0004906659014523,-0.0018351571634411,-0.0021413664799183
3.790360595703125,-0.0069284110236912,-0.0045531149934045,0.0426256742835044,0.0008592474041506,0.0004186760634183,0.0014139537233859
3.80033935546875,-0.0005863119879737,-0.0045554165483452,0.0489081155538558,-0.0002737930044531,0.0017445273697376,0.0004050748830195
3.810318603515625,-0.0083190251318737,-0.0021572145665064,0.0405325013965368,0.0016095944447442,-0.0028717955574393,0.000357137992978
3.82029736328125,-0.0024332732952199,-0.0014280417754314,0.0532557893693447,-4.06032777391e-05,-0.0003550378605723,0.0001225456944666
3.830276611328125,0.0011900317684747,-0.0032081666578538,0.0514613071680068,-0.0006336892256513,0.0005509704351425,0.000719360075891
3.84025537109375,-0.0054062977566383,-0.0040210904759354,0.0528062920361757,0.0001371874241158,0.0015184320509433,0.0008190717780962
3.850234619140625,0.0043126025021076,6.94850396364e-05,0.0463730441182851,0.0007060386706143,-0.0015061199665069,-0.0010318252025172
3.860213623046875,-0.0060374352670274,0.0010490706615149,0.0495160183191299,0.0005096337990835,0.0036775982007384,-0.0012173481518402
3.870192626953125,-0.0012316424204967,0.0015039930884726,0.0415846407979726,0.0028233882039785,0.0005792761221528,-0.0007227992173284
3.880171630859375,0.0085611085257492,0.0026839966532774,0.0338040699243545,0.0043030641973018,0.0013256752863526,-0.0013087795814499
3.890150634765625,0.0081598159821704,-0.0049736054277978,0.0523620554000139,0.0026913192123174,-0.0021188575774431,-0.0007766800117678
3.900129638671875,-0.0032725371309556,-0.0026310974222607,0.0520668718457221,-0.0011152554070577,-0.0017773769795894,-0.0001477687619626
3.910108642578125,-0.0012845233852043,0.0035254159134812,0.0504220272481441,0.0023998508695513,-0.0020146649330854,0.0002626243513077
3.920088134765625,-0.000613090397045,0.0049651481267064,0.0429413161039352,-0.0020082641858607,-0.0005707712844014,-0.0007403521449305
3.930067138671875,-0.0064080404113978,0.0031147527533583,0.0511713843107223,0.0010138909565284,-0.0003902092576026,-0.0001376788131892
3.940046142578125,-0.0098716431350447,-0.0031535869264043,0.0463859035998582,-0.0024150761310011,0.0002573849633336,-0.0001184781722258
3.95002392578125,-0.0040872327810153,-0.0007969225313514,0.0411468339025974,-0.0021447653416544,0.0022390428930521,0.0007752786623314
3.9600029296875,-0.0064287726721726,-0.0106791418593376,0.0424912342488765,0.0024625672958791,-0.0012672375887632,0.0021285589318722
3.96998193359375,-0.0030563553633168,-0.003374919793196,0.0432435139209032,0.0005352376028895,-0.0027034794911742,0.0017282859189435
3.9799609375,0.001936301824823,-0.0013877462976612,0.0453413629829883,-0.0015697769122198,-0.0015599727630615,-0.0009879815625026
3.98993994140625,-0.0022223156919702,-0.0066469637338072,0.0502794039070606,0.001843862934038,0.0003063706681132,-0.0019890638068318
3.9999189453125,0.0004250935442745,0.004228175621666,0.0460907200455665,0.0022686447482556,0.0009980872273445,-0.0004380149184726
4.00989794921875,-0.0034021365936845,0.0092115717911161,0.0513297897428274,-0.0003039688454009,-0.0001097880303859,-0.0002068524918286
4.019876953125,-0.0039306539798155,0.0076111508571542,0.0487859504789114,-0.0022205831483006,0.0002253018319606,-0.0001159088569693
4.02985595703125,0.0037470958401449,0.0075031787043437,0.042201311391592,-0.0014799581840634,-0.0010492876172065,-0.0005816956982016
4.0398349609375,0.0056427916599437,-0.0024812588891014,0.0390595062345266,-0.0003317354712635,-0.0007986351847648,0.0010132484603673
4.04981396484375,0.0005422171179205,-0.0045547772275283,0.0531260255098342,-0.0012963324552401,0.0012136492878198,0.0017964841099455
4.05979296875,-0.0049547180642373,-0.0056798540010116,0.0556686957299709,0.0023727738298475,-0.0005397517234086,0.0007234974764287
4.06977197265625,-0.0055617623129859,-0.0090288539016619,0.0414548769384622,0.0023053959012031,0.0002591963857412,0.0038058401551097
4.079751220703125,-0.0014970518910326,-0.0044915209992788,0.0499853893965482,0.0005474763456732,-0.0008369907736778,-0.0001685760071268
4.08972998046875,0.0003752630531787,0.0033449630463495,0.0411596933841705,4.33399109169e-05,-0.0003802590072154,-0.00018641918723
4.099709228515625,0.0076185852449387,0.0103346758032217,0.0392149890571832,0.0009953149128705,-0.0022245422005653,0.0012608196120709
4.10968798828125,0.0065213645927608,0.0139448473907075,0.0425035092085599,-0.002156269736588,0.0015632715076208,0.0013574922922998
4.119667236328125,-0.0034119273353368,0.0080837368049658,0.0463923333406448,-0.0001726929331198,0.0001794192939996,0.0004148898296989
4.12964599609375,-0.0039696160170249,0.0048421793341636,0.0481920762389898,0.0005269194371066,-0.0008315164595842,-0.0007055020541884
4.139624267578125,0.0045483840193599,0.0010670812422409,0.0508873066723346,-0.0001571107422932,0.0005463315173983,-0.0012864540331065
4.149602783203125,-0.0031826120914891,0.0019381832546554,0.0481949988484382,-0.0009512653923593,-0.0020774146541953,-0.0012635508319362
4.15958203125,-0.0146940583228133,0.0031327633340843,0.0398152930378913,5.39637403562e-05,-0.0001243585720658,-0.000262260553427
4.169560791015625,-0.0013231383625417,-0.0064038574266247,0.0422112482637166,-0.0001582902041263,0.0002753818407654,-0.003122229129076
4.1795400390625,-0.0018811741041019,0.0013958748051896,0.0398188001692295,0.0016021879855543,0.0002220561727881,3.83085134672e-05
4.189518798828125,-0.0084239650773815,-0.002677292917855,0.0549351207584142,0.0028402917087078,-0.0008200379088521,-0.0018778358353301
4.199498046875,0.0051833939872682,-0.0006576236585155,0.0544867924690246,0.0013535455800592,0.0007828436791896,-0.0007505526882596
4.209476806640625,0.0006617883769795,-0.0001859327598474,0.0453559760302305,0.0001231650239787,0.0020092297345399,-0.0003452195669524
4.2194560546875,-0.0022335129394195,0.010479290171992,0.0480430231571197,0.0005431679892353,0.0017334930598735,-0.0020422025118023
4.229434814453125,-0.0047762744911015,0.0043610995526425,0.0469897147119045,0.0018590360414236,0.0004802094772458,0.0010398735757917
4.2394140625,-0.0080802844725549,0.0040574221646413,0.0643476767480373,0.0004675217787735,0.0006044125184416,-5.07611839566e-05
4.249392822265625,-0.001137808390893,-0.0002171498820185,0.0456388846248388,-0.0046196482144296,-0.0008211778476834,0.0004328688955865
4.2593720703125,-0.0041397849521599,0.0006832512901164,0.0510293454915285,-0.0005873326444998,-0.003048756159842,0.00300027965568
4.269350830078125,-0.0015097104432061,-0.0055683564505539,0.0393605350077152,-0.0006741516990587,0.0006216121837496,-0.0022709148470312
4.279330078125,-0.0020621566941961,-0.0028476079834625,0.0511795676171779,-0.0009134763968177,0.0012769168242812,0.0011992387007921
4.289308837890625,-0.0002831460566259,-0.0026091413187794,0.0459410824418067,0.0011086617596447,-0.0002120565623044,-0.0022093413863331
4.2992880859375,0.0112453243747353,-0.0092165584934875,0.0344219095617532,-0.0017467266879975,-0.0041610314510762,0.0035061768721789
4.309266845703125,0.0009328056043945,-0.0024616043405607,0.0439969626367092,-0.0023307579103857,0.002238810993731,0.0023913776967674
4.31924609375,-0.0028856749715283,-0.0043922618758864,0.0447445661336183,0.0002239200985059,-0.0017798151820898,-0.0010040900669991
4.32922412109375,0.0031479791695252,0.0007644815664738,0.0556675266861915,-0.000601659878157,-0.0008772695437073,-0.0002496164815966
4.339203125,0.0001936228759586,0.0124334929796867,0.0471364297062158,-0.0012472331291064,-0.0002510612830519,0.0016108852578327
4.349181884765625,-0.0074369816003367,0.0058538040621206,0.0266366625130176,-0.0011039550881832,0.0008110078051686,-0.0012144623324275
4.359160888671875,0.00102795480825,-0.0012318981488235,0.0402513463675975,0.0012794039212167,0.0013087149709463,0.000638619356323
4.369139892578125,0.0015167247058823,-0.0113086171356029,0.0441442621529102,0.0020439974032342,-0.0004473738372325,0.001187496818602
4.379118896484375,0.0036045638306066,-0.0028916845872066,0.0399549937695264,0.0023022573441267,0.0019037630409002,6.53765528113e-05
4.389097900390625,-0.0073690309306606,0.0020205825747922,0.039657472127676,4.41631418652e-05,-0.0016137398779392,-0.0001657858229009
4.399076904296875,-0.0082222867591306,-0.005252659831196,0.0434007503092288,0.0026927622966468,0.0013874033465981,0.0001091523154173
4.409055908203125,-0.0016270897451788,0.0022161782121285,0.039961423510313,0.0006924620247446,-0.0014209002256393,0.0008540384587831
4.419034912109375,-0.0042251799469813,0.0048125513808801,0.0423591323018074,0.0004755894187837,-0.0006692577153444,0.0017030443996191
4.429013916015625,-0.0023490473441779,0.0012959215620532,0.0477431634277105,-0.001277036848478,-5.383044481277466e-07,0.0010931803844869
4.438992919921875,-0.0069028929899446,0.0008745178122073,0.0468412461519241,-0.000317269063089,0.00164161529392,0.0006530612008646
4.448971923828125,0.0039637890644371,-0.0091012798170559,0.040705519875884,0.000240396882873,0.001215242780745,-0.0016729437047615
4.458950927734375,-0.0013523644570261,0.002162621393986,0.0441466002404689,0.0034175193868577,0.0010217959061264,0.0015922418097034
4.468929931640625,-0.0058483059030957,-0.002230535531044,0.0469908837556838,-0.0025911044795066,0.0001637255772948,0.0013208657037466
4.478908935546875,0.0064057936553843,-0.0005847228190861,0.0537204842716455,-0.0010237025562673,-0.0002579344436526,0.0005109438207
4.48888818359375,0.0001486694893799,0.0011939224923029,0.0424982485115528,-0.0009342203848063,-2.43755057454e-05,-0.0010704412125051
4.498866943359375,-0.015412052132748,0.0010452164703048,0.0466881014168262,0.0003370551858097,-0.0009407997131347,0.0025299263652414
4.50884619140625,-0.0049289991010911,0.0030173567934893,0.0436959338635206,0.000155427493155,0.0020086513832211,-0.0017630892107263
4.518824951171875,0.0065406903477385,-0.005841492569819,0.0480336708068847,0.0011536835227161,-0.0001662308350205,-0.000586882175412
4.528802978515625,0.0004273950992152,-0.0009652648355811,0.0510287609696388,0.0007291755755431,-0.0019819745793938,0.0006743908743374
4.5387822265625,-0.0011748159330338,0.0049246151869185,0.0354717108756303,-0.0017303675413131,-0.0022408729419112,0.0031110877171158
4.5487607421875,-0.0047201786560006,-0.0018717304223217,0.0595610269933939,-0.0008941349806264,0.0009985966607928,-0.0010580910602584
4.558739990234375,-0.0007575769016519,-0.0047930612291209,0.0484872597932815,-0.0006410555797629,0.0013776402920484,0.0017684435006231
4.56871875,0.0060131410759873,-0.0033288156291469,0.0413011476814746,0.0022492730058729,0.0027680769562721,0.0004991810419596
4.578697998046875,0.0069475175829604,-0.0028431327377445,0.049831075617671,0.0026336244773119,0.0008455496281385,-0.000719666830264
4.5886767578125,-0.0196594256452284,-0.0005981302899308,0.0561228692382574,0.0011331995483487,0.0002087885513901,0.0001884711382444
4.598656005859375,-0.0013631233130581,-0.00032683906788,0.0432569579243659,0.0016040999908,3.61260026693e-05,0.0009366073063574
4.608634765625,-0.0033782442614436,-0.000709810503479,0.0505921231180429,0.0006554821156896,-0.0010264758020639,0.0028546159155666
4.618614013671875,-0.0042504422524012,-0.0011772088195197,0.0393733944892883,0.0009309923043474,-0.0020379591733217,0.0003411552752368
4.628593017578125,-0.0021281528688035,-0.0044221090248785,0.0437140540421009,0.0014910550089552,0.0009082965552806,0.0026040433440357
4.638572021484375,0.0002326762447133,0.0025037264492362,0.05104512758255,0.0014038104563951,0.0001701256260275,-0.0002618315920699
4.648551025390625,-0.0103407584841363,0.0024911226959899,0.0544873769909143,0.0008757056202739,0.0009435079991817,1.56697933562e-05
4.658530029296875,-0.0014779270654544,0.0034841523213312,0.0541869327396154,0.0014777227770537,0.0018568346276879,-0.0001279672724194
4.668509033203125,-0.0065532027694396,-0.0005561177791096,0.044912908437848,-0.0014802501536905,-0.001984242349863,0.0011487521696835
4.678488037109375,-0.0103522845251485,-0.0038037761971354,0.0434159478783607,0.0003688622964546,0.0024216594174504,-0.0011132271029055
4.688467041015625,0.0013053835101425,0.0046061055559664,0.0386246219485998,0.0005978940753266,0.0017984798178076,0.0028114733286201
4.698446044921875,0.005405146979168,-0.001263626727648,0.0490986696898937,0.0002966241445392,0.0009541055187582,-0.0006236042827367
4.708425048828125,-0.0040351190012879,0.0039729587515816,0.0456534976720809,0.0008865143172442,0.001878754235804,0.0001782734761945
4.718403076171875,0.0011622852450236,0.0005803023722954,0.0528325955212116,2.50376178883e-05,0.0018472988158464,-0.0008177299168892
4.72838232421875,-0.0035036607393994,-0.0032773411702364,0.0484901824027299,-0.0006652537267655,-0.00039694737643,-0.0003165230154991
4.738361083984375,-0.000721921066381,-0.0069982796558178,0.0475946948677301,0.0013980106450617,-0.0016414346173405,0.0001801533799152
4.748340087890625,-0.0081709766970016,-0.0051827364001423,0.0511871664017438,-0.0017682214966043,-5.36581501364e-05,0.0014696560101583
4.75831884765625,-0.0011730258347466,0.0028157332741655,0.0447504113525152,-0.0016338641289621,0.0016020974144339,0.0017114019719883
4.768298095703125,-0.00085016882224,-0.0013013466558419,0.0523813446223735,-0.0002452920307405,-0.0016301814466714,-0.0012409783666953
4.77827685546875,-0.0057445532676763,-0.001420954447519,0.0422077411323785,-1.6950070858e-05,0.0001391191035509,0.0013010727707296
4.788256103515625,-0.002355678014364,0.0011733546283096,0.0475952793896198,-0.0021631915587931,9.4231218099e-06,0.0005689698737114
4.79823486328125,0.0076318100526928,0.0046013563156127,0.0507365000247955,-2.60404776781e-05,-0.0010784184560179,-1.24227299238e-05
4.808214111328125,-0.0059050227927044,0.0127045102071017,0.0411614469498395,0.0007356236455962,-0.0004605650901794,0.0003375166270416
4.81819287109375,-0.0022598894896917,0.0079241257964633,0.0514905332624912,0.0015611739363521,-0.0007479069754481,0.0013893889263272
4.828172119140625,0.0022635427515022,0.0008297470887191,0.0514893642187118,-0.0011528534814715,0.0038223443552851,0.0007041575736366
4.83815087890625,-0.0006076105043292,0.0042415100272744,0.0492412930309772,-0.0029964307323098,-0.0022731553763151,-0.0003148209652863
4.848130126953125,-0.0036741950007155,-0.0076778411515057,0.0475952793896198,-0.0008509882609359,0.0006568543612957,-0.0004506421973928
4.85810888671875,-0.0013364545018412,-0.0072804210654459,0.0469978980183601,-0.0003677820786833,-0.0017605116590857,0.0015087823849171
4.868088134765625,-0.0030972170966677,-0.0028873554719612,0.0411637850373983,-0.0020154798403382,0.0014906749129295,0.0015383433783426
4.878066162109375,-0.009333517670352,-0.0079834182356484,0.0511842437922954,-0.0024824105203151,0.0001795496791601,-8.81293526617e-05
4.8880439453125,0.0023405535104684,-0.0003556815698742,0.0416050990641117,0.0004759669536724,-0.0003798892721533,0.0018415061058476
4.89802294921875,0.000887596489489,-0.0033169790608808,0.0487894576102495,0.0004295776598155,-0.0008375309407711,1.6981211956e-06
4.908001953125,0.004716160068009,0.0099137104447931,0.0481914917171001,-0.0014146614121273,0.0007007103413343,0.0018171750707551
4.91798095703125,-0.0053344015642069,0.0087307477379217,0.0356190103918313,-0.0002170472289435,-0.0001975316554307,0.0008689402020536
4.927962646484375,-0.0015548830254934,-0.0027240364027209,0.0422083256542682,-0.0005464802379719,-0.0021509602665901,-0.0009345525177195
4.93794140625,-0.0064523910097777,0.001767192335613,0.0480488683760166,0.0004918644553981,-0.00156254414469,-0.0013063899241387
4.947920654296875,0.0008580050688236,0.0034063926436938,0.0541834256082773,0.0005706940428353,-0.0007771784439682,0.0026308274827897
4.9578994140625,-0.0022856084528379,-0.004095799679961,0.0550806667089462,0.000712928303983,0.0017148861661553,-0.0007125423289835
4.967878662109375,0.0021232757642865,0.0014861834371462,0.0392179116666316,0.0012210595887154,0.0020115617662668,2.72837642114e-05
4.977857421875,-0.0061655916913412,0.0006384988329373,0.0499924036592245,-0.0006547957891598,-0.0020612422376871,-0.0008347857510671
4.987836669921875,0.008360014729388,-0.0082860544440336,0.0437064552575349,-0.0013184554409235,0.000149181112647,0.0004640378756448
4.997815673828125,0.0072710504489019,0.00020555077577,0.0472960041821002,-0.000290481490083,0.0004429556429386,-0.0005139310960657
5.007794677734375,-0.0082813600026071,0.0011880042081698,0.0437064552575349,0.0019684117287397,0.0006397627294063,0.0005255006835795
5.017773681640625,0.0049838345608673,-0.0002285115262493,0.0576239214509725,0.0005649996455758,-0.0011853203177452,9.10442031454e-05
5.027752685546875,0.0048305619616061,0.0013026618300937,0.0532820928543806,-0.0034206872805953,-0.0007011573761701,-0.0008589053759351
5.037731689453125,-0.004483264627587,0.0015164324449375,0.0502893407791852,-0.0014827111735939,-0.0018847873434424,4.57704882137e-05
5.047710693359375,-0.0089140318829566,-0.0049737332919612,0.0510410359293222,0.0022028374951332,0.0005709128454327,0.0010913275182247
5.057689697265625,-0.0023341968349181,0.0028050474833697,0.0447585946589708,0.0010266850003972,-0.0010467059910297,-0.0014025301206856
5.067668701171875,0.0092474833547137,0.0095015494473278,0.0435585712194442,-0.0018615131266415,0.0002593081444501,-0.0002499139518477
5.077646728515625,-0.007843260846287,-0.0003564670211635,0.0410141474336385,0.0001857145689427,-0.0004524923861026,-0.0006608578842133
5.087625732421875,-0.0047743565286509,-0.0036843693348579,0.0464022702127695,0.0015117025468498,-0.0002580815926194,-0.0008712476119399
5.0976044921875,0.0061000704407691,0.0025748371903784,0.0477501776903867,-0.0002065235748887,0.0019845329225063,0.0008483005804009
5.10758349609375,0.0058034621143713,0.0011789075862616,0.0456546667158603,-0.0006701799575239,9.34218987822e-05,0.0020003840327262
5.117562744140625,-0.0052076516456902,0.0010951200266368,0.0514928713500499,-0.0008698408491909,-0.0008881464600563,-0.0006721523823216
5.12754150390625,0.000970087141171,0.0034597119998186,0.0381757091373205,0.0006857115076854,-0.0020277127623558,0.0025388209614902
5.137520751953125,-0.0110839780668728,0.0016777422201819,0.0456593428909778,-0.0013392312685027,-0.0007135281339287,0.0010516208130866
5.14749951171875,0.0027977226934395,-0.0059755672782659,0.0405740024507045,0.0030238255858421,-0.0001646503806114,-0.0002538607513997
5.157478759765625,0.0024528547785244,-0.0032538689631037,0.0417728568464517,-9.9464028608e-05,0.0021340604871511,0.000327797839418
5.16745751953125,-0.005928458467219,-0.0036533896747045,0.0450625460416078,0.0007162621477618,0.0002892883494496,0.0016617752844467
5.177436767578125,-0.0078063994346186,0.0010943711079657,0.0398258144319057,-0.0025459714233875,0.0009596832096576,-0.002093942835927
5.18741552734375,0.0036547413815744,-0.0043035972117446,0.0438619380801916,-0.0008953441865742,-0.0004368778318166,0.0015489952638745
5.197394775390625,-0.0137376526471227,0.0001377645028755,0.0541851791739463,-0.0013419669121503,0.0012244349345564,-1.35695336211e-05
5.20737353515625,-0.0085297087404876,0.0008060556858777,0.0493985294193029,0.001299356110394,-0.0012483103200793,0.0009233305463567
5.217352783203125,-0.0076294719651341,0.0014228724099695,0.0482014285892248,0.0005199072184041,0.0001412592828273,0.0003838560951407
5.22733154296875,-0.0050009135598316,0.0043614100798964,0.0474538250923156,1.63035001605e-05,-0.0002116095274686,-0.0011810173746198
5.237310791015625,-0.0012186368084512,-0.0004909070557914,0.0538905801415443,-0.0018627506215125,-0.0020361598581075,-0.0022497638128697
5.24728955078125,0.0002633819102309,-0.0004885872345417,0.0489531237393617,-0.0005290396511554,-0.0009967284277081,0.0003247138229198
5.257268798828125,0.0011374430647119,-0.0077668528755195,0.0405740024507045,8.20919522084e-05,-0.0010688174515962,-0.0029053408652544
5.267246826171875,0.0032631482481025,-0.0002683503462933,0.048355742368102,0.0009873004164546,-0.0022856155410408,-0.0002903830027207
5.277225830078125,-0.0103134686184115,-0.0043433447002433,0.0402758962869644,-0.0011711094994097,-0.0012190919369459,0.0007460596971213
5.287204833984375,-0.0107773050041869,0.0018465959810651,0.0452180288642644,-0.0006816204404458,-0.002471842803061,0.0013836205471307
5.29718359375,-0.002598966984637,0.0011855382564477,0.0435673390477895,0.0007803208427503,0.001698519103229,4.09128952014e-05
5.30716259765625,-0.0082072170541621,0.0041895606443285,0.0474561631798744,0.0001411621924489,-0.0001651607453823,-0.0022965436801314
5.3171416015625,-0.0060044463128782,-0.0012092296592891,0.0393745635330677,0.0001100598019547,0.0001498265191912,0.0012451056391
5.32712060546875,0.0066561882198788,0.0044495632873848,0.0449099858283996,-0.000531762081664,-0.0019210474565625,0.0014435111079365
5.337099609375,-0.0012070559685118,0.0040877077050507,0.0425192912995815,0.0005024206475354,0.0018255291506648,-0.0008549528429284
5.34707861328125,0.0008237557393498,0.0019764694384299,0.0351852951496839,-0.0002331444993615,0.0002699764445424,0.000299261213513
5.3570576171875,0.0019003902612254,-0.0055784029205329,0.0410205771744251,0.0017148442566394,0.0009955773130059,-0.0001447961549274
5.36703662109375,0.0019205562664195,0.0012353687475435,0.0386281290799379,0.000452239473816,0.0019915997982025,-0.0002934005460701
5.377015625,-0.0092551186718977,0.0018907456500455,0.0525403345763683,-0.0029637035913765,-0.003026588819921,0.0009849363705143
5.38699462890625,0.0033309527873061,-0.0061612991087138,0.0467062215954065,-0.0013607470318675,-0.0011447994038462,0.0009444563183933
5.3969736328125,-0.0030710962747223,-0.004402162215393,0.048950785651803,-0.0007058341871015,0.0015926081687211,-0.0013579197693616
5.40695263671875,0.0004404737764969,0.0001832658787257,0.0449076477408409,-0.0015412678476423,-0.0009376611560583,0.0035111377947032
5.416931640625,-0.0043210050042718,0.0048982569029554,0.050144379350543,-0.0011066353181377,-0.0010693278163671,-0.0015436566900461
5.42691064453125,0.005795735465642,0.000379500836879,0.0369745166540145,-0.0014954567886888,0.0004316298291087,-0.0022877438459545
5.4368896484375,-0.0084773940313607,0.003085873718746,0.0371259078234434,0.0028015670832246,0.0009918650612235,0.0014816323528066
5.44686865234375,-0.0061209122993983,-0.0042571825204417,0.0432622186213731,0.0011946158483624,-0.0004864558577537,-0.0010542296804487
5.456846923828125,0.0007613762939348,-0.003000624854397,0.0449094013065099,-0.0013495198218151,-0.0025592148303985,-0.0014883236726745
5.46682568359375,0.0024246881299652,-0.0008642156139016,0.0428127212882041,-0.0004616219084709,0.000979327596724,0.0030451754573732
5.476804931640625,0.0065619157988578,-0.0027775018893182,0.0476017091304063,-0.0007984333205968,0.0002313824370503,0.0015319375088438
5.48678369140625,0.0090637973508797,0.001585570424702,0.0459586180984973,0.0011225048219785,-0.0005419999361038,-0.0003599721821956
5.4967626953125,0.0024287067179568,-0.0028209026396274,0.0381786317467689,-0.0009451336227357,0.0001060049980878,-0.0001032479922287
5.506741455078125,0.0052036513240076,-0.0077420472278259,0.0396744232624769,-0.0004487204132601,-0.0005270289257168,-0.0006257601780816
5.516720703125,0.0036397447418421,-0.0094912655153311,0.0467068061172962,-3.4556898754e-05,0.001420909538865,-0.002172578126192
5.52670068359375,0.0002802599797956,-0.0025841530079953,0.0387748440742492,0.0019042243948206,-0.0010603573173284,-0.0014260942116379
5.5366796875,-0.0017217274923808,0.003711092945002,0.0450619615197181,-2.50823795795e-05,-0.0002806475386023,-0.0012975158169865
5.546658447265625,-0.0023758805521763,-0.0041366066143848,0.0473065255761146,0.002458581700921,0.0034480448812246,0.0003371323691681
5.556637451171875,0.0023627105433493,-0.005179192736186,0.0479039069473743,-0.00175829580985,-0.0008050603792071,-3.15313081955e-05
5.566616455078125,0.0029067542921751,0.0024207791398279,0.0477560229092836,-0.0025050460826605,-0.0015374291688203,0.0006638200720772
5.576595458984375,-0.0071756455167196,0.0063110463103279,0.0450619615197181,0.0009960380848497,-0.0019367597997188,-0.0011860012309625
5.58657470703125,0.0015454758763313,-0.0041433651487343,0.0365314490616321,-0.0014130575582385,0.0010587638244032,0.0016851527616381
5.596553466796875,0.0043778497580438,-0.0061749440415762,0.041321021425724,0.0002043209969997,0.0004783701151609,0.0003757851663976
5.60653271484375,-0.0015195559837855,-0.0068380293264985,0.0512029484927654,0.0012101968750357,-0.0027427235618233,0.0006618086481466
5.616511474609375,0.0007021203873679,0.0018903620575554,0.0471668248444795,5.29881799593e-05,-0.0008842544630169,0.0001250974601134
5.62649072265625,-0.0065968044491484,-0.0066559507578611,0.0458171638011932,-0.0009321151301264,0.001955741085112,-0.0003931536921299
5.636469482421875,0.0010628069259226,-0.0062225825755856,0.0383352836132049,0.000244329450652,-0.0005544209852814,-0.0006505660712718
5.64644873046875,0.0028943332020193,0.0097853348247706,0.0447673624873161,-0.000532514648512,0.0011484045535326,-0.0004348499933257
5.6564267578125,0.0028001338462345,0.0094453805469907,0.0461135163992643,0.0039680376648902,0.0009917356073856,0.0013871935661882
5.666405517578125,0.0031717619039118,-0.0007978906457312,0.0429705421984195,0.0003866185434162,0.0004860013723373,-9.1017427621e-06
5.676384765625,0.0073688482675701,-0.000207596602384,0.0447661934435367,-0.0009316458599641,5.6959688663e-06,0.0002619493752717
5.68636376953125,0.0144458739817142,-0.0063306095273233,0.0366875164061784,0.0008084635483101,-0.0007985783740878,-0.0004104987892787
5.6963427734375,8.91395881772e-05,-0.0092436291635036,0.0384819986075162,-0.0034636515192687,5.31692057847e-05,-0.0021887149196118
5.70632177734375,-0.0022422990340739,-0.0051931664626114,0.0393786551862955,-0.0001871642889454,0.0015466697514057,-0.0001862839853856
5.71630078125,0.0004674165823496,-0.007785758505389,0.0467097287267446,-0.0007880763732828,-0.0003133462741971,-0.001593618420884
5.72627978515625,-0.0028296339353546,0.0049452195835299,0.052992169997096,-0.0006445320323109,-0.0010222792625427,-0.0031875204294919
5.7362587890625,0.0028574535240419,0.0061570795913226,0.0577805733174085,-0.0008117788820527,0.0006470661610364,-0.0014752175193279
5.746237548828125,0.0094250684113241,0.0052899779005907,0.0537368508845567,0.0004076826153323,0.0001605059951543,0.0012499951990321
5.756216552734375,0.0104029004675336,0.0105387652742676,0.0505991373807191,0.0025451108813285,0.000652895309031,-0.0021004097070544
5.766195556640625,0.0037692528730258,0.0111848080928437,0.0535907204121351,0.0022809254005551,0.0014806054532527,0.00157475261949
5.776174560546875,-0.0113018220686353,0.0071736544890329,0.0393792397081851,-0.0002684306818991,-0.0004057865589857,-0.0005437398212961
5.786153564453125,-0.0058639418636448,0.0038697358391247,0.0523988802790641,-0.0008252976695075,0.0003944933414459,0.002641933504492
5.796132568359375,0.0037775275110267,-0.0039327728716656,0.0485059644937515,-0.0004567034775391,0.0012035071849822,-0.0001077402994269
5.806111572265625,0.0046844132228754,-0.0110907548675313,0.0461094247460365,0.0002711385022848,-0.0016021328046917,0.0019231862388551
5.816090576171875,-0.0005740004956722,-0.0003844692729413,0.0435667545258998,0.0015636966563761,0.0007051629945635,-0.0011091190390288
5.826069580078125,0.0032475670864805,-0.0054733533771708,0.0537368508845567,-0.0006091763498261,0.0022641774266958,-0.0024068774655461
5.836047607421875,0.0069819861081428,-7.39968179725e-05,0.0501455483943223,0.001954932231456,0.0015166355296969,-0.0009585632942616
5.84602685546875,0.0029760018697939,0.0008333272852934,0.0459568645328283,-0.0013561758678406,-0.0019633173942565,0.0016441439511254
5.856005615234375,0.0005886318092234,0.0098097751462832,0.0387754285961389,-0.0009769857861101,-0.0031391801312565,0.0010826814686879
5.86598486328125,-0.0075542695707641,0.0051613648185506,0.0468576127648353,0.0010712513467296,0.0007383832708001,0.0014656439889222
5.875963623046875,-0.0027494265723042,0.0087404106154106,0.0398246453881263,0.0027460993733257,-0.0007927557453513,-0.0001645031734369
5.88594287109375,-0.0005615063402801,0.0013798004532232,0.0518003298640251,0.0006826821481809,-0.0027818707749247,0.0012485701590776
5.895921630859375,0.0008817330042831,-0.0042948476497083,0.0513537551403045,-0.0029381699860095,0.0004564728587865,-0.0010253738146275
5.90590087890625,0.0040147338003851,0.0047008163684047,0.0476104769587516,-0.0014582514995709,-0.0016397014260292,-0.0011087307939305
5.915879638671875,-0.005081102656573,0.0004112111493945,0.0432721554934978,-0.0005823880783282,-0.000956748612225,-0.0012075277045369
5.92585888671875,-0.0012426935374736,-0.0045735549932345,0.0422229387015104,-0.0017264820635318,-0.0009407699108123,-0.000197124434635
5.935837646484375,0.0070765142574906,0.0027925350616686,0.0447667779654264,-0.0014045642456039,-0.0014617620036005,-0.0004548538126982
5.94581689453125,0.0038323081718757,-0.0041708194112405,0.0428209045946598,-0.0013616874348372,0.0005055153742432,0.0017664888873696
5.955795654296875,-0.0037415063495747,-0.0016220299775712,0.0523959576696157,0.0011397094931453,0.0008443146944046,0.000508316559717
5.96577490234375,-0.0070611705578863,0.0019663133705966,0.040274727243185,-0.0010504741221666,-0.0005953907966613,0.0001996561913983
5.975753662109375,-0.0044303653965704,-0.0070175323455594,0.0514969630032777,-0.0021122368052601,0.0011248895898461,0.0003116362495347
5.98573291015625,-0.0033736776841804,-0.006623327129893,0.0507440988093614,0.0002127029001712,0.0027507487684488,0.0002056424564216
5.995711669921875,-0.007260346391797,-0.0031162871233187,0.0414677364200353,0.0025747371837496,-0.0016561551019549,-0.0008534971857443
6.00569091796875,-0.0040974071151576,-0.0052958596521057,0.0399766210794448,0.0014641989255324,-0.0014814520254731,0.000190461956663
6.015669677734375,-0.0014523542327806,0.0010505136999301,0.0555365937829017,-0.0016172521281987,0.0007633678615093,-0.0008954541408456
6.02564794921875,0.0038348471888341,-0.0077064461914822,0.0437111314326524,0.0010112879099324,-0.0008462462574243,0.0003354589280206
6.035626953125,-0.0075769380602985,-0.0115951607257127,0.0482020131111145,0.0021576285362243,0.0014501959085464,-0.0025094426237046
6.04560595703125,-0.0004389394065365,-0.0069329958672635,0.0456575893253088,-0.0004464102676138,-0.0003924453631043,-0.000858815445099
6.0555849609375,-0.0026030221052467,-0.0008953596708364,0.0462532171308994,-0.0021749131847172,0.0016616797074675,-0.0034219310618937
6.065563720703125,0.001367580292467,-0.0022191556205041,0.0525339048355817,-0.0008257557637989,-0.0001687109470367,-0.0016844847705215
6.075542724609375,-0.0009091507341712,-0.0024294008377008,0.0469955599308013,-0.000479340320453,0.0017665289342403,0.0013489957200363
6.085521728515625,0.0010299458359368,-7.88739224895e-05,0.0456476524531841,-0.0001134219928644,0.0001774206757545,0.0009609731496311
6.095500732421875,2.85502410493e-05,-0.0043833113844506,0.0351747737556695,-0.0004036389291286,-0.0015165237709879,0.0007787023787386
6.105479736328125,-0.0050407889124937,-0.0004615713634528,0.0420627797037363,0.0003223387757316,-0.0016725845634937,-0.0017318595200777
6.115458740234375,-0.0039661088856868,0.0023007877556607,0.039823476344347,-0.0004426880041137,-0.0010813353583216,-0.0001374226121697
6.125437744140625,-0.0124224235964007,0.0006693323626182,0.0440150828152894,-0.0004938206984661,-0.0002528261393308,0.0006809667684137
6.135416748046875,-0.001879128277488,-0.0031323980079032,0.0492529834687709,-0.0001332319225184,-0.0010675424709916,2.70652381004e-05
6.145395751953125,-0.0055501266741193,-0.0053354427438229,0.0423661465644836,-0.0022200848907232,0.0009311595931649,0.0001969749282579
6.155374755859375,-0.0042982817158102,0.0017756313703954,0.0516436779975891,1.34719302877e-05,-0.0012201676145195,0.0005043365526944
6.165353759765625,0.0012597177375108,0.0056663734649308,0.0501502245694398,0.001049175276421,0.0018760235980153,-0.0010964894900098
6.175332763671875,0.0061245838275179,-0.0022474683995358,0.0395247856587171,-0.0007988028228282,0.0002958504483103,1.66036697919e-05
6.185311767578125,0.0117184948444366,-0.0014815072620287,0.0395201094835996,0.001008418155834,0.0006628334522247,-0.0003037746064364
6.195290771484375,-0.0045489868075586,0.0010970014564692,0.0505915385961532,0.0004116643685847,0.0005459086969494,-0.0013523030793294
6.20526904296875,-0.0043356911167502,-0.0025323132229037,0.0639063627213239,0.0013134105829522,0.0005043633282184,0.0014552013017237
6.215247802734375,0.0024082119191996,0.0005836633731611,0.0501432103067636,0.001155509147793,-0.0013383394107222,0.0004760026349686
6.22522705078125,-0.0065453117239288,0.0048109804783016,0.0459510193139314,0.0001728027127683,0.0040247347205877,-5.18358683621e-05
6.235205810546875,-0.0098851236711256,-0.001017890071962,0.04205576544106,0.0006411933572962,0.0003199512138962,-0.0004830719844903
6.24518505859375,-0.0079044712479226,-0.0049258024970069,0.0453483772456645,0.0008342725923284,-0.0029245782643556,0.0005108197219669
6.255163818359375,-0.0009134250504896,-0.0048691586726345,0.0499906500935554,0.0022155579645186,0.0006734589114785,-0.0035889388527721
6.265142822265625,-0.0061540291177108,-0.0008060922184959,0.0414618912011384,0.001588383456692,-0.0007691755890846,-0.0027226125821471
6.27512158203125,-0.0104075766426511,0.004879059012141,0.0405623120129108,-0.0015621840720996,0.0017453841865062,0.0007082952070049
6.285100830078125,0.0043186669167131,-0.00290704655312,0.0484913514465093,-0.0026884349063038,0.0002076746895909,-0.0004307388444431
6.29507958984375,0.0071332676797173,-0.01198028758578,0.0440033923774957,0.0004150655586272,-0.0013636238873004,-0.0002243762428406
6.305058837890625,-0.0001020721349865,-0.0038517617910169,0.040860418176651,0.0001194546930491,0.0005301497876644,-0.0008440937963314
6.31503759765625,0.0020448402332141,0.0027510522738099,0.0441506918936967,-0.0008118607802316,0.0001634545624256,0.0014983033761382
6.325016845703125,-0.0034402949132956,-0.0012673713210038,0.0353232423156499,0.0008544791489839,-0.0029399273917078,-0.000633024435956
6.33499560546875,0.0008691657836548,-0.0081930241320282,0.0510398668855428,-0.0006261370144784,-0.0008854381740093,-0.0012485800543799
6.344974853515625,0.0008949578120373,-0.0011716741278767,0.044901802521944,-0.0019081827485933,0.0015465607866644,-0.0010238091927021
6.35495361328125,0.0027484949905425,0.0022085246286354,0.048040685069561,-0.0009311804315075,0.0006359033286571,5.75187441427e-05
6.364932861328125,0.0007260492522269,0.0002657747967168,0.0552244590938091,0.0006504708435386,0.002104103565216,0.0016692638164386
6.374911865234375,-0.0023466909903101,0.0032875337706878,0.0457961210131645,0.0011261169565841,0.0009276065975427,0.0012417499674484
6.384889892578125,0.004200447364524,0.003266436183732,0.0447433970898389,-0.0004888239782303,0.0024314932525157,-0.0003686635463964
6.394868896484375,0.0040997452027164,-0.0028183636226691,0.0451882182478904,-0.0002308137482032,0.0008706729859113,-0.001888110069558
6.404847900390625,-0.0037764315324835,-0.0041280579817481,0.0468330628454685,0.0007660074625164,0.0015282072126865,0.001489843474701
6.414826904296875,0.0020299166587181,0.0049836153651587,0.0368061743497848,-1.4032353647e-05,-0.0015768967568874,0.0004360575112514
6.424805908203125,-0.0024649470751173,0.0036924795760773,0.045489247021079,0.0023495231289416,-0.0010647708550095,0.0004328617069404
6.434784912109375,-0.0047995092362165,-0.0005615246065892,0.0421978042602539,-0.002927444409579,0.0002329889684915,0.0012766947038471
6.444763916015625,-0.0029711978305131,-0.0017426058836281,0.043991701939702,0.002200205810368,-0.0006394628435373,-0.0002261271583847
6.454742919921875,-0.0088474877190776,-0.0030556064446456,0.0466857633292675,-0.0007582551334053,-0.0010851742699742,0.00028566212859
6.4647216796875,-0.0008821165967732,-0.001509345117025,0.0459393288761377,0.0002553439699113,-0.0010212585330009,7.02123725204e-05
6.47470068359375,-0.002291216209717,0.0010246120736934,0.0414484471976757,-0.001950288657099,0.0019325921311974,0.0008962279534898
6.4846796875,-0.0013601276383735,-0.0015976444549858,0.0411485874682664,-0.0022440352477133,-0.001259472221136,-0.0003613166918512
6.494658935546875,-0.0004115947418846,0.0071516983855515,0.0432435139209032,-0.0005863807164132,-0.0014039911329746,0.0011351166758686
6.5046376953125,0.0020224274720065,0.0025556940984912,0.0487783516943454,-0.0012503068428486,0.000368608161807,-0.0014268442755565
6.514616943359375,-0.0007166238367557,-0.0019824242551811,0.055213353177905,0.0007396002765744,0.0019476199522614,-0.0001842640049289
6.524595703125,-0.0044797757625579,-0.0045040882199071,0.0383066420406103,0.0019236417720094,-0.0019903965294361,0.0002658102312125
6.534574951171875,-0.0020411321724765,-0.0122320338571444,0.0430973834484815,0.0020348164252936,-0.0003250986337661,-0.0008394712349399
6.5445537109375,-0.0111682040179148,-0.0056895351448096,0.0398071097314357,-0.0005407265853136,-0.0004800949245691,0.0015557758742943
6.554532958984375,-0.0041510187322273,-0.0097632508571259,0.0424994175553321,0.0009003769373521,0.0019032498821616,-0.0020060096867382
6.564510986328125,-0.0058315374313853,-0.0159437661229632,0.0326215821415185,-0.0010658347746357,-0.0008874768391251,0.0009136137668974
6.57448974609375,-0.0027571714873425,-0.0034511451008729,0.0508773698002099,0.0016930173151195,-0.0002311756834387,0.0004982245154678
6.584468994140625,-0.0006493672868236,0.002380264466349,0.0454869089335203,-0.0002478943788446,0.0014846986159682,-0.0001342762698186
6.59444775390625,-0.0080270747142843,0.0054035943428985,0.0415957467138767,-0.0014717278536409,0.0005558906123042,-0.0008152711088769
6.604427001953125,0.002726849414315,0.0077643503911793,0.0481792167574167,0.0007283095037564,-0.0007948651909828,-0.0006538835004903
6.614406005859375,-0.0128980417515151,0.0030902393666096,0.0564092849642038,1.6804668121e-05,0.0026865424588322,0.0023895036429166
6.624385009765625,-0.0031790318949148,0.0087878482200205,0.0510188240975141,0.0001656754175201,0.0018772082403302,-0.001062219380401
6.634364013671875,0.0072080499489791,0.0082677881349809,0.0414414329349994,0.001366687240079,0.0017657931894063,-0.0021791458129882
6.644343017578125,-0.0101842162155546,0.001470163884107,0.0492231728523969,0.0004122102400287,0.0003316812217235,-0.0008526252349838
6.654322021484375,-0.0093422672323882,0.0058527446161955,0.0550619620084762,0.0005980669520795,-0.0013058213517069,-0.0006910868687555
6.66430078125,-0.0023588746184483,-0.0020189934059046,0.0374047247648239,0.0014864975819364,0.0007820967584848,0.0007403622148558
6.67427978515625,-0.0045434521159157,-0.001783814676851,0.0412958869844675,-0.0010079238563776,-0.0008040703833103,0.0014119449770078
6.6842587890625,0.0004819748306646,-0.0095973197056911,0.0375526088029146,-0.0007751635857857,0.0007866360247135,-0.0008299039327539
6.69423779296875,-0.0074034446569159,-0.0001480301685631,0.0384492653816938,-0.0036027452442795,-0.0025340896099805,0.0001864328514784
6.704216796875,-0.003987316070497,0.0001648534392006,0.0495230325818061,0.000417296309024,4.57148998975e-05,0.0005483564455062
6.71419580078125,-0.0038803850973024,-0.001219586656522,0.0445797309607267,-0.0021315356716513,-0.0009935731068253,0.0017703115008771
6.7241748046875,0.0048591304689645,-0.0028000425146892,0.045929392004013,0.0026352563872933,-0.0004271185025572,0.00202118139714
6.73415380859375,0.0018538477057591,0.0008637772224843,0.0450321509033441,-0.0009321052348241,0.0004123793914914,0.0007815847638994
6.7441318359375,-0.007298121118918,-0.0047476694511249,0.0347083252876996,-0.0002969413180835,0.0018307790160179,-0.0005436041974462
6.75411083984375,0.0045724407483823,-0.0042471908493898,0.0517652585506439,0.0021029463969171,0.0003993911668658,0.001160958665423
6.76408984375,0.0004145904165692,-0.0092243034085258,0.0266290637284517,-2.2823223844e-06,-0.0021772170439362,-0.0004593085905071
6.77406884765625,-5.8580053132e-05,-0.0029655900736339,0.0475806663423776,0.0022609871812164,0.000680130906403,-0.0008677560836076
6.7840478515625,-0.0019936580352485,0.0054479449412785,0.0501280127376317,0.0038793901912868,7.50608742237e-05,0.001169562106952
6.79402685546875,-0.0009990209747105,0.0038480354639701,0.0372562562048435,0.0013466991949826,0.001090133562684,-0.0018949180375784
6.804005859375,-0.0033185682297684,0.0065763096503913,0.0505763410270214,-0.0002541268477216,-0.0020438740029931,0.0015437555266544
6.813985107421875,-0.000720532826893,0.005147281494271,0.0493786556750536,-0.0012843855656683,-0.0015068091452121,-0.0007706232136115
6.8239638671875,-0.0036215514980256,0.0125231257582083,0.0513210219144821,-0.0008545513264834,0.0027273502200841,-0.0009421308059245
6.833943115234375,0.0042654388921335,0.0090457502375356,0.0519172342419624,0.0012670798460021,0.0005639400333166,-0.0006058361614122
6.843921875,0.0080332669930532,0.0046067083441652,0.0529600212931632,-0.0021036830730736,0.0008824542164802,0.002640290884301
6.853901123046875,0.0092917791541665,-0.0033062567374669,0.0493704723685979,0.0006919038714841,-0.0011911476030945,0.0012918864376842
6.863879638671875,0.0102374259738251,-0.0003932736339047,0.0421902054756879,-0.0022516879253089,0.0003548180684447,-0.0029601166024804
6.87385888671875,-0.0054554523942992,-0.0031628662114031,0.0541600447326898,0.0012639963533729,-0.0004041343927383,0.0005321974749676
6.883837646484375,-0.0041783085979521,-0.0009571180617436,0.0496750082731246,-0.0004833036218769,-0.0019442411139607,-0.0036002295091748
6.89381689453125,-0.0053643400447443,-0.0010496551834046,0.0471358451843261,0.0011589212808758,-0.0012942068278789,-0.0021974737755954
6.903795654296875,-0.0038782479391433,0.0098825298552401,0.0369604881286621,0.0015187142416834,0.0004754634574055,-0.0001495029864599
6.91377490234375,-0.0092411632117815,9.27745836786e-05,0.0423456882983446,0.0017615783726796,0.0014363089576363,-0.0019651032052934
6.923748779296875,-0.0092273173495195,-0.002766359440796,0.0414507852852344,0.0011125659802928,-0.0018974356353282,0.0001313372922595
6.933727783203125,-0.0063462637541815,0.0082390917634591,0.0435451272159814,-0.000209160381928,0.001858958043158,0.0014690073439851
6.943706787109375,-0.0071119874296709,0.0052912382759153,0.0399509021162986,0.0026196492835879,0.0026885326951742,-0.0012639284832403
6.953685791015625,-0.0059189417202025,0.0023529380680061,0.0462304207772016,-0.0014208646025508,0.0010397741571068,0.0014493860071524
6.963664794921875,-0.0097039401516318,-0.0036878216672688,0.04683014023602,0.0007791727548465,-0.0017264513298869,0.0016057136235758
6.973643798828125,-0.005479673520103,0.0020254596793092,0.0465296959847211,0.0007702215807512,0.0009676376357674,0.0002180935698561
6.983622802734375,-0.0059410074215382,-0.0014744199341163,0.0408422979980707,0.0005718159954994,6.5091997385e-05,0.0010580546222627
6.993601806640625,-0.0044491066296584,-0.0004876739190891,0.0448836823433637,0.0004366810899227,0.0012916345149278,1.6327649063e-06
7.003580810546875,0.0012135222419165,0.0033252171662636,0.0460819522172212,0.0011165861506015,-0.0019752653315663,-0.0010907959658652
7.013559814453125,-0.0004173120966181,-0.0009980893929488,0.0417465533614158,-0.0024120865855365,-0.0015021376311779,-0.0009011008660309
7.0235390625,0.0049586453206837,-0.0057921370027586,0.0574590862780809,-0.001425918075256,-0.0028773946687579,-0.0011285347864031
7.033517822265625,0.0089694883972406,-0.0089291198542341,0.051925417548418,0.0002239546738564,8.06273892521e-05,0.0015802212292328
7.0434970703125,0.0038864860445261,-0.0035888913374394,0.0457891067504882,0.0003374053630977,-0.0016530901193618,0.0001114879778469
7.053475830078125,-0.0026201376368291,-0.0055251383633352,0.0543207882523536,2.43033282458e-05,-0.0006265016272664,0.0003820073907263
7.063455078125,2.4659517221e-06,-0.0092429167774505,0.0450426722973585,-0.0021131497342139,0.0003277081996202,-0.0017178951529785
7.073433837890625,-0.0132078018204309,0.0027775566882453,0.0475900186926126,-0.0021684155799448,-0.0017732884734869,0.0007742294692434
7.0834130859375,-0.0075315645486116,0.005665058290679,0.0486357283532619,-0.0006219178903847,-0.0010771378874778,-0.0009043609607033
7.093391845703125,-0.0125786005388014,-0.0025050598897971,0.0492336942464113,-0.0009861479047685,0.0004920251667499,0.0001743685861583
7.10336962890625,-0.0144616743390448,-0.0051239736839197,0.0426461325496435,-0.0011661775643005,0.0011013569310307,-0.0012861089780926
7.113348876953125,-0.0065939549049362,-0.0049280309867113,0.0429383934944868,-0.0025901091285049,0.0005636131390929,0.001554861664772
7.12332763671875,-0.0023177023578435,-0.0036752544466406,0.0375485171496868,0.0002682617632672,0.0006709387525916,-0.0009604940423741
7.133306884765625,-0.0066405887919478,0.0005611410140991,0.0471235702246427,-0.0007975324406288,0.000703327357769,-0.0006512846448458
7.14328564453125,-0.0028713359189219,-0.0073486457297578,0.0381464830428361,0.0009481696179136,-0.0016626249998807,-1.02617341326e-05
7.153264892578125,0.0040153000559657,-0.0127076885448768,0.0481704489290714,-0.000662038102746,0.0008210390806198,-5.49617616343e-05
7.163243896484375,-0.0040888036835938,-0.0076609082830138,0.0583481440722942,-0.0002503134310245,-0.0016844626516103,-0.0004632243362721
7.173222900390625,-0.0001290514734573,0.0007511288945563,0.0429313792318105,-0.0009744453127495,0.0010190876200795,-0.0019255166407674
7.183201904296875,-0.0023758440195582,-0.0073687934686429,0.0487701683878898,0.0005901617696508,4.09083440899e-05,-0.0005526570603251
7.193180908203125,0.008744374404475,-0.0045763680048286,0.0435316832125186,0.0026789419353008,0.0004574488848447,0.0023243939504027
7.203159912109375,0.0125356929788365,0.0060149677068926,0.0450280592501163,-0.0015869094058871,7.76825472712e-05,-0.0003366365854162
7.213138916015625,0.0081707209686748,-0.0040695509938523,0.0486176081746816,-0.0016917267348617,-0.0009344508871436,0.0004802313051186
7.223117919921875,-0.0044664778895676,-0.0009294263372197,0.0442798712313175,-0.0006552245467901,-0.0003280490636825,0.0001316235138801
7.233096923828125,-0.0240002130622044,0.000288699014578,0.0541582911670208,-8.50200885906e-05,-0.0001454753801226,0.0001310746010858
7.243075927734375,-0.0100202578254975,0.0007067417635582,0.0514618916898965,0.0005173869431018,4.81363385915e-05,-0.0001269857166334
7.253054931640625,-0.0104945242737419,-0.0034156901950016,0.0541594602108001,0.0007222646381705,-0.0015564337372779,-0.0004373077244963
7.263033935546875,-0.0066842818032018,-9.55510626547e-05,0.0531143350720405,-0.000838081468828,0.0006281565874814,0.0011573932133615
7.273012939453125,-0.0012086268710903,0.0029200338988564,0.0454845708459615,0.0012747574364766,-0.0003656195476651,5.54176804143e-05
7.282990966796875,-0.0003440276646986,-0.0120902507662773,0.0523684851408004,0.001193264615722,0.0003249375149607,0.0005720709450542
7.2929697265625,0.0040118294572457,-0.0095915840846486,0.0314227277457714,-0.0002102529397234,-0.0013520773500204,-0.0018112615216523
7.302948974609375,-0.002228124378249,-0.0045100978355854,0.041000118908286,-0.0003756352234631,-0.0018623387441039,-1.33613939397e-05
7.312927734375,-0.0079593249740079,-0.0073863656579516,0.0534194554984569,0.0003509334055706,-0.00079564191401,-6.91992536303e-05
7.322906982421875,-0.0140705195969901,-0.0062409950151108,0.0414484471976757,0.0003325575962662,-0.0012401239946484,-0.0012726817512884
7.3328857421875,-0.0024569464317522,0.0015125051884911,0.0522235237121582,0.0016258859541267,-0.0004162844270467,-0.0015246149851009
7.342864990234375,-0.0121094851897098,0.0011450418492779,0.0516255578190088,-0.0010870762635022,-0.0024330960586667,4.23889796365e-05
7.35284375,-0.0006091996732167,0.0042915597140789,0.031128713235259,-0.0011657669674605,-0.0011885967105627,-0.0008548392215743
7.362822998046875,0.0083598137999884,0.0067218556009232,0.049831075617671,-0.0025575349573045,-0.0020677065476775,0.0003909874940291
7.3728017578125,-0.0002818126160651,-0.0016594393785111,0.0534206245422363,0.0008962625288404,-0.0020427517592906,0.0012278663925826
7.382781005859375,0.0026158998531289,-0.0028809257311746,0.0493809937626123,-0.0018523860489949,0.0009913872927427,0.0004792519030161
7.392759765625,-0.0057428179683163,0.0011704868177883,0.0492319406807422,-0.0015201593050733,-0.0017428677529096,0.0014862902462482
7.402739013671875,-0.0096513697141781,0.0019485037192702,0.0480354243725538,-0.0026245722547173,1.16229057312e-05,-0.0008309261756949
7.4127177734375,-0.0083402323166839,-0.003345127443131,0.0410030415177345,0.0018136997241526,0.0004553124308586,0.0003780075348913
7.422697021484375,-0.0124407995033077,0.0076264032252132,0.0429512529760599,-0.00090219208505,0.0001059053465723,0.0009822787251323
7.43267578125,0.0008281579198315,-0.0003861315070651,0.0517833787292242,0.0007482251967303,-0.0006740847602486,0.0010039587505161
7.442655029296875,0.0050863633535802,0.0103029289580881,0.0549286910176277,0.0005290470435284,-0.0009917998686432,-0.0035298066213726
7.4526337890625,0.0051973494473844,0.0094364117892459,0.0552308888345956,0.0012481107842177,-0.0009072050452232,-0.0009064057958312
7.462612060546875,0.0073755520029924,0.0085571447366848,0.0534317304581403,-0.002562606241554,-6.13844022154e-05,-0.002292581135407
7.472590576171875,0.0071713164014741,0.0037797012018039,0.0444493825793266,-0.0016582729294896,0.0018735202029347,0.000823923619464
7.48256982421875,-0.000548299798835,-0.0047715800496749,0.0450432568192481,0.0002674588467925,-0.000671662390232,0.0031083831563591
7.492548583984375,0.0054615168089047,-0.0122465921054594,0.0418985290527343,0.0005519296391867,-0.0006774263456463,0.0009619192569516
7.50252783203125,0.0059386510676704,-0.0148491210203617,0.0463864881217479,0.0006733697955496,0.0021633673459291,0.0037116329185664
7.512506591796875,0.0059023011126555,-0.0150316745130345,0.0505716648519039,-0.0014030950842425,0.0023373132571578,0.0003756363003049
7.52248583984375,0.0001736760664731,-0.0106863387851044,0.0469768552303314,-0.0008355755126103,-0.001034514978528,0.0016435673460364
7.53246484375,0.0082731766961514,-0.0060611266698688,0.0393453374385833,0.0014419839717447,-6.62105157971e-05,0.0004566395655274
7.54244384765625,0.0046875732943415,-0.0069087930077686,0.0375479326277971,-0.003564492566511,0.0013644397258758,0.0001426528906449
7.5524228515625,-0.0089011541350744,-0.0021124621093273,0.0441267264962196,-5.87054528295e-05,0.0018248371779918,-0.0005223299376666
7.56240185546875,-0.0099209439031779,0.0055341253873892,0.0480149661064147,-0.0002595077967271,0.0020954143255949,0.0005447986768558
7.572380859375,-0.0071074208524078,0.0125603707623668,0.05145546194911,-0.0011710047256201,8.69622454047e-05,0.0005842429818585
7.58235986328125,-0.0039190000746399,0.004018149600178,0.0544429533272981,-0.002859448781237,-0.0004715025424957,0.002616501180455
7.5923388671875,-0.0064510758355259,0.0003861497733741,0.0415741194039583,8.06545722298e-05,0.0002513024955987,-0.0013032830320298
7.60231787109375,-0.0044171405888162,-0.0123030532667413,0.0469599040955305,0.000879336555954,-1.9641593098e-06,-0.0003472081734798
7.612296875,0.0050451545603573,-0.011227551256027,0.044267596271634,-0.0019979164935648,-0.0009464249014854,-0.0016358108259737
7.62227587890625,-0.0047895358314737,-0.0133985568858683,0.0489034393787384,-0.0036243088543415,-0.0003943517804145,0.0007418593158945
7.6322548828125,0.0035029300870373,-0.0127903435933403,0.0526437949508428,-0.0009236314217559,0.0002177124843001,0.0005680283065885
7.64223388671875,0.0021755174081772,-0.0021716084180399,0.0489028548568487,-0.0016666534356772,-0.0020808624103665,0.0019083971856161
7.6522119140625,-0.0079670333564281,-0.0025842443395406,0.050996612265706,-0.0002317280159331,-0.0001804465427994,-0.000162397918757
7.66219091796875,-0.0055523003648966,-0.0001094151912257,0.0532405918002128,0.0003802663413807,0.0002557793632149,0.0012344300048425
7.672169677734375,0.0021896007324568,0.0127245118155144,0.0506979215800762,-0.0008948406903073,-0.0001477794721722,-0.0014700765023007
7.682148681640625,0.006719353116583,0.0090136745988391,0.0498012650012969,-0.00198380718939,-8.38628038764e-05,0.0004282247682567
7.692127685546875,0.0079503379499539,0.0105435145146213,0.0483066425293684,0.0004547198186628,0.0009104507043957,0.0013539976207539
7.702106689453125,-0.0017990122459828,0.0067645622314885,0.0411228685051202,0.0014912220649421,0.000835083425045,-0.0001632052881177
7.712085693359375,-0.0051948104304261,-0.0003223638221621,0.045761634221673,-0.000446165620815,-0.0009809918701648,0.0002153252571588
7.722064697265625,-0.002968037759047,-0.0045812816419638,0.0456102430522441,-0.0014088983880355,0.000832088291645,-0.0003750975592993
7.732043701171875,-0.0014792787723243,-0.0066021747440099,0.0480056137561798,0.000406113336794,0.0007609324529767,-0.0016895668813958
7.742022705078125,-0.0017285956245847,-0.0122832343214191,0.0550397501766681,0.0024487576447427,-0.0003746394068002,-0.0012008768972009
7.752001708984375,0.0020654628961347,-0.0151245586945675,0.0393289708256721,-0.0008251592516899,0.0011945338919758,-0.0009522706968709
7.761980712890625,0.0019071122629567,0.0001382394269108,0.0357376683354377,0.0001021534553728,-0.0011069700121879,-0.0001384086790494
7.771959716796875,0.0111732272529043,-0.0009155074097216,0.0445692095667123,-4.56519774161e-05,-0.0021474668756127,-0.0007517347112298
7.78193896484375,-0.0001266037880443,0.0009491539509966,0.0400830040633678,0.0005469566676765,0.0003087203949689,0.0001953906321432
7.791917724609375,-0.0012093757897615,-0.0010414170780219,0.0510047955721616,0.0002654935815371,0.000726293772459,-0.0003978226450271
7.80189697265625,0.0051643970258533,0.0029701931835152,0.0400830040633678,8.06702882982e-05,-0.0003549493849277,-0.0010969024151563
7.811875732421875,-0.0026667715238407,0.0017227504056878,0.0466688121944665,0.0001306719495914,-0.0026166383177042,0.0012786075240001
7.82185498046875,-0.0134076900403946,-0.002245806165412,0.0502595301628112,-0.0016067743999883,0.0008633146062493,-0.000514498911798
7.831832763671875,-0.0016929215230047,-0.0074584627797827,0.052501756131649,0.0010593403130769,0.0018954323604702,-0.0015410572523251
7.84181201171875,-0.01023289592918,-0.0058125952688977,0.0349976636230945,0.0020127519965171,-0.0025653624907135,-0.050102200359106
7.851790771484375,-0.0151340023763477,-0.0105889976241625,0.031529695251584,9.25649073906e-05,-0.012802799232304,0.0999542027711868
7.86177001953125,0.0121531234020367,0.0047052733478136,0.0635813685506582,0.0019711588975042,0.0141443964093923,-0.1072881966829299
7.87174853515625,-0.019525844127126,-0.0144432984321378,0.038564416193962,-0.000257907086052,-0.0115306070074439,0.0750493854284286
7.881727783203125,0.0120051480324007,0.0037274230252951,0.0402425785392522,0.0014300043694674,0.0067847501486539,-0.0681469216942787
7.89170654296875,-0.0152401844308711,-0.0184346513569355,0.0484475123047828,-0.0019037558231502,-0.0092181246727705,0.0618862174451351
7.901685791015625,0.0200254459460265,0.0045150845379568,0.0366571212679147,0.0007703242008574,0.0080761769786477,-0.0613845810294151
7.91166455078125,-0.006150613317918,-0.0131738630182109,0.0456096585303544,0.0035128626041114,-0.0096901319921016,0.0537436753511428
7.921643798828125,0.0066620699713937,-0.0055461628850549,0.0493827473282814,0.001068347133696,0.0079612992703914,-0.0471589714288711
7.93162255859375,-0.0067474832325242,-0.0184207141631282,0.0481622656226158,-0.0001973622711375,-0.0114041855558753,0.0439958535134792
7.941601806640625,0.0176083383343182,0.0093445139884017,0.0398112013846635,0.0004457911127246,0.0114353504031896,-0.0419371649622917
7.95158056640625,-0.0169586605202406,-0.0131897364407777,0.0335007030636072,-0.0001720578293316,-0.0113937649875879,0.0362882874906063
7.961559814453125,0.0084274356761015,0.0001969838768243,0.0475882651269435,-0.0031492055859416,0.010889702476561,-0.032431922852993
7.97153857421875,-0.0202999703047797,-0.013398118494451,0.0466635514974594,-4.89414669573e-05,-0.0116754742339253,0.0270714350044727
7.981517822265625,0.006187346865423,-0.0022968787655234,0.0462397731274366,-0.0010596110951155,0.008580794557929,-0.0231115743517875
7.99149658203125,-0.0142532557527534,-0.0072620086259208,0.048314825835824,-0.0003097275621257,-0.0116077121347188,0.0237683057785034
8.001475830078125,0.0211587060259655,0.002827679440286,0.0483358686238527,-0.0019169452134519,0.0111066550016403,-0.0161175914108753
8.011454833984375,-0.0035116065838374,-0.008744703198038,0.046524435287714,0.0029943608678877,-0.0137238521128892,0.0167633555829525
8.0214326171875,0.0147849149440415,0.0138155036563053,0.0490899018615484,-0.0025591291487216,0.0109580578282475,-0.0115753412246704
8.03141162109375,-0.0035705336968414,-0.0005303988159634,0.0528115527331829,0.0012020380236208,-0.0103370137512683,0.0106590539216995
8.041390625,0.017754158279486,0.0092793397977016,0.0465413864225149,-0.004772497806698,0.0121909324079751,-0.0084749590605497
8.05136962890625,-0.0140860276933759,-0.0102964078857563,0.0439782579362392,0.0005370944854803,-0.0154167125001549,0.0084079802036285
8.0613486328125,0.0083791395549662,-0.0018234708338044,0.0402612832397222,0.0010438940953463,0.0116676352918148,-0.0077797784470021
8.07132763671875,-0.0074178933073766,-0.0077182462271302,0.0477227051615714,-0.0033945781178772,-0.0139109408482909,0.0045674932189285
8.081306640625,0.0032672216350212,0.0032815789539366,0.0562695842325687,-0.001591351814568,0.0132815316319465,-0.0047381240874528
8.09128564453125,-0.0073374850149266,-0.008204732836131,0.0537123009651899,0.0068286405876278,-0.0123780909925699,0.0030099023133516
8.1012646484375,0.004998612004891,0.0046835364400409,0.0514858570873737,-0.0022351616062223,0.0158277153968811,-0.001919076195918
8.111243896484375,-0.0081459701199084,-0.0067142020174302,0.0496732547074556,-3.766361624e-05,-0.0156327094882726,-0.0002236868167528
8.12122265625,0.0074924746472388,-0.0020924239682964,0.0426554848998785,-0.0021937587298452,0.0145081486552953,0.0012383885914459
8.131201904296875,-0.0010157894464209,0.0010681041555479,0.0445879142671823,-0.0009485129266977,-0.0178721025586128,-0.0004210824263282
8.1411806640625,0.0122785581463016,0.0110158264677971,0.0469973134964704,-0.0024502694141119,0.0144520150497555,0.0042226715013384
8.151159912109375,0.0046453781204298,0.002254464395903,0.0444400302290916,0.0037037257570773,-0.0140207856893539,-0.0042178672738373
8.161138671875,0.0083921816996298,0.0054451684623025,0.0471481201440095,-0.0009940904565155,0.0165224745869636,0.006868605967611
8.171117919921874,0.0006617701106704,-0.0139193293569609,0.0399544092476367,0.0036823309492319,-0.0173925701528787,-0.0066787749528884
8.1810966796875,0.0082637878132984,-0.0077338273887522,0.0464028547346591,-0.0001946990960277,0.0172951035201549,0.009078349918127
8.191075927734374,-0.009929638666287,-0.0173897088812664,0.039355274310708,0.0020153110381215,-0.0144401583820581,-0.0083006219938397
8.201053955078125,0.004469400499016,-0.0039083325501531,0.044305005672574,-0.0036228673998266,0.0180464126169681,0.0085936728864908
8.21103271484375,-0.0098019388996995,-0.0116947851752862,0.0445861607015132,-0.0004335331032052,-0.0178157333284616,-0.0112342806532979
8.22101171875,0.0009154891434125,0.0007502155791036,0.0535842906713485,-0.0011680328752845,0.0086792567744851,-0.0051822476089
8.230990478515626,-0.0061431789301335,0.0033549912500195,0.0478892939001321,0.0004871993442066,-0.0010620011016726,0.009664156474173
8.2409697265625,-0.0048124783156439,0.0078225103192031,0.0516319875597953,0.0021066677290946,0.0021042311564087,-0.0026905140839517
8.250948486328125,0.0111101354214362,0.0098991156638599,0.0469862075805664,0.0041899494826793,0.011622242629528,0.0010068002156913
8.260927734375,-0.0056237216332927,0.0121262719277292,0.1474655204176902,0.0057734651491045,0.0489773377776145,-0.0002555380924604
8.27090673828125,0.0101347693169489,-0.0089279873430728,0.0188935010403394,0.0032013033051043,-0.0029109809547662,-0.0003457877319306
8.2808857421875,0.0200268524518236,-0.0052209860512986,-0.0470960976958274,-0.0055272066965699,-0.0062615042552351,-0.0003633645828813
8.29086474609375,0.0081433763040229,-0.0144704604336991,0.0129424836814403,-0.0026006258558481,-0.0249650403857231,0.0005754263256676
8.30084375,7.60426445864e-05,-0.0061469417897984,0.0321294147104024,-0.0012743717525154,-0.0128045147284865,0.0001157647202489
8.31082275390625,-0.0065547919383272,0.0005751512731425,0.0753963095068931,-0.0057476833462715,-0.0094433389604091,0.0015658559277653
8.3208017578125,-0.0047730778870172,0.0001683788368478,0.0689700758516788,1.91255821846e-05,-0.0014855470508337,0.0010934111196547
8.33078076171875,-0.0031384076235815,-0.0062802858458831,0.0507166262805461,0.0009276552009396,0.0010354304686188,-0.0008168523199856
