seconds_elapsed,ax,ay,az,gx,gy,gz
0.089486083984375,-0.0051092145062051,0.0005400434271432,0.0492488918155431,0.002647946588695,-0.0002185739576816,-0.0010090158320963
0.09946484375,-0.0062836833793669,0.0015716514972038,0.0552349804878234,0.0011793181765824,0.0001925220713019,-0.0011036916403099
0.109444091796875,-0.013457045607455,-0.0056820276917889,0.0555330866515636,0.0016227345913648,-0.0010722130537033,-0.0007159354281611
0.119423095703125,-0.0130038767461664,-0.0013631233130581,0.0453647438585758,-0.0017097371164709,-0.0012239394709467,0.0002505748125258
0.129402099609375,0.001033507766202,-0.0039006972329691,0.0459708930581808,-0.0012929524527862,-0.0024311505258083,0.0011017210781574
0.139379638671875,-0.0026446692898869,0.0117890393299981,0.0480740028172731,0.0007130222511477,-0.0026314919814467,-0.0001283497404074
0.14935888671875,0.0030666210290044,0.0007832045332528,0.0519733483433723,0.0020472661126405,0.0027773883193731,0.0015393216162919
0.159337646484375,-0.0014163330713286,0.0035508608819916,0.0503325953990221,-0.0002660923055373,0.0003312304615974,-0.0009068177314475
0.16931689453125,-0.0009511632449924,-0.0006126520056277,0.0603600684165954,-0.0004415946314111,-0.0005513411015272,-0.0026634386740624
0.179295654296875,-0.0003287204977124,-0.0050872766690328,0.0365729501157999,-0.0007265036692842,-0.0010853549465537,-0.0003729760355781
0.18927490234375,-0.0080130644552409,0.0034978885857388,0.0509416672080755,-0.0009723134571686,0.0005562175065279,0.0003569964028429
0.19925390625,-0.0061655551587231,0.0008163578841835,0.040617841592431,-0.0016420786269009,0.0003478592261672,0.0021576958242803
0.20923291015625,-0.0038794535155408,-0.0020499182671308,0.0424152464032173,-0.0023898943327367,-0.0002873046323657,0.0021326621063053
0.2192119140625,0.006730422499869,-0.0037808154466561,0.0472054032891988,-0.0024490091018378,0.0027729282155632,-0.0013083962257951
0.22919091796875,-0.009735193806421,-0.007741042580828,0.0434603715419769,-0.0012625707313418,0.0004482548683881,0.0008756621973589
0.239170166015625,-0.0085563227527774,-0.007031268609967,0.0433066422849893,-0.0014333900762721,-0.0002961242571473,-0.0011906296713277
0.24914892578125,-0.0140409464426338,-0.003030435470771,0.0456774630695581,-0.000114326365292,-0.0001392634585499,0.0014150071656331
0.259128173828125,-0.015572521657776,-0.0013506839565932,0.0457207176893949,-0.0005369995487853,-0.0005579907447099,-0.0034216050989925
0.26910693359375,-0.0041821627891622,-0.0095568415648303,0.0451467171937227,0.0004566258285194,-0.0015204567462205,-0.002287631155923
0.279086181640625,-0.0043559484534896,0.001702730530966,0.0617728578239679,0.0010063878726214,0.0004133973270654,0.000244436727371
0.28906494140625,-0.0100813768955878,7.19509913586e-05,0.0411275446802377,0.0013241030974313,0.001515413634479,0.0008995743119157
0.299044189453125,-0.0050939621381461,-0.0015629567340947,0.0391547833025455,0.0034662149846553,-0.0015535308048129,-0.00027212157147
0.30902294921875,-0.0028683037116192,0.0042759968187659,0.0402425785392522,-0.0002763251541182,0.0031743785366415,-0.0012020973954349
0.319002197265625,0.0078505125709809,-0.0003475895949639,0.0528325955212116,0.0020510056056082,-0.0002622008323669,0.0009766449220478
0.32898095703125,-0.0017039726399816,-0.0030202246040105,0.0565992545783519,0.0024989494122564,0.0006454046815633,-0.0002036679943557
0.338960205078125,0.0054272309468127,0.006759210202936,0.0476478863596916,0.0011842243839055,-0.0018808180466294,-0.0003599511110223
0.34893896484375,-0.0021521730652078,0.0043653190700337,0.049607203733921,0.0020729212556034,-0.0001716017723083,1.98156412807e-05
0.358918212890625,-0.0035819501399993,-0.0073852514130994,0.0534925207346677,0.0009238069178536,0.0005172127857804,0.0002905633591581
0.36889697265625,0.001035571859125,-0.0080154938743449,0.0437765978842973,0.0013142263051122,-0.0016577905043959,0.0003645992546807
0.3788759765625,0.0051996875349432,-0.0015684914257377,0.0331517434954643,0.0008957079844549,0.0010282890871167,-0.0009135148138739
0.388854736328125,0.0025128596037626,-0.0047519985663704,0.0340443084210157,0.0004741296870633,-0.0011051697656512,-0.001350539503619
0.398833984375,-0.0022018756921403,-0.0069373980477452,0.048989948618412,-0.0033247678074985,0.0010003084316849,-0.0004252595826983
0.408812744140625,0.0055870428847149,-0.0093174433183856,0.036117607563734,0.0004342840984463,-2.2611580789e-05,-0.0011826626723632
0.4187919921875,-0.001571030442696,-0.0020438903851434,0.0375982015103101,-8.01074784249e-05,-0.0020078485831618,-0.0009817015379667
0.428769775390625,-0.0069599752057343,-0.0004596899336203,0.047473698836565,0.0004394752322696,0.0002739476040005,-0.0009537384030409
0.4387490234375,-0.0088125077372416,0.0007946209764108,0.0510737691551446,-0.0001881053321994,-0.0012347139418125,-0.00026107695885
0.44872802734375,-0.0004333499159663,0.0051505511635914,0.0542190814435482,-0.0006174069130793,-0.0027239536866545,-0.001357766566798
0.45870703125,0.0005308189410716,-0.0033984285329468,0.0447895743191242,-0.0010788622312247,-0.0007193740457296,0.0009495102567598
0.46868603515625,-0.0008824088577181,-0.0086551982836797,0.0482283165961503,0.0010298287961632,0.0020740162581205,-0.0010864763753488
0.4786650390625,-0.0015530746608972,-0.0016131708176806,0.0528705894440412,0.0017606050241738,0.0021461071446537,-0.0006665741093456
0.48864404296875,0.0037186186643317,-0.0096918478550389,0.0468839162498712,-0.0002359668142162,-0.0012203948572278,0.0023254873231053
0.498623046875,-0.0023381606239825,-0.0010791918051429,0.0365600906342268,-0.0010357288410887,-8.69268551468e-05,0.0007520226645283
0.50860205078125,-0.0033050511610694,-0.0097117763982154,0.0426987395197153,-0.0008370570139959,0.0019653048366308,-0.0023255262058228
0.5185810546875,0.0010780044950544,-0.0020954196429811,0.0347697000861167,0.0013903791550546,-0.0005606990307569,-0.001211546245031
0.52856005859375,0.0017600502087734,-0.0034893764857202,0.045392216387391,0.0011389765422791,-0.0002067647874355,0.0017722593620419
0.5385390625,0.0010663871224969,0.0031587745581753,0.045839960154891,-0.0029599918052554,-0.0015635322779417,-0.0019334700191393
0.54851806640625,0.0085268774625845,-0.0003026727410033,0.0498848516315221,-0.000802032474894,-0.0013238480314612,3.72690847143e-05
0.5584970703125,0.0084503781602717,0.0076094886230304,0.0365706120282411,0.0017321554478257,-0.0014099841937422,0.0011511765187606
0.56847607421875,0.0106119035757146,0.0051079358645714,0.0442056369513273,-0.0003363217110745,0.0003785947337746,0.0021171052940189
0.578454833984375,0.0031393392053432,0.0053200625116005,0.0498901123285293,-0.002080206759274,-0.0007605077698826,0.001560517004691
0.588433837890625,0.0073997000635601,0.0002697020531632,0.0418184495538473,-0.0015339924721047,-0.001837489195168,0.0011551838833838
0.598412841796875,-0.0035832835805602,-0.0055931255656294,0.0448088635414838,0.0008649004157632,-0.0030681127682328,-0.0001163903943961
0.608391845703125,-0.0017274996460415,-0.0008419855157844,0.046005964371562,-0.0011433893814682,0.0011687101796269,-0.0003198558988515
0.618370849609375,-0.0048019751879386,0.0043412623410113,0.0445043276369571,0.0016204437706619,-0.0005867714062333,-0.000167177960975
0.628349853515625,0.0065274655399844,-0.0032773046376183,0.043904023656249,0.0025605396367609,0.0021160701289772,0.0006474829860962
0.638328857421875,-0.0004231207828968,-0.0066242404453456,0.03371931425035,0.0011532728094607,0.0031355237588286,-0.0001451551506761
0.648307861328125,0.0014992621144279,-0.0004646766359917,0.0383504811823368,0.0026867208071053,0.0002662343904376,0.0005025255959481
0.658286865234375,-0.0014841010779142,0.0030501265519298,0.0492699346035718,0.0022634463384747,0.0012939386069774,0.0002775689063128
0.668265869140625,-0.009578541939985,-0.0003295607479289,0.056446109843254,0.0015763508854433,0.0020699836313724,-0.0022977078333497
0.678244873046875,-0.001616787546873,0.003900331906788,0.0574976647228002,-0.0014941107947379,0.0007591182366013,0.0006683098617941
0.68822412109375,-0.0071167366700246,0.0157903656595386,0.0504664509117603,0.0002489280886948,0.0001556454226374,0.0010038681793957
0.6982021484375,-0.004248633887805,0.009805226835329,0.0383475585728883,-0.001158992643468,-0.0025867819786071,0.000983424601145
0.708180908203125,0.0024820991393178,0.0041887569267302,0.041781624674797,-0.0035694199614226,0.0013597570359706,-0.0010743999155238
0.71816015625,0.0028149478228762,-0.0016650471353903,0.0465694434732198,0.0009528392693027,-0.0005842000246047,-2.38759312196e-05
0.728138916015625,0.0016316197898238,-0.0140943388639949,0.0531534980386495,-0.0023976836819201,-0.0006680898368358,0.0004296604020055
0.7381181640625,0.006989329164382,-0.0091518226942047,0.0510614941954612,0.0003959593595936,-0.0020176088437438,-0.0013724586460739
0.748096923828125,0.001112874879036,-0.0070977579749189,0.0503179823517799,-0.0009430780191905,-0.000576838850975,-0.001318929134868
0.758076171875,-0.0041560237009078,-0.0024151165840215,0.0476221673965454,-0.000365910178516,0.0004397109150886,0.0011129969498142
0.768054931640625,0.0009210603676736,-0.0050435105925425,0.0467208346426486,0.0002223820774815,-0.000507840886712,0.0016847776714712
0.778033935546875,-0.0002773373703472,0.0071535067501477,0.0474193383008241,-0.0059108161367475,0.0263152234256267,-0.0027695994358509
0.7880126953125,-0.0203019247998483,-0.0042870296694338,0.1126847144156694,0.0025021093897521,-0.0211199335753917,-0.0002041764673776
0.797991943359375,0.0308592851767316,-0.0031136750411242,-0.1035498063236474,0.0014941379195079,0.0086878929287195,0.0015542237088084
0.807970703125,-0.0315881474405527,-1.07405897229e-05,0.139925772562623,-0.001979689579457,-0.010276211425662,-0.0016165358247235
0.817949951171875,0.0074742083381861,0.0104176596452482,-0.0068587798535823,0.0005499452818185,-0.0040054246783256,0.0008860882371664
0.8279287109375,-0.006177647455316,0.0047611682535149,0.0705079529434442,0.0006535422289744,-0.0017467979341745,-6.54592295177e-05
0.837907958984375,0.0037772535163909,-0.0018393807889893,0.0440197589904069,0.000875586294569,0.001064758747816,0.0005658612353727
0.847886962890625,0.0087801581039093,0.0011560381673276,0.0470166027188301,-1.95020693354e-05,-0.0015770969912409,0.0008817121852189
0.857865966796875,0.0112298345446586,2.99567468464e-05,0.0396855291783809,-0.0014969737967476,-0.002593383193016,-0.0001892680884338
0.867844970703125,0.0059461950533092,0.0082206245250068,0.0589905336290597,7.72207276895e-05,0.0006010793149471,-0.0001541143574286
0.877823974609375,0.0126030408603139,-0.0025653569759801,0.0449228453099727,0.0012876391410827,0.0004232944920659,0.0010377401486039
0.887802978515625,0.0064403717784211,-0.0046289932412095,0.0390863942414522,0.0003667180426418,0.0003236923366785,-0.0002696055162232
0.897781982421875,-0.0068917322751134,0.0019825155867263,0.0525543631017208,-0.0011671263491734,-0.000882901251316,0.0010089114075526
0.907760986328125,-0.0104587405743077,0.0031086335398256,0.0410275914371013,-0.0017437008209526,0.0011086100712418,-0.0003114837454631
0.917742431640625,-0.0078118610610254,0.0052109761139377,0.0482096118956804,-0.0003579231561161,-0.0004887832328677,0.0015043066814541
0.927721435546875,-0.0043788726713508,-0.0023576507757417,0.0501589923977851,-0.0014016160275787,-0.0031868321821093,0.0004355800338089
0.937698974609375,-0.0151160283282399,0.0075289889990352,0.0462695837438106,0.0003137211315333,0.0020614052191376,-0.0009903155732899
0.94767822265625,-0.0096302538609132,0.0024608554218895,0.054499067428708,-0.0008820382063277,-0.0011482369154691,-0.001817493350245
0.957656982421875,-0.0064589851473458,0.0041460320298559,0.0419306777566671,0.0001370917307212,0.0007864581421017,-0.0009379410766996
0.96763623046875,0.0006802373491227,0.0123883021310903,0.0471697474539279,-0.0006866239709779,0.0004021637141704,0.0008439800003543
0.977614990234375,-0.000346256154403,0.0097994181490503,0.0459755692332983,-0.0022954563610255,-0.0020550386980175,0.0006610870477743
0.98759423828125,-0.0037946978415362,0.0058714858492836,0.0467266798615455,-0.0004597395018208,0.0018757870420813,-0.0017922170227393
0.997572998046875,-0.0065819174072705,0.0105335776424966,0.0489706593960523,-0.0012097610160708,-0.0008609788492321,-0.00025689805625
1.00755224609375,0.0021706403036601,0.0042976058623753,0.0464268201321363,-0.0011660852469503,-0.000250581651926,-0.0008025797433219
1.01753125,0.0092797233901917,-0.0024479046087712,0.0536117632001638,0.0013426644727587,0.0016796542331576,-0.0023774721194058
1.02751025390625,0.0065947951551526,-0.0066691755656152,0.0408984120994806,0.0022939455229789,-0.0002223746851086,-9.9220633273e-06
1.0374892578125,0.0068091685581952,0.0011919497309252,0.0461357282310724,0.0010308251949027,0.0001221410930156,-0.000841743312776
1.04746826171875,0.0088246730990707,-0.0031658618860878,0.036557752546668,0.0014540015254169,0.0008870009332895,0.0001430935953976
1.057447265625,0.0114488110575824,0.0043777401601895,0.0465805493891239,0.0008121281862258,0.0010550692677497,0.0015532354591414
1.06742626953125,0.0060436275457963,0.0062289940500631,0.0423883583962917,6.5111555159e-05,-0.0006320439279079,0.0007899735355749
1.0774052734375,-0.0022344627874903,-0.0027786709330976,0.0471738391071558,-0.0014150906354188,0.000806426629424,0.0004466427781153
1.08738427734375,-0.0005952076804824,0.0057527183078229,0.0347509953856468,-0.0017056413926184,-0.0002830727025866,0.0011936594964936
1.09736328125,0.0058488173597492,0.0067293265213258,0.0428267498135566,-0.0017119238618761,-0.0005264151841402,-0.0015595571603626
1.10734228515625,0.0091308895040303,0.0007593304673209,0.0461181925743818,-6.9680390879e-06,0.0016360711306333,0.0013470168923959
1.117321533203125,-0.0002295892384834,-0.0004876921853981,0.0356371305704116,-0.0011523325229063,-0.0007615415379405,0.0003254663897678
1.12730029296875,0.0039933804851025,-0.0066354924917221,0.0429699576765298,-0.0018040079157799,-0.0016742069274187,0.0010349325602874
1.137279541015625,-8.85367999784e-05,-0.009276344123017,0.0559819994628429,1.99071364477e-05,0.0016315802931785,0.0010554187465459
1.14725830078125,0.0053645044415257,-0.0029731888581998,0.0422112482637166,-0.0005561346188187,0.0002246322110295,0.0003302400000393
1.157237548828125,-0.0039323344802483,-5.53103838115e-05,0.041311669075489,-0.001032939297147,1.26902014017e-05,0.0003335312067065
1.167216064453125,-0.0021227277750149,-0.003625497020781,0.0405617274910211,-1.74759770743e-05,-0.0004062252119183,0.000134593079565
1.1771953125,-0.0108774591767229,0.002475231007114,0.0432528662711381,-0.0004470106796361,-0.0002828454598784,0.0015311628812924
1.187173095703125,-0.0058422232221812,0.0027147388514131,0.0465396328568458,-0.0010097365593537,-0.0017246808856725,4.24558311351e-05
1.19715234375,-0.0074710300004109,-0.0092175996731035,0.0389092841088771,-0.0001371088437736,-0.000679763033986,0.000818905653432
1.207131103515625,0.0013038674064911,0.0027478008707985,0.0448959573030471,-0.0007301948498934,-0.0007585929706692,0.000353651412297
1.2171103515625,-0.0036361462789587,0.0004381356889382,0.0529781414717435,0.0006726130377501,0.0008562048897147,0.0011999558191746
1.227089111328125,0.0004458440713584,0.0021319887937046,0.0469908837556838,0.0015152371488511,-0.0007307725027203,-0.0007886266103014
1.237068359375,-0.0040351007349789,0.0026633191914297,0.0392114819258451,0.0003792345523834,0.0013839984312653,-0.0011276513105258
1.247047119140625,-0.0022857180506922,0.0074629014928825,0.0457943674474954,0.0008127972250804,0.0003158040344715,-0.0008472205372527
1.2570263671875,-0.0004224631957709,0.0117953412066213,0.0459492657482624,-0.001438844949007,-0.0010374216362833,-0.0004028876428492
1.267005126953125,0.0144557195222936,0.0053176513588055,0.0484971966654062,0.001725256559439,0.0009503616020083,-0.0019113020971417
1.276984375,0.0028998861599713,-0.0054155953079462,0.047904491469264,-0.0007506957044824,-0.0002114512026309,0.0014889795565977
1.286963134765625,0.0017400668666698,0.0086486224124208,0.0407230555325746,-0.0004351111128926,-0.0010285098105669,0.0012684697285294
1.2969423828125,0.0096265458001755,0.0045511604983359,0.0459609561860561,-7.8247976489e-06,-0.0003102077171206,0.0033943017479032
1.306921142578125,0.0002691905965097,-0.0064661638068035,0.0462567242622375,-0.0016816215356811,0.0002503870055079,0.0005338003975339
1.316900390625,-0.0020877295268699,-0.0096505294639617,0.0474538250923156,0.00034805649193,0.0005529411137104,-0.0005286077503114
1.326879150390625,0.0061774465259164,-0.0077265025988221,0.0483522352367639,-0.0007528943242505,-0.0009647943079471,0.0011206879280507
1.3368583984375,0.0031729309476912,-0.007391005300451,0.0513461563557386,-0.0016033481806516,-0.0015518944710493,0.0022021324839442
1.346837158203125,-0.0034382308203727,-0.0113936102716252,0.0531353778600692,0.000106667575892,-0.0011998238041996,0.0001765320193953
1.35681640625,-0.0013273213473148,-0.0035190775042399,0.0371229852139949,-0.0016339884605258,0.0019642962142825,-0.0003074317646678
1.366795166015625,0.0080627488158643,0.0025065211945213,0.0502881717354059,0.0009159882320091,-0.0004221620038151,0.0018252276349812
1.376774169921875,-0.0019844335491769,0.0004505019801668,0.0417564902335405,0.0017647868953645,-0.0032971370965242,-0.0013933739392086
1.386753173828125,-0.005149016793631,0.0066526262896135,0.0404138434529304,-0.0022746957838535,-0.0006281165406107,0.0012327692238613
1.396732177734375,0.0025637860734015,0.0075581602945923,0.0483434674084186,-0.0014216707786545,-0.0003886986523866,0.0012257536873221
1.406711181640625,-0.0038360710315406,0.0006419146327301,0.0420551809191703,-0.0003420252469368,0.0006030621007084,-0.0003044986806344
1.416690185546875,0.0098207166654057,-0.0100076723385602,0.0353209042280912,0.0017683256883174,0.0001663174480199,0.0009827145840972
1.426668212890625,-0.0050697958112694,-0.0103310773403383,0.0356207639575004,0.0003989283577539,0.0017357179895043,-4.23360834247e-05
1.436647216796875,-0.0013295863696374,-0.0050332997257821,0.0444470444917678,0.0018078598659485,6.67748972773e-05,0.002583666704595
1.446626220703125,0.0029290391892194,-0.0051970937190577,0.0414519543290138,0.001573767978698,0.0003429446369409,-0.0001111859965021
1.456605224609375,-0.0002263926343992,-0.011245908896625,0.0499859739184379,-0.0002638429286889,-0.0040338058024644,-6.3161569414e-06
1.466584228515625,0.0031652042989619,-0.0053473341110162,0.0435550640881061,0.0024941267911344,0.0017950553447008,-0.0002555880346335
1.476563232421875,0.0010559570600278,0.0036613355191424,0.0426572384655475,0.0012059407308697,-0.0019714850932359,-0.0005990050849504
1.486542236328125,0.0034436193815432,-0.0025894867702387,0.0556798016458749,-0.0005400276277214,-0.0006747925654053,-0.002942853141576
1.496521240234375,-0.000713938689325,0.0003647416591644,0.0396715006530284,-0.0002981707802973,-0.002756985835731,-0.0019362514140084
1.506500244140625,-0.0056598341262899,-0.0020026998582296,0.0405716643631458,3.76538373529e-05,0.0009272312745451,-0.0001924135722219
1.516479248046875,-0.0074319218327291,0.0060648164642974,0.0495528431981801,0.0010231436463072,-0.0003887834027409,-0.0021217036992311
1.526458251953125,-0.0050312173665501,0.0079360719625838,0.0450654686510562,0.0012021081056445,-0.0015174318104982,5.01041067764e-05
1.536437255859375,0.0069123001391068,-0.0041605720118619,0.0423778370022773,0.0002632440882734,-0.0004513384774327,-0.0011421868111938
1.54641650390625,-0.0067357379958033,-0.0039133557851426,0.0500105238378047,0.0006177108152769,0.0009641321375966,-0.0028026676736772
1.556395263671875,-0.0063612055949866,-0.0019179807168431,0.0494108043789863,-0.0012977472506463,0.0005462495610117,-0.00101954722777
1.5663740234375,-0.0071887241940014,-0.0074427172213792,0.0422264458328485,0.001344374846667,0.0008858023211359,-0.0003188695991411
1.576353271484375,-0.0042949572475627,-0.0053155507332645,0.047318800535798,0.0017895740456879,-0.0002436619251966,0.0005706974770873
1.586332275390625,-0.013300046681147,0.0042492366760037,0.0574994182884693,0.0012161955237388,-0.0006804205477237,-0.0018048422643914
1.596311279296875,-0.0038950164108537,0.0061488597522489,0.0441799179881811,0.0007585136918351,0.0006939554587006,0.0012851518113166
1.606290283203125,-0.0052225386875681,0.0062281355335377,0.0465770422577857,-0.0012321991380304,-0.0008916910737752,-0.0010147540597245
1.616269287109375,-0.0001330700614489,-0.0019919044695794,0.0474725297927856,-0.0011632717214524,0.0006075138226151,0.000282559194602
1.626248291015625,0.0067191704534925,0.0010702595800161,0.0437321742206811,-8.33598314784e-05,0.0012376178056001,0.0024112239480018
1.636227294921875,0.0106950518145225,-0.0003064538669772,0.0416378322899341,8.14342056401e-05,0.001900777220726,4.61072631878e-05
1.646206298828125,0.0187913193074986,-0.0026421120066195,0.0437339277863502,-0.0012490809895098,-0.000113371759653,-0.0015701651573181
1.656185302734375,0.0077000164506956,-0.003891655409988,0.0334101021707057,-0.0009288714500144,0.0010504052042961,-0.0019167091231793
1.666164306640625,0.0086332056475803,-0.0015457498709671,0.0480710802078247,0.0014924744609743,-0.0007874425500631,0.0001280659198528
1.676142333984375,0.003772084150929,-0.0022319603031501,0.0468745638996362,-0.0014164254534989,-0.0013042539358139,-0.0005625128396786
1.686121337890625,0.000344849648606,-0.0020968809477053,0.0455254873782396,-0.0020824819803237,0.0020574545487761,0.0005008873413316
1.696100341796875,-0.0016650471353903,-0.00430233683642,0.0380424381464719,0.0008818620117381,0.0007730787619948,-4.91917708131e-05
1.706079345703125,-0.0055369201326742,0.0015829766088165,0.0486643699258565,0.0006120838224887,0.0008351299911737,-0.0011717141605913
1.716058349609375,-0.0067683068248443,0.0060448513885028,0.0479144283413887,-9.73816495388e-05,0.0021389368921518,0.0009587964159436
1.726037353515625,-0.0186842056712135,0.0034558212759904,0.0383341145694255,0.0024475348182022,-0.0007623108103871,-0.0025890667457133
1.736016357421875,-0.0103053949098102,0.0039132279209792,0.0383346990913152,0.000168454425875,0.00135332159698,0.0015694892499595
1.745995361328125,-0.0095707787586376,0.0073070898766629,0.0446148022741079,3.31658520735e-05,0.0003447830677032,0.0002171359956264
1.755974365234375,-0.0036638562697917,0.0051462220483459,0.0532908606827259,0.0012547436635941,0.0005020666867494,-0.0021571363322436
1.765953369140625,0.003448733948078,-0.0061022258652374,0.0489513701736927,0.0007194482604973,0.0009715817868709,-0.0006559125613421
1.77593212890625,-0.0009722790982574,0.0015662081371061,0.0512011949270963,0.0010156347416341,0.0022156070917844,-0.0010510275606065
1.785911376953125,0.0050373000474646,-8.43720815144e-05,0.0476098924368619,0.0026180585846304,-0.0001431545242667,0.0004829531535506
1.79589013671875,0.0128569060235284,-0.0078078607393428,0.0489589689582586,0.0017174970125779,0.0018079234287142,0.0011937188683077
1.805869384765625,0.0144595737135037,-0.0131347913831472,0.0450689757823944,0.0003049563383683,-0.0002965070307254,-0.0005117694963701
1.81584814453125,0.0190509931569918,-0.0145991648472845,0.0479150128632783,-0.0020867271814495,-0.0009030355140566,-4.64603799628e-05
1.825827392578125,0.0211019526037387,-0.0205527760220691,0.0492623358190059,-0.0001157216029241,0.0018346942961215,-0.0022534220479428
1.83580615234375,0.0051153885186649,-0.0167821897084824,0.0341465997517108,0.0025400270242244,0.0021199388429522,0.0029706312343478
1.845785400390625,0.0012584390958771,-0.0063579176593571,0.0489630606114864,-0.0004070271388627,-0.0016564233228564,-0.002267007716
1.85576416015625,0.0045890448233112,-0.0077525320892222,0.0609375760436058,0.0024639209732413,-0.0006268750876188,4.0686369175e-05
1.865743408203125,-0.0149696421274915,0.0080152564123272,0.057345104509592,-0.0032152698840945,-0.0009073056280612,0.0007632019696757
1.87572216796875,-0.0184719694263301,0.0041467261495999,0.051505730831623,-0.0023902605753391,-0.0016151051968336,-0.0020690774545073
1.885701416015625,-0.0269630997220985,0.0078185830627568,0.044920507222414,-0.0004048740083817,-0.001219093799591,0.0008553395746275
1.89567919921875,-0.0285418385472148,0.0142799245639704,0.0440209280341863,0.0010869342368096,-0.00099119823426,0.0024521744344383
1.905658447265625,-0.0308774966868571,0.0142519223121926,0.0468605353742837,-2.89301970042e-05,0.0010956553742289,0.0016460353508591
1.91563330078125,-0.0192696774089708,0.0165730404698289,0.0491015922993421,-0.0004660925769712,0.002735087648034,0.0009893920505419
1.925612548828125,-0.0110646888445131,0.0127106842195615,0.0432651412308216,-0.0003047049976885,-0.0004484551027417,-0.0002686852531041
1.93559130859375,0.0110926362973637,-0.0027493900396861,0.0497018962800502,0.001869790488854,0.0015112878754734,0.001236004056409
1.945570556640625,0.0098562811691313,-0.0057074543939903,0.0362304202884435,0.0016064038500189,0.0019131591543555,-5.29658755112e-05
1.9555498046875,0.0145463752141222,-0.0135553366164676,0.0375771587222814,-0.0009316192590631,-0.0008074436336755,0.0004321050655562
1.965528564453125,0.0135593004055321,-0.0063997840397059,0.0468593663305044,-0.0024413652718067,-0.0013408754020929,-0.0014102697605267
1.9755078125,0.014368534429185,0.0003731258950196,0.0458148257136344,0.0002806229749694,-0.0003934577107429,-0.0002614035329315
1.985486572265625,0.0197426652155816,0.0020240349072031,0.0486614473164081,8.2217506133e-05,-0.0013921428471803,-0.0008227978833019
1.9954658203125,0.0104074670447967,0.0059546158217825,0.0470154336750507,4.39047580584e-05,-0.0012670839205384,-0.0022680121473968
2.005444580078125,0.012791622234974,0.011573770877812,0.0404337171971797,-0.0014059201348572,0.0019316393882036,-0.0020240666344761
2.015423828125,0.0061447863653302,0.0087293046995066,0.0455196421593427,-0.0004972165916115,0.0011597257107496,-0.000341240374837
2.025402587890625,0.0017040274389088,0.0183397944140248,0.0368418301850557,0.0014564784942194,0.0014156559482216,-0.0012845318997278
2.0353818359375,-0.0094928364179097,0.0123088984856382,0.0390887323290109,-0.0010490479180589,-0.0007889755070209,-0.0009027745691128
2.045360595703125,-0.0201068040865473,0.0057595133747905,0.0408861371397972,-0.0028528068214654,-0.0027325507253408,0.0006370651535689
2.05533984375,-0.0065051441103219,0.0104917112621478,0.0416331561148166,0.0003111634869128,0.0001395847648382,-0.0009473314858041
2.065318603515625,-0.0060987917991355,0.0070823594763875,0.0455196421593427,-0.000707229366526,3.0661933124e-05,0.0007557600620202
2.0752978515625,-0.0010494907866232,-0.0004337517747655,0.054939212411642,-0.0013504351954907,0.0009774593636393,-0.0022243894636631
2.085276611328125,0.0015389000050723,-0.0141663081216625,0.0547848986327648,-0.0002438917872495,0.0010413751006126,0.000210272570257
2.095255859375,0.0108454931358806,-0.0084300660246051,0.0546335074633359,0.001467760419473,0.0004243487492203,-0.0001692179357632
2.105234619140625,0.0023321144756861,-0.0061541935144923,0.0356266091763973,0.0026475407648831,0.0007433956488966,0.000415345915826
2.1152138671875,0.0121101975757628,-0.0065807483634911,0.0444569813638925,0.001113494625315,-0.0003282986581325,0.0007720168214291
2.125192626953125,8.05361566133e-05,-7.80154059641e-05,0.0354857394009828,0.0008413197356276,-0.00060127209872,0.0009666938567534
2.135170654296875,-0.0115977728079073,0.0061070116382092,0.051349078965187,-0.0003657930064946,-0.0017306776717305,0.0007878929027356
2.1451494140625,-0.0113656993513926,0.0081251099949702,0.0504518378645181,-0.0010827160440385,0.0008754916489124,-0.0003186505637131
2.155128662109375,-0.010890336924605,0.0080324267428368,0.0476040472179651,-0.0003010325599461,-7.49928876757e-05,0.0011347325053066
2.165107421875,-0.0080854538380168,0.0100973416496999,0.0446159713178873,0.001591675914824,-0.0026617208495736,6.94680784363e-05
2.175086669921875,-0.0070999499320052,0.0020247838258743,0.0444651646703481,-0.0017694083508104,0.0011181617155671,-0.0006734997150488
2.1850654296875,-0.000268259014748,-0.0009772110017016,0.0471568879723548,0.0003608542028814,0.0005900571122765,-0.0006247638957574
2.195044677734375,0.0042200653804466,-0.0057677149475552,0.0501490555256605,-0.0011901099933311,0.0013949042186141,0.0025382393505424
2.205023681640625,-0.0086325115278363,-0.0092336374924518,0.0408680169612169,-0.001236448995769,-0.0001302883028984,0.0011374165769666
2.215002685546875,0.0121313316953368,-0.0013704846356064,0.0528401943057775,-1.052103471e-06,0.0003421939909458,0.0023020335938781
2.224981689453125,0.0138929893393069,-0.0009633834057487,0.0399701913386583,-0.0005272927228361,0.0005970587953925,-0.0009307776927016
2.234960693359375,0.0191358584288507,-0.0067719052877277,0.0453577295958995,0.0004669617046602,-2.1543353796e-05,0.0004069667193107
2.244939697265625,0.0147092558919452,-0.0012643391137011,0.0476028781741857,0.0005684281350113,-0.0006377985700964,-0.0012401983840391
2.254918701171875,0.0130731791227124,-0.0031848223148845,0.0555319176077842,-0.0023200479336082,0.0029748817905783,-0.0004655550001189
2.264897705078125,0.0093052414239384,0.001151690785773,0.0495423218041658,-0.0010435947915539,0.0028257444500923,0.0014125062152743
2.274876708984375,-0.0007116188680753,-0.0028704226034693,0.0475941103458404,0.0005599513533525,-0.0011220285668969,-0.0001347818615613
2.284855712890625,-0.0035314985943958,0.0043138811437413,0.050742929765582,-0.0011399443028494,-6.07585534453e-05,-0.0014639655128121
2.294834716796875,-0.0189464916029013,-0.0026428426589816,0.0431102429300546,-0.0003968756645917,0.0011553401127457,0.0010912892175838
2.304813720703125,-0.0243856321832165,-0.003168729696609,0.0505897850304842,-0.0003294976777397,-0.0004358990117907,-0.0008485572761856
2.314792724609375,-0.0174590112578123,-0.0111933201928623,0.0413105000317096,0.0002684201463125,0.0004666754975914,0.0010228755418211
2.324771728515625,-0.0159859430305659,-0.002974284836743,0.0386152695983648,0.0022873627021908,0.0004392443224787,-0.0013132493477314
2.334750732421875,-0.0021613427523523,-0.0028681941137649,0.0468412461519241,0.0007675882079638,8.81906598806e-05,0.0012976778671145
2.344729736328125,0.008287935873866,-2.74359961971e-05,0.0426473015934228,-0.0030873373616486,0.0015864847227931,-0.000282109278487
2.354708740234375,0.0035669717665761,-0.0014285166994668,0.0480325017631053,-0.0019620787352323,-0.0002578161656856,-0.0013760500587522
2.3646875,-0.0003897299699485,-0.0020430136023089,0.0451847111165523,-0.0029016421176493,9.02591273188e-05,-0.0008764411322772
2.37466552734375,-0.0037923232213594,-0.0010097250318154,0.0469815314054489,0.0001239093835465,0.0009530587121844,0.0004330633382778
2.38464453125,-0.0157422704678028,0.0029517259450629,0.0574579172343015,-0.0005165807669982,0.0004217587411403,-0.0007946538971737
2.39462353515625,-0.0094143278216011,0.0065015091148205,0.0492301871150732,-0.0009678676142357,9.6021220088e-05,0.0015269848518073
2.4046025390625,-0.0010685242806561,0.0020067732451483,0.0425017556428909,-0.000860808591824,0.0002395659685134,0.0012798435054719
2.41458154296875,0.0010211780075915,0.0102737028636038,0.0526718520015478,0.0006352332420647,0.0032733408734202,-0.0010074491146951
2.424560546875,0.0044211409104987,0.009450312450435,0.0553583146065473,-0.0012026142794638,0.0016485461965203,0.0006327917799353
2.434539794921875,0.0101961989142931,0.0069593541512265,0.0414379258036613,0.0017876693746075,0.0017395531758666,-0.0002839124354068
2.4445185546875,-0.0012014482116326,0.0042848194460384,0.046076691520214,-0.0013575237244367,-0.0006674118340015,0.0008465994615107
2.454497802734375,-0.001225852000527,0.0097131098387762,0.0472749613940715,-0.0016503814840689,0.0010933186858892,-0.0001366536598652
2.4644765625,0.0070389221934601,0.0111226113105192,0.0418833314836025,0.0014780338387936,0.0003958363085985,-0.0011300126789137
2.474455810546875,0.0088741930629126,0.0047303164575248,0.0474216763883829,0.0019111486617475,0.0017675878480076,-0.0013181171379983
2.4844345703125,0.00399979195958,0.0095212953274138,0.0447299530863761,-0.0008412284078076,-0.0021115718409419,0.0008355812751688
2.494413818359375,4.07338691875e-05,0.0004857742229476,0.0522100797086954,1.04890787042e-05,-0.0007785651832818,-0.0001454267476219
2.504392822265625,0.0047856816402636,-0.007076295061782,0.0460725998669862,-0.0002225375501438,0.0007221261039376,0.0005821489030495
2.514371826171875,0.0015737521227449,-0.0022364720814861,0.0528022003829479,0.0018702845554798,0.0021325647830963,-0.0005421618116088
2.524350830078125,-0.0060102915317751,-0.0100636403094977,0.046966333836317,-0.0004701013676822,-0.0001518949866294,-0.0024830736219882
2.534329833984375,-0.0087612342077307,-0.0094934392061084,0.0533966591447591,0.0009189303382299,0.0008605699986219,0.0008773793815635
2.544308837890625,-0.0153605959401465,-0.0187922874218784,0.0492056371957063,0.0005466204020194,-0.0003772675991058,0.0003993419522885
2.554287841796875,-0.0131802196937613,-0.004531779944431,0.0402267964482307,-0.0012393599608913,-0.0005151079967617,0.0008866322459653
2.5642666015625,-0.0111507596927694,-0.0015738251879811,0.0474070633411407,-0.0015469550853595,0.0006122086197137,-0.0001703764282865
2.57424560546875,-0.0190581170175224,0.0072370568477548,0.0423199693351984,0.0009262742241844,-7.88792967796e-05,-0.0008859871304593
2.584224609375,-0.0099770945372059,0.002528586895857,0.0509989503532648,-0.0001312670647166,0.0010748021304607,-0.0002484263386577
2.59420361328125,-0.0061970097429119,0.0084250793222337,0.0504027380257844,-0.0004228548787068,0.0009172400459647,0.0001465007080696
2.6041826171875,-0.0054788880688138,0.0056294937869533,0.0403793566614389,-0.0013770654331892,-0.000998904928565,0.0001084175019059
2.61416162109375,0.0048186888607218,0.0055853806505911,0.0556412232011556,-0.0024334108456969,-0.0008761249482631,-0.000542209832929
2.624139404296875,-0.0021660371937789,0.0039665838097222,0.0510042110502719,0.0001261532306671,0.0003728978335857,0.0008548844489268
2.63411865234375,-0.001772379967384,0.0066120933498255,0.0402314726233482,-0.0004609985044226,0.0007410049438476,-0.0001680949935689
2.64409765625,0.0101951760009862,-0.0004424648041836,0.0601303513139486,-7.9633842688e-05,-0.0003074808046221,0.0013075625756755
2.65407666015625,0.013689922781568,-0.0047973720780573,0.0527992777734994,6.68556895107e-05,0.0017286520451307,0.0009309907909482
2.6640556640625,0.0011989822599105,-0.0073996087320148,0.0544423688054084,-0.0005086533492431,0.0009552706032991,0.0013725429307669
2.67403466796875,-0.0072154295378364,-0.0129052569435909,0.052346857830882,0.0016306533943861,0.0009360834956169,-0.0003207646659575
2.684013916015625,-0.014530373927392,-0.0086823968178592,0.0414244818001985,0.0002277002204209,0.0012069270014762,0.0008094809018075
2.69399267578125,0.0065895527244545,-0.0015466266538016,0.0532446834534406,0.0024251344148069,0.001497333869338,-0.0008345516398549
2.703971923828125,0.0077126932691782,-0.0029590142023749,0.0499497335612773,-0.0012638763291761,-0.001685676164925,0.002549260854721
2.71395068359375,0.000234977799654,0.0111324020521715,0.0468090974479913,0.001529301633127,-0.0004465831443667,0.0004653419309761
2.723929931640625,0.0036260815426707,0.0052862150409258,0.0424742831140756,-0.000229716184549,-0.0019259685650467,-0.0012244337704032
2.73390869140625,-0.0059955323540605,0.0125831305834464,0.055644145810604,-0.0015004971064627,-0.0003590211272239,0.0001455331512261
2.743887939453125,-0.0141375569512136,0.0140064413848333,0.0397825598120689,-0.0015686739934608,0.0021049361675977,-0.0001444850931875
2.75386669921875,-0.0118511082481592,0.0115032446585595,0.0399310283720493,-0.0006517890724353,-0.0007127728313207,-0.0002889969036914
2.763845703125,-0.0074690207064151,0.0086538831094279,0.0421767614722251,0.0006893788231536,0.0009455773979425,0.0022777577396482
2.773824462890625,-0.0056592861370183,0.0083968030758202,0.0522024809241294,0.0024486719630658,-0.0005166456103324,-0.0024395051877945
2.7838037109375,0.0075996796150691,-0.0021195677035488,0.0528016158610582,-0.0012885419419035,-0.0001986641436815,-0.0006032554083503
2.793782470703125,0.0076329242975451,-0.0075208239588886,0.0510065491378307,0.0009082707692869,-0.000617079436779,0.0006193761946633
2.80376171875,0.0041045857746154,-0.0135655657495372,0.0492138205021619,-0.0006624616216868,-0.0014051087200641,0.0009096607682295
2.813740478515625,-0.0014981478695757,-0.0007303966337814,0.0460702617794275,0.0006351391784846,-0.0014284653589129,0.0002165987098123
2.8237197265625,-0.0021979301693849,-0.0051801243179477,0.045772740137577,0.0001501775695942,-8.03740695118e-05,-0.0007996635395102
2.833698486328125,-0.0071278973848558,-0.0084356920477934,0.0352986923962831,0.0010031720157712,0.0020557288080453,-0.0001930614234879
2.843677734375,-0.018815723096393,-0.0021170104202814,0.0493657961934804,0.0017749560065567,-0.0026599299162626,-5.83054643357e-05
2.853655517578125,-0.007064166232571,0.0014252652964554,0.05341361027956,0.0010863938368856,-0.0017332304269075,0.0009010108769871
2.863634765625,0.0019156060966663,0.0017645802534185,0.0547574261039495,0.0014030437450855,0.0012138234451413,-0.0012652042787522
2.873613525390625,0.0027100992089137,0.000215597245749,0.0489180524259805,-0.000612421776168,0.0017868662253022,-0.0003311792388558
2.8835927734375,0.0020543021813035,0.0067916694341227,0.0424818818986415,-0.0009714158950373,0.0001101400703191,-0.0010409116512164
2.893571533203125,-0.0082788940508849,0.0156454772961325,0.0514578000366687,-0.0024277798365801,0.0017528347671031,9.6907831903e-05
2.90355078125,-0.007476948284544,0.0132669481291435,0.046222237470746,0.0008606913615949,-0.0006631845608353,0.0002966449246741
2.913529541015625,-0.0106572953537106,0.0170479097062721,0.0378448697477579,-0.0002774161403067,0.0003897352144122,0.0009567363886162
2.92350927734375,0.0021017215196043,0.0101957787891849,0.0496679940104484,2.69831507466e-05,-0.0004771230742335,-0.0007530130096711
2.933488037109375,0.0003152034290134,0.0060397916208952,0.0505640660673379,-0.0017391685396432,0.0008094934746623,-0.0006539728492498
2.94346728515625,0.0081403988956473,0.003480279863812,0.0493652116715908,-0.002199362963438,-0.0006030471995472,0.0022331601940095
2.953446044921875,0.0136405124155804,-0.0068969016405753,0.0387386037170887,0.0001729475334286,-0.0018566800281405,-0.0013344893231987
2.96342529296875,0.0119114236006513,-0.0176084296658635,0.0457721556156873,0.0016651166370138,-0.0008039325475692,0.003665329189971
2.973404052734375,0.013642119850777,-0.0170702128696255,0.0493605354964733,-0.0030615092255175,0.002201035618782,0.000233868981013
2.98338330078125,-0.0069836118096485,-0.0134947107367217,0.0396282460331916,0.0003776971134357,0.0007842341437935,0.0016522685764357
2.993362060546875,-0.0069644504514522,-0.0081518153388053,0.0495043278813362,0.0021929037757217,-0.0002040648832917,-0.0010152360191568
3.00334130859375,-0.0106416959257796,0.0029042335415259,0.0468120200574398,0.0001372098922729,0.0011970242485404,0.0008886578143574
3.0133203125,-0.0116952783656306,0.0004140058946795,0.0393307243913412,-0.0012175185838714,-0.0002616327255964,0.0008275586296804
3.02329931640625,-0.0006326718803495,-0.0013298968968912,0.0441173741459846,0.0003167284885421,0.0020718285813927,-0.0001719257561489
3.0332783203125,0.0007622530767694,0.0059773573765531,0.0412736751526594,0.0003462088061496,6.63427636027e-05,0.0004889837000519
3.04325732421875,-9.66470411978e-05,0.0060646886001341,0.0424707759827375,-0.0005933544598519,-0.0002345945686101,0.000509490026161
3.053236328125,0.0023552578892558,-0.0029929895372129,0.0530938768059015,0.0006708869477733,-0.0002123601734638,-0.0004180926189292
3.06321533203125,0.0009081460871733,-0.0009529350769706,0.0445639488697051,0.002281832974404,0.0020478647202253,-0.0014881506795063
3.0731943359375,-0.0102331151248887,-0.0031504816538654,0.0411240375488996,0.0041944230906665,0.0013880282640457,-0.0010091320145875
3.08317333984375,-0.0066173540468327,-0.0030899288393557,0.0489104536414146,-0.0004445369122549,-0.0018650228157639,0.0003751790791284
3.09315234375,0.0150788015903905,-0.0036673634011298,0.0412830275028944,0.0001669527846388,-0.0023493710905313,-0.0008290532859973
3.103130126953125,0.0002765336527489,0.0005713518808595,0.04248480450809,0.0016058587934821,-0.0011485517024993,0.001944362767972
3.113109130859375,0.0001104381045326,-0.0054151569165289,0.0399403807222843,-0.0008952778298407,0.0004399344325065,0.0008121328428387
3.123088134765625,0.0024715412126854,-0.001556125134509,0.0516109447717666,0.0003641310613602,-0.0020906012505292,-0.0011378336930647
3.1330673828125,-0.0011711809375323,-0.0089717534195631,0.0438303738981485,0.0006752749322913,0.0014383932575583,-0.0007076717447489
3.143046142578125,-0.0051487975979223,0.0015529285304248,0.0466723193258047,-0.0015596498269587,0.0009430451318621,-0.00132392719388
3.153025390625,-0.0074798160950653,0.0117102750053629,0.0400859266728162,-0.0021168023813515,-0.0001940419897437,-0.0023753778077661
3.163004150390625,-0.0113617903612554,0.0023131723131984,0.0396411055147647,-0.0004451361310202,-0.00141217187047,0.0009506439673714
3.1729833984375,-0.0100281123383902,0.0022726211071014,0.0429325482755899,-0.0008671736577525,7.92406499385e-05,0.0003083698684349
3.182962158203125,-0.0078964888708665,0.0010236439593136,0.0472708697408437,9.50264511629e-05,0.0019501112401485,0.000227942422498
3.19294140625,-0.0103314061339013,0.0108125772469677,0.0394897143453359,0.0013539891224354,0.0002757236361503,-0.002155064838007
3.202920166015625,-0.0044925439125858,0.0020680932446382,0.0364934551388025,-0.0012132981792092,-0.0006206957623362,0.000169608509168
3.2128994140625,-0.0054731707140803,0.001784874122776,0.0370937591195106,0.0011881791288033,0.0010286262258887,0.0004808654193766
3.222878173828125,0.0039330468663014,-0.0016292999685741,0.0426303504586219,0.0004853709833696,-0.0009136172011494,0.0008161573787219
3.232857421875,0.0031368549873121,0.002616977565363,0.0427834951937198,0.0039405273273587,-0.0009048692882061,0.0008717585587874
3.242836181640625,0.0002311236084438,-0.0033204313932918,0.0450274747282266,-0.0022212283220142,-0.000847078859806,0.0001708145427983
3.2528154296875,-0.0107039109744131,0.0028244280372746,0.0489186369478702,0.0005829261499457,-0.0010177325457334,0.002404993167147
3.262794189453125,-0.0060258178944699,0.0014397322132252,0.0468242950171232,-0.0011222958564758,0.0013317083939909,0.0008270702091977
3.2727734375,0.0024207243409007,-0.007764259059634,0.0403863709241151,-0.0020804046653211,0.0020853308960795,0.0008309947443194
3.282752197265625,0.0067332720440812,0.0010329415106214,0.0526554853886365,6.9810776039e-06,0.0001580016687512,-0.0013807605719193
3.2927314453125,-0.0068862341160885,0.0010793196693062,0.0435258379936218,-0.0013207290321588,0.0009520938619971,0.000546954688616
3.302710205078125,-0.0025822167792357,-0.0026818960277363,0.0456195954024791,0.0027973167598247,2.26506963372e-05,-0.0009822323918342
3.312689208984375,-0.0007322597973048,0.0033294366836547,0.0544499675899744,-0.0008300923509523,-0.0006511555984616,-0.0005292774294503
3.322668212890625,-0.0117419853178784,-0.0020212036292999,0.0460725998669862,-0.0006473995163105,-0.000753154978156,-4.9009795475e-06
3.332647216796875,-0.0115630485543981,-0.0026199915063567,0.0375438409745693,-0.0022893066052347,0.0017499374225735,-0.0011073038913309
3.342626220703125,-0.0109990762623958,0.0045520372811704,0.045772740137577,-0.001324443379417,-0.0009044352918863,0.0011715629370883
3.352604248046875,-0.0039802652752026,0.0025233809977769,0.0379950918734073,0.0021267510019242,-0.0008159792050719,-0.0007786942878738
3.362583251953125,-0.0019350049168802,0.0089116572627797,0.0505687422424554,0.0006494956905953,-0.0003560511395335,-0.0004604465793818
3.372562255859375,-0.0063990351210348,-0.0041681159975007,0.0468336473673582,-0.0002567202318459,0.0001051444560289,-0.0014540515840053
3.382541259765625,0.003442852196563,-0.001532543329522,0.0469838694930076,0.0001323675969615,0.0007573524489998,0.0010730220237746
3.392520263671875,0.0064501077211461,-0.0020176051664166,0.0471294154435396,0.0005009910673834,0.0007939571514725,0.0015381723642349
3.402499267578125,-0.0019170308687724,0.0034471813118085,0.0472819756567478,-0.0008580200956203,-0.0016846470534801,-0.002049638191238
3.412478271484375,-0.0056412390236742,0.0032339404199272,0.0534223781079053,0.0005173564422875,0.0018067108467221,-0.0003826915635727
3.422457275390625,-0.0056007608828134,-0.0014748583255335,0.0472872363537549,0.0023626605980098,0.0008178791031241,-0.0025393194518983
3.432436279296875,-0.0113587216213345,-0.0082132084035314,0.0460883819580078,0.0015471425140276,-0.0001455126330256,0.0008634718833491
3.442415283203125,-0.0033244682475924,0.0023714235727675,0.0435427891284227,0.0011463366681709,0.0004049623385071,0.0012895776890218
3.452394287109375,-0.0016500687619671,0.0076022368983365,0.0445908368766307,-0.0004602742847055,0.0006559332832694,0.0010082318913191
3.462373291015625,-0.0022076478458009,0.0050554019597359,0.0374088164180517,0.0004483963130041,0.0005198456346988,-0.0002011094911722
3.472352294921875,0.0006943754723295,0.0014643551978282,0.0496767618387937,-0.0022788569331169,0.0003277603536844,-0.0023370715789496
3.482331298828125,-0.0007520970089361,-0.000725720458664,0.0393517671793699,-0.0013403589837253,-0.0003273775801062,-0.0011799281928688
3.492310302734375,0.0038024792891927,0.0034211883540265,0.0504255343794822,0.0002140682190656,-0.0008650701493024,0.000639020174276
3.502289306640625,-0.0088976470037363,0.0068952211401425,0.0468389080643653,0.0017043730476871,0.0005346871912479,0.0002962713188026
3.51226806640625,-0.0075345784896053,0.002414933920931,0.0378612363606691,-0.0019689614418894,0.000348225235939,-0.0002717825991567
3.5222470703125,-0.0074902096249163,-0.0087508589441888,0.0496843606233596,-4.48274658992e-05,-0.0020121345296502,-0.0001354287669528
3.532226318359375,0.0101150051705539,-0.004348788060341,0.0496878677546977,-0.0006441815639846,-0.0002091731876134,-0.0007700003334321
3.542205078125,0.0094503672493621,0.0014737988796085,0.039963177075982,-0.0008172870147973,-0.0005812169983983,0.0009240364306606
3.552184326171875,0.0024037549397908,-0.0070716371529735,0.0360720148563385,-0.0005651959800161,0.0009749680757522,0.0014603189192712
3.5621630859375,-6.95763711817e-05,0.0017381854368373,0.0414595531135797,0.0006803644355386,0.0012593939900398,0.0008328782860189
3.572142333984375,0.0060105472601018,0.0028590974918566,0.0459492657482624,0.0012935203267261,-0.0014291647821664,0.0002287020033691
3.582121337890625,-0.0082704915487207,0.0084649729412049,0.0450520246475934,0.0003201350336894,0.0006457036361098,0.0003490769013296
3.592100341796875,-0.0127660676686093,-0.0001418378897942,0.0508832150191068,-0.001839576056227,0.002742426469922,0.0011697185691446
3.602079345703125,-0.0101036617926321,0.0072181694841943,0.0444458754479885,-0.0021357194054871,0.0002044336870312,-0.0005107360775582
3.612057373046875,-0.0099064952527172,0.0076313716612756,0.0445925904422998,0.0019723270088434,0.0030219107866287,0.000529111130163
3.6220361328125,-0.0163226276390254,0.0115670854086987,0.0409989498645067,0.0002695019356906,0.0025822231546044,0.0001586654543643
3.632015380859375,0.0019095051494427,0.0071797189036384,0.0381505746960639,-0.0031411531381309,0.0006538722664117,0.0002373522875132
3.641994140625,0.005451251143217,0.0008838336298242,0.037251580029726,0.0028325831517577,-0.0002140523865818,-0.0006441540317609
3.651973388671875,0.0095187197778373,-0.0045642026429995,0.0486263760030269,-0.0018700542859733,-0.000430298037827,4.21746954089e-05
3.6619521484375,0.0018502857754938,-0.0100320943937636,0.0351601607084274,6.63301325403e-05,-0.0020601525902748,0.0004187456797808
3.671931396484375,0.0062119881163351,-0.0124574035782366,0.0427951856315135,-0.0006069910014048,-0.0031002387404441,-0.0008544570882804
3.68191015625,0.0016143033288419,-0.0023377222325652,0.0417477224051952,-0.0023292573168873,0.0006782542914152,-0.0009090519160963
3.691889404296875,-0.0112865514342673,0.0036152496214024,0.0414507852852344,-0.0013510473072528,0.0017728460952639,-0.0018869985360652
3.701868408203125,-0.0074538048709742,0.0013691877276636,0.0387567238956689,-0.000129455293063,0.0002732202410697,-0.000868073082529
3.71184716796875,-0.0039161505304276,0.0100976704432629,0.0380044442236423,-6.67232088744e-05,0.0001659113913774,0.0005947487661615
3.721825927734375,0.0011126191507093,0.0058281216315925,0.0457861841410398,-0.0010030906414613,-0.0030666338279843,0.0001009987245197
3.73180517578125,0.0080906414697878,0.0074854786508716,0.0420417369157075,-0.0022411176469177,-0.0001130504533648,-0.0019512047292664
3.7417841796875,0.0046497620346024,0.0082359134256839,0.0409971962988376,0.0017459008377045,0.0004725782200694,-0.0006020473665557
3.75176318359375,0.0034287688722833,0.0081703191098757,0.0438438179016113,0.0026903469115495,0.0011680275201797,-0.0006643133237957
3.7617421875,0.0031890052996575,-0.0090778076099231,0.0402548534989357,0.0017369353445246,0.0003935806453227,0.0007274546660482
3.77172119140625,0.0001783157089725,-0.0115126883403398,0.0426513932466506,-0.0005267969099804,-0.0022830748930573,-0.001567865605466
3.781700439453125,-0.0047621729005128,-0.006956066215597,0.0399596699446439,-0.0003449030045885,-0.0018388591706752,-0.0038688369095325
3.79167919921875,-0.0044039523136802,-0.0046164260205812,0.0428033689379692,-0.0010349048534408,-0.0008404180407524,-0.0008163832244463
3.801658447265625,-0.0010506232977844,-0.005625548264198,0.046240942171216,-0.0012903020251542,0.0005729207769036,-0.0001149066301877
3.81163720703125,0.0052963711087591,-0.0004256597998552,0.048482583618164,0.0013153118779882,0.001179345883429,0.0002337777114007
3.821616455078125,0.0085973123502917,0.0053328306616283,0.0460866283923387,0.0013030612608417,0.0023458106443285,0.0022215610370039
3.83159521484375,-0.0014110175753943,0.0052665604923851,0.0405459453999996,8.609786164e-06,0.0020894231274724,0.0019828393124043
3.841574462890625,-0.0022329101512208,0.0109758597835898,0.0420405678719282,0.0011540353298187,0.0016934107989072,0.002635580021888
3.85155322265625,-0.0182295024399645,0.0139774162197485,0.0516173745125532,0.0007587276631966,-0.0003446582704782,-0.0015581832267343
3.861531494140625,-0.0087709518841467,-0.0023628932064399,0.044590252354741,0.0021587514784187,-0.0003976551815867,0.000823215348646
3.87151025390625,-0.0078729435984976,-0.0027682226043194,0.0387578929394483,-0.0005149310454726,0.0005503939464688,-0.0011997994733974
3.881489501953125,-0.0030733430307358,-0.0081482168759219,0.0381622651338577,0.0031767426989972,-0.0006988951936364,0.0023946687579154
3.89146826171875,0.0037269115686416,-0.0161056604200974,0.0417599973648786,0.0009881968144327,5.72185963392e-05,-0.0023666340857744
3.901447509765625,0.0077628342875279,-0.0151800700077787,0.0472971732258796,0.0027120609302073,0.0022913450375199,0.0015524736372753
3.911426025390625,0.0198022864483296,-0.0119327586496248,0.0407101960510015,-0.0002805949770845,-0.0002668481320142,-0.0002322229556739
3.921406005859375,0.0113946879838593,-0.0088024795335717,0.037566637328267,0.0005873291520401,4.20790165662e-05,-0.0021707378327846
3.931384521484375,0.0018528430587612,0.0007834419952705,0.0585170708984136,-1.11163826659e-05,-0.0026923343539237,-0.0003056429268326
3.94136376953125,-0.0118496834760531,0.0186091311410069,0.0517863013386726,0.0004424198996275,0.0021160021424293,-0.0005557137774303
3.951342529296875,-0.002671721693594,0.0217229157799854,0.0475935258239507,0.0004313406534492,-0.0009765913709998,0.0013914598384872
3.96132177734375,-0.0045805692559108,0.0174138021429069,0.0526823733955621,0.001096864696592,-0.001382989808917,0.0003299238742329
3.971300537109375,-0.0100908753762952,0.0197110462346114,0.0493944377660751,0.001797383185476,-0.0001972271129488,-0.0003458845021668
3.98127978515625,-0.0067296370485797,0.0098832239749841,0.0401128146797418,0.000596297730226,0.0004917327314615,-0.0001706485054455
3.991258544921875,0.0009585611001588,0.0080629132126457,0.0380173037052154,0.0034066541120409,-0.0008765934035181,-0.0008573806844651
4.00123779296875,-0.0019055778929963,-0.001677066366747,0.0428080451130866,0.003349928651005,0.0008416781201958,-0.0012893453240394
4.011216552734375,-0.0018083097972907,-0.006051153265126,0.0486444961816072,0.0001465994282625,0.0018750810995697,-0.0008269249810837
4.02119580078125,-0.0024704087015241,-0.0099186788808554,0.0472965887039899,0.0011077342787757,-0.0001734225079417,0.0007248990004882
4.031174560546875,-0.0106427188390865,-0.0042908473280258,0.0401145682454109,0.0013788903597742,-0.0003718053922057,-0.0007930396823212
4.04115380859375,-0.0113338794410228,-0.009403203639388,0.049392684200406,-0.0012741507962346,0.0004332680255174,0.0002487889141775
4.051132568359375,-0.0002898863246664,-0.0085818590528331,0.0458031352758407,-0.0002883048146031,-0.0013487776741385,-0.0005566528998315
4.06111181640625,0.0165091083881445,-0.0031724194910377,0.0407166257917881,0.0002339410712011,0.0005050487816333,0.0011914460919797
4.071090576171875,0.0012896562180481,0.0067096719727851,0.0417617509305477,-0.0037553920410573,-0.0001145461574196,0.0015790961915627
4.08106982421875,0.0008138006009161,0.0083497673300094,0.0447539184838533,-0.0009292452596127,-0.0001483689993619,0.0011066513834521
4.091048583984375,0.0037991913535632,0.0126612007883377,0.0333808760762214,-0.0024340455420315,0.0001649605110287,-0.0009350499603897
4.10102783203125,-0.0088964414273388,0.0057888673334382,0.0517868858605623,0.0014893234474584,-0.0019439961761236,0.0024253267329186
4.1110068359375,-0.0115635600110515,0.0085746438607573,0.0523877743631601,0.0012454626848921,0.0006540212780237,0.0020329342223703
4.12098583984375,-0.0121902040094137,0.0054215318583883,0.0402688820242881,0.0006270767189562,-0.000322294421494,-4.27335253334e-05
4.130963623046875,-0.0038991628630086,0.0038983043464832,0.0425169532120227,0.001850615022704,-0.0002125855535268,-0.0001099666405934
4.140942626953125,0.0009354907518252,-0.0012040785601362,0.0522404748469591,-0.0008415746851824,0.0008673267439007,-0.0003954574931412
4.150921630859375,0.0042199375162832,0.0019046828438527,0.0458019662320613,0.0013790340162813,-0.0005736695602536,0.0003931242099497
4.160900634765625,0.0028938217453658,0.0050631103421561,0.0444558123201131,0.0032935806084424,-0.0004831217229366,0.0010280217975378
4.170879638671875,-0.0041921727265231,0.0031062771859578,0.045507951721549,0.0015732151223346,-0.0003973869606852,0.0010725003667175
4.180858642578125,-0.0028582207090221,0.0039830600204877,0.0390729502379894,-0.0004707608895841,-0.0008828807622194,0.0003731541801244
4.190837646484375,-0.0027522943828254,0.0053146556841209,0.0486491723567247,-0.0038402886129915,-0.0015803035348653,6.56493939459e-05
4.200816650390625,-0.0084195628968998,0.0102612635071389,0.0455050291121005,0.001324113109149,0.0005347784608602,0.0017357177566736
4.210795654296875,-0.0108152258617803,-0.0047071182450279,0.0420668713569641,-0.0007365323835983,-0.0036671408452093,-0.0013340134173631
4.220774658203125,-0.0084072148719802,0.0005154387088492,0.0393792397081851,0.0013745554024353,-0.0011584432795643,-0.0016866161022335
4.23075390625,0.0007613214950077,0.0019480287952348,0.0423743298709392,0.0019423938356339,-0.000703427940607,-0.0001008596154861
4.240732666015625,-0.0032785467466339,-0.004575107629504,0.0498573791027069,-0.0007274250965565,0.0007416028529405,0.0016104875830933
4.2507119140625,-0.0014933620966039,0.0023982202481478,0.0420785617947578,-0.0006113373674452,0.0017630727961659,0.0006198415649123
4.260690673828125,-0.0048916992980055,0.0025094986028969,0.0486585247069597,0.0001173035125248,0.0027734767645597,0.0006555279251188
4.270669921875,-0.0031354667478241,0.0160452537360601,0.047309448185563,-0.00135442125611,-0.0001169079914689,-0.0015065867919474
4.280648681640625,0.0084038538711145,0.0017985921208746,0.0538905801415443,-0.0022540369536727,-0.0018943017348647,0.0013331418158486
4.2906279296875,-0.0050848655162379,0.0026733656614087,0.042369069173932,-0.0002248027012683,-0.0019254656508564,3.33309872075e-05
4.300606689453125,0.0032970870503224,0.0064114562111906,0.0375771587222814,-0.0006301358225755,0.0030772825703024,-0.0001831840054364
4.3105859375,0.0009491539509966,-0.0046997934550978,0.0380260715335607,8.80434527061e-05,-0.0029854504391551,-0.000752656138502
4.320564697265625,5.96760316751e-05,0.0002306669507175,0.0458072269290685,-0.0012560539180412,0.0010756030678749,-0.000360106176231
4.3305439453125,0.0015998364120721,-0.0073135378837585,0.0408691860049963,0.0005516536184586,0.0008102329447865,0.0008252008701674
4.340522705078125,0.0036827618996612,-0.0020633257379755,0.0390735347598791,0.0001702890149317,0.0008515119552612,8.61736261867e-05
4.350501953125,0.0043631088466383,-0.0016178469927981,0.0381716174840927,-0.0006516930297948,0.0006192028522491,-0.0001692782825557
4.360480712890625,0.0090712865375913,-0.0007269808339886,0.0516372482568025,-0.0002466262085363,-0.0004969285801053,0.0025972134899348
4.3704599609375,0.0001337641811929,0.0090274656621739,0.047895139119029,-0.00229954556562,0.0004542460665106,-0.0001503965177107
4.380438720703125,-0.0065754511338658,0.000970068874862,0.0457972900569438,-0.0003887274651788,0.0027003558352589,-0.0015749214217066
4.390417724609375,-8.2161858119e-05,0.0095525124495849,0.0483399602770805,-0.0003995587467215,-0.0020321747288107,-0.0013250483898445
4.400396728515625,0.0078303830984048,0.0095520557918585,0.0456494060188531,0.0012289641890674,0.0006182035431265,-0.0008640551823191
4.410374755859375,-0.0003637187458574,0.0106620445940643,0.0471481201440095,-0.0011952880304306,0.0002450942993164,-0.000228282311582
4.420353759765625,-0.0047062962611205,0.011378631898202,0.0389198055028915,0.0007171279285103,0.0013212775811553,-0.0011084569850936
4.430332763671875,-0.0053784781679511,0.0121371586479246,0.0435568176537752,0.0012887597549706,-0.0007531531155109,-0.000326364825014
4.440311767578125,-0.0115052174199372,0.0012964695513248,0.0480418541133403,0.0015683916863054,-0.0006964281201362,0.0013644761638715
4.450290771484375,-0.0074748111263848,-0.0036238895855844,0.0529798950374126,0.0003124200738966,0.0024252785369753,-0.0006004882743582
4.460269775390625,-0.0036080344293266,-0.0055488662987947,0.0489396797358989,0.0012812780914828,6.81150704622e-05,-0.0018010414205491
4.470248779296875,-0.0055098311963491,-0.0064973991952836,0.0410088867366313,0.0025130864232778,-0.0005934676155447,-0.001948922057636
4.480227783203125,0.0003900222308933,-0.0145359451516531,0.0428068760693073,-0.0012078824220225,-8.3716586232e-06,0.0016703138826414
4.490206787109375,0.0007686828175559,-0.0022100589985959,0.0395171868741512,0.0012942341854795,-0.0005766963586211,0.0019780185539275
4.500185791015625,-0.0031667934678494,-0.0014612864579074,0.0435538950443267,0.0006273785838857,0.0013932446017861,0.0014448536094278
4.510164794921875,-0.0014337408638559,-0.0003328852161765,0.0414601376354694,-0.0006319343810901,-0.0004137577489018,0.0011255004210397
4.520143798828125,-0.003570387566369,0.0063271937275305,0.0546294158101081,0.0013630395988002,-0.0030606742948293,-0.0008577557164244
4.530122802734375,0.0025470724006183,0.0122792705323547,0.0543354012995958,0.0013491462450474,0.0008265441283583,-0.0010882350616157
4.540101806640625,0.0057560975749976,0.0097000311614945,0.0438642761677503,0.0013898925390094,0.0007612966001033,-0.0014909050660207
4.550080810546875,0.0115236481257714,0.0033248335737735,0.0471557189285755,0.0012334212660789,-0.0009499760344624,0.0006993644637987
4.560059814453125,0.0071141428541392,0.0052998417074792,0.0531435611665248,-0.0015125641366466,0.0002891924232244,-0.0019467523088678
4.570038818359375,0.0086215334760956,-0.0045149384074844,0.0567336946129798,0.0001099223736673,-3.12961637973e-05,-0.0016112296143546
4.580017578125,0.006876699102763,-0.0008226049618795,0.0455108743309974,-0.0005271057016216,-0.0010510208085179,0.0010487355757504
4.58999658203125,0.0022019122247584,0.0008492920394055,0.0507481904625892,0.0021489290520548,0.0020692804828286,-0.0010066885733976
4.5999755859375,-0.0085668258804827,-0.0026079174760729,0.0446124641865491,0.0008317296160385,-0.0015347748994827,-0.0016109597636386
4.60995458984375,-0.0098088252982124,-0.0010021627798676,0.0419207408845424,0.0005075110821053,-0.0003251554444432,0.0004237480752635
4.61993359375,-0.0050892859630286,-0.0031355032804422,0.0547872367203235,-0.0013630932662636,-0.0005866782739758,0.0014567881589755
4.629912841796875,-0.0066904375493526,-0.001654562273994,0.0449123239159584,0.0004846529918722,-0.0011679977178573,-0.0006855000392533
4.6398916015625,-0.01152213202212,0.0081494955175556,0.0419230789721012,-0.0014386819675564,3.73488292098e-05,-0.0006708526634611
4.649870849609375,-0.0172313582480885,-0.0006802008165046,0.0528489621341228,0.000663734273985,-0.0015726238489151,0.001311236526817
4.659849609375,-0.0028943149357102,-0.0061584860971197,0.0506043980777263,-0.0009959477465599,0.0017869537696242,0.001383940805681
4.669828857421875,0.0003805968154221,-0.0109388705077581,0.0440180054247379,-0.000662182283122,-0.0005279155448079,0.0023643793538212
4.679806640625,0.0072241060346364,-0.0028008279659785,0.045664603587985,0.00108991144225,4.94578853249e-05,0.0013076370814815
4.689785888671875,0.0067499857168644,-0.0036084910870529,0.0494078817695379,-0.0004217962268739,3.34670767188e-05,0.0004647939349524
4.6997646484375,0.0150341221984475,-0.0117497302329167,0.0464116225630044,0.001376636326313,0.001860661432147,-0.0001586520811542
4.709743896484375,0.009917509837076,-0.0115669210119172,0.0497001427143812,0.0004698134725913,-0.000601302832365,0.0013645747676491
4.71972265625,0.0012638093907386,-0.0073997548624873,0.0372802216023206,0.0002343900268897,0.0010882066562771,-0.0005984412273392
4.729701904296875,0.0017866459547542,-0.0093309786533936,0.0516436779975891,0.0009047720232047,0.0021671447902917,0.0006376368692144
4.7396806640625,0.0076310611340217,0.0130539446992799,0.0380249024897813,0.0029032081365585,0.0005796337500214,-4.17355186073e-05
4.749659912109375,0.0094026191174983,0.0086458094008266,0.0383253467410802,-0.0002836717176251,0.00112543720752,-0.001116647850722
4.759638671875,0.0066533934745937,0.0086134415011852,0.0443096818476915,-0.0043617701157927,-0.0015771389007568,-0.003306032391265
4.769617919921875,0.0007331183138303,0.0173955906327813,0.0459504347920417,-0.0014330502599477,0.0028867004439234,0.0013541894732043
4.779596435546875,0.0001245396951213,0.0074406165958382,0.048491935968399,0.0004332929966039,0.0014121076092123,0.0010769544169306
4.78957568359375,-0.0072184252125211,0.0060872840244323,0.0405593894034624,0.0013010228285565,8.12094658613e-05,0.000945093226619
4.799554443359375,-0.003415470999293,-0.0075374828327447,0.045800797188282,-0.0007719816640019,-0.0030783647671341,0.0022098284680396
4.80953369140625,-0.0079316697821021,-0.0029481274821795,0.0402665439367294,0.0001018373295664,0.0008799443021416,-0.0003957868320867
4.8195126953125,-0.0075301945754326,-0.0040955074190162,0.0360796136409044,-0.0003644822281785,-0.0006780046969652,0.0001315190456807
4.82949169921875,-0.007666534306202,-0.0025782347238622,0.035628947263956,-0.0011549995979294,0.0011745411902666,0.0004893608856946
4.839470703125,-0.0044765243595466,0.0031495683384127,0.0470008206278085,-0.0007225022418424,-0.0020470842719078,0.0018829930340871
4.84944970703125,0.0028448497707955,0.0019454715119674,0.0453577295958995,0.000804885814432,-0.0004177307710051,-0.0011936025694012
4.859427734375,0.000645677492395,0.0080980210586451,0.045957449054718,0.0001787766232155,0.0003713639453053,-0.0008026504656299
4.86940673828125,0.0029835275891236,0.0056242330899462,0.0470049122810363,0.0006526217330247,0.0011905459687113,0.0008894054335542
4.8793857421875,0.0009320932183414,0.0017596848825924,0.0565834724873304,-0.0014574008528143,-0.0014193523675203,0.0001985814596991
4.88936474609375,0.0061829994838684,-0.0028290494134649,0.0441617978096008,-0.0004274850944057,0.0003082063049077,-0.0006596209132112
4.89934375,-0.0002315802661702,0.0059942354461178,0.0443120199352502,0.0009320586104877,0.0016823979094624,0.0003609024279285
4.90932275390625,-0.0031511757736094,0.0051212702701799,0.0413180988162755,0.0009470840450376,0.0020473673939704,-0.0007531134760938
4.919300537109375,0.0003944426776841,0.0013934088534675,0.0450578698664903,0.0001337546855211,0.0006814328953623,-0.0005136952386237
4.92927978515625,0.0032614494813606,-0.0044124826800078,0.0529863247781991,-0.0002411229652352,0.0011510755866765,-0.0015627640532329
4.939258544921875,-0.0035516098006628,-0.0041715317972935,0.042661914640665,-0.0011069165775552,-0.0021104970946907,0.0014426131965592
4.94923779296875,-0.0060239364646375,0.0023989509005099,0.0377250427603721,-0.0013246078742668,-0.0021659852936863,0.0013479404151439
4.959216552734375,0.0047752515777945,0.0004420446790754,0.0604705430537462,-0.0009395147208124,-0.0008221548050642,-0.0020340078044682
4.96919580078125,-0.0008590097158215,0.0028415983677841,0.0508984125882387,0.0005655084387399,-0.0021309303119778,-0.0005793824675492
4.979174560546875,-0.0048812509692274,0.004741805965919,0.0459627097517251,-0.0020960548426955,0.0001865522935986,-0.0006187973194755
4.98915380859375,-0.0016078370554372,-0.0011530242263339,0.0452133526891469,-0.0005421153036877,0.0008291974663734,0.0012880295980721
4.999132568359375,-0.0016120200402103,0.0031022768642753,0.0335386969864368,0.0001052991719916,0.0019599758088588,2.72890756605e-05
5.00911181640625,-0.0112018688254989,0.0037464017204008,0.0447621017903089,-0.0009758493397384,-0.0032061906531453,0.0022622707765549
5.019090576171875,-0.0117932040484622,0.0001196991232223,0.0491015922993421,0.0009695898042991,0.0008708424866199,-0.0005684030475094
5.02906982421875,0.0056311560210771,-0.0044040619115345,0.0441606287658214,-0.0001045339740812,0.0008048033341765,-0.0002703153295442
5.039048583984375,0.000320244930312,0.0012166092481464,0.0485007037967443,-0.0035682413727045,-0.0016413098201155,-0.0011776542523875
5.049027587890625,0.0043417007324285,-0.003550641686283,0.0511953497081995,0.0022177631035447,-0.0031652208417654,-0.0010520009091123
5.05900634765625,-0.0069742046604864,-0.0041569918152876,0.0553863716572523,0.0003588768886402,-0.000687682069838,0.0001922279770951
5.068985595703125,0.000461991488561,0.0005403722207061,0.0461123473554849,0.0014049380552023,0.000184484757483,0.0001682115253061
5.078964599609375,-0.0004863587448373,0.0002226297747343,0.0431213488459587,0.0003300861571915,-0.001548433676362,0.001312039210461
5.088943603515625,-0.0153044453061185,0.0012117138773202,0.0476128150463104,-0.0017224021721631,-0.0027697002515196,0.0004879079060629
5.098922607421875,-0.0002664689164608,0.0032462519122287,0.0462660766124725,0.0015327795408666,0.0025638118386268,0.0012285329867154
5.108901611328125,0.0111375714176334,-0.0001526515447534,0.0494096353352069,-0.0015660761855542,-0.001682061702013,-0.0007871352136135
5.118879638671875,-0.0026719408893026,-0.001179400776606,0.0453688355118036,0.0010795081034302,0.000747007317841,-2.22753806156e-05
5.128858642578125,0.0009159640674479,-0.0031567835304886,0.039834582260251,-0.0003077339497394,0.001021547242999,-0.0008044446585699
5.138837646484375,-0.0050011875544674,0.0030297961499541,0.0413274511665105,-0.0012259918730705,0.0030378261581063,0.0013575095217674
5.148816650390625,0.0035441936791874,0.0008945559532381,0.0399824662983417,0.0018939089495688,-0.0019702333956956,-0.0001423641806468
5.158795654296875,-0.0008784450686536,0.0074391370248049,0.0404348862409591,5.15342107973e-05,-0.0015886025503277,-0.0027205704245716
5.168774658203125,-0.0022577705978415,0.0050668184028938,0.0512146389305591,0.0007661894196644,-0.0006103124469518,-0.0014293158892542
5.17875390625,0.0012691248866729,-0.0028896752932108,0.0527127685338258,0.0015691325534135,-0.0018380293622612,0.0008692583651281
5.188732666015625,-0.0020907252015545,-0.0010418920020572,0.0470230324596166,-0.0016967498231679,0.0001512179151177,0.0003708623698912
5.1987119140625,-0.0011840586854144,-0.0031282332894392,0.0551011249750852,-0.0013753061648458,0.0012681484222412,-0.0005950661143288
5.208690673828125,-0.0098286807761527,-0.0093808456771075,0.0455225647687912,0.0011519278632476,0.0003706878051161,-0.0001060224167304
5.218669921875,-1.68415369465e-05,-0.0015437771095894,0.0473211386233568,0.0003234185278415,0.0004931930452585,0.0005086351302452
5.228648681640625,0.0006128164024092,0.0103778573578223,0.0477700514346361,-0.0003319663810543,-0.0012658163905143,0.0011384137906134
5.2386279296875,0.0024086685769259,-0.0016012246515601,0.0387923797309398,-0.0001998735824599,-0.0004745917394757,0.0009282903047278
5.2486064453125,0.0005321706479415,-0.0065372014827094,0.0375941098570823,-0.0008236385765485,0.000557123683393,-0.0014148384798318
5.258585693359375,0.0066085314195603,-0.0024648740098811,0.0398357513040304,-1.45702506415e-05,0.001205070875585,-0.0014867439167574
5.268564453125,0.0050624527550302,-0.0162061251198872,0.051955228164792,0.0016728830523788,0.0009301360696554,0.0019415579736232
5.278543701171875,0.0012699103379622,-0.0065056190343573,0.0476139840900897,-0.0008544568554498,-0.0001713475212454,0.0013290308415889
5.2885224609375,-0.0014012451000511,-0.0007681348282843,0.0570464138239622,0.0024177269078791,-0.0003152266144752,-0.0024744507391005
5.298501708984375,0.0041435295455157,-0.0048650487530976,0.0524094016730785,0.0026092082262039,0.0009319316595792,-0.0002877290244214
5.30848046875,0.0028990093771368,-0.0021036394820548,0.036098902863264,-0.0005409987643361,-0.0016856472939252,-0.0010346546769142
5.318459716796875,0.0062218701895326,-0.0063057125480845,0.0423842667430639,0.0009141524205915,0.0009274464100599,-0.001569151179865
5.3284384765625,-0.0003415617129765,-0.0022384265765547,0.0374532400816679,0.001608436461538,-0.0017189225181937,-0.0005743821966461
5.338417724609375,-0.0084735946390777,-0.0017493278853595,0.040744682842493,0.001183928688988,0.0006542205810546,-0.000429239909863
5.348396484375,-0.0084530450413934,0.0039932708872482,0.0489689058303833,-7.62672279961e-05,0.0012830505147576,0.0008502432028762
5.358375732421875,-0.0130452682024799,-0.0051188956500031,0.0495692098110914,-0.0007556396303698,-0.0009039370343089,0.0011083035496994
5.3683544921875,-0.0080402081904932,0.0069645783156156,0.0488180991828441,0.0005564700113609,0.000828948803246,0.0022272130008786
5.378333740234375,-0.012580902093742,0.0010463489814661,0.0435784449636936,0.0001942800590768,0.0005455883219838,0.002399253193289
5.3883125,0.0011766608302481,-0.0001942073978483,0.0411795671284198,-0.0007799480226822,0.0007344428449869,-0.000900269835256
5.398290771484375,0.0041128238799981,0.0027423575107008,0.0443196187198162,-7.207976887e-05,-0.0011518746614456,-0.0015817726962268
5.408269775390625,-8.82628053426e-05,0.0024296382997184,0.0461146854430437,8.0047175288e-06,0.0018013296648859,-0.0003990969271399
5.418248779296875,0.0002090213744901,0.0018386684029363,0.0465641827762126,0.0010615512728691,0.0018316898494958,0.000703718047589
5.428227783203125,0.002957991289068,0.0071675900744274,0.0386328052550554,0.0010918780462816,-0.0001363167539238,-0.0013751584338024
5.438206787109375,-0.0028106917728669,-0.0024945750284008,0.0459673859268426,-8.0075697042e-06,-0.0013062432408332,0.0006861282745376
5.448185546875,0.0064822198924608,0.003945047831349,0.0449216762661933,-0.0009529836243018,-0.0003842944279313,-0.0015257211634889
5.45816455078125,-0.0061128020581789,0.0044279177111573,0.0485100561469793,-0.0008390002767555,0.0013086777180433,6.6617431002e-06
5.4681435546875,-0.0123897817021235,-0.0001780599806457,0.0440133292496204,-0.003044351004064,0.0017025303095579,-2.88833325612e-05
5.47812255859375,0.00045333325807,-0.0021590046647936,0.0507452678531408,-0.0009252738091163,-0.0015372056514024,0.001154891680926
5.4881015625,-0.0121890349656343,0.0068479844649322,0.0413169297724962,0.0015831443015486,0.0003344621509313,-0.0025471067056059
5.49808154296875,-0.0156675064648501,0.0016946750886738,0.0414648138105869,-0.0037588905543088,8.75871628522e-05,-0.0009356277878396
5.508060791015625,-0.0030533414223231,0.0108031335651874,0.0517880549043416,5.00526512041e-05,-0.0011874586343765,-0.0002537982945796
5.51803955078125,-0.0064495414655655,-0.0010726342001929,0.0443096818476915,-0.0033305641263723,-0.0003688028082251,0.001204016036354
5.528018798828125,0.0005400616934522,-0.0025731201573275,0.0594230798274278,-0.0001376133877784,0.0008113142102956,-0.0004105618572793
5.53799755859375,-0.0023384163523092,0.0060254525682888,0.0384714772135019,-0.0033568423241376,-0.0006808545440435,-0.0003660870715975
5.547976806640625,-0.0052012219049036,-0.0036267025971785,0.0408674324393272,0.0008363293018192,0.0020517343655228,-0.0007500283536501
5.55795556640625,0.0040917445593513,2.28511526249e-05,0.0350327349364757,-0.0006699545774608,-0.0006231451407074,-0.000625925080385
5.567934814453125,0.0105709139782004,0.000807882316783,0.0426660062938928,-0.0001474995515309,-0.0017854971811175,0.0007171657052822
5.57791357421875,-0.0017961627017706,-0.0005661642490886,0.0504477462112903,0.0017990048509091,0.001041448675096,-0.000662884383928
5.587892822265625,0.0068573002825491,0.0006405081269331,0.0511959342300891,0.0013719594571739,-0.0015360470861196,0.0016512039583176
5.59787158203125,-0.001041106550768,0.0051054333802312,0.047454994136095,0.0002017665538005,-0.0006374968215823,-0.0004881132335867
5.607849609375,-0.0066579783181659,0.0074671210102736,0.0398240608662366,0.0026172925718128,0.0004099886864423,-0.0006100925966165
5.61782861328125,-0.0043063006254844,0.0111389048581942,0.0419189873188734,0.0007530798902735,0.0009207827970385,0.0013470643898472
5.627807861328125,-0.0197268283256329,0.0063393590893596,0.043415363356471,-0.0011058257659897,-0.0009943712502717,-0.0014249553205445
5.63778662109375,-0.0079693531776778,0.0054607861565425,0.0483545733243227,0.0036449872422963,0.0005569206550717,0.0013332805829122
5.647765869140625,-0.0175892683076672,0.0004450768863782,0.0384819986075162,-0.0012054350227117,0.0001799529418349,0.0008728845859877
5.65774462890625,-0.0101515560549683,-0.0041697416990064,0.0489560463488101,0.0014630523510277,0.001081433147192,-0.0002797315537463
5.667723876953125,0.0046837373694404,0.0054341904105618,0.0485024573624134,-0.001187828136608,-0.0001669786870479,-0.0001730839285301
5.67770263671875,-0.000834222334437,-0.0019092494211159,0.0559843375504016,0.0009541522013023,0.0008530123159289,-5.43069400009e-05
5.687681640625,-0.0001522862185724,0.0117472094822674,0.0486509259223938,-0.0001527701970189,0.0008564544841647,4.68071229988e-05
5.697660400390625,-0.0002084003199823,0.0041195824143476,0.0480541290730237,0.0012272798921912,0.003963298164308,0.00129902549088
5.7076396484375,-0.0008481412619352,0.0101953403977677,0.0381786317467689,-0.000706082675606,-0.0004074042662978,0.0005331400898285
5.717618408203125,0.0055650137159973,0.0109417565845884,0.046563598254323,0.0025560231879353,-0.0013317875564098,0.0003595019807107
5.72759765625,-0.0027756752584129,0.00370418828018,0.0435737687885761,0.0007912266300991,-0.0013895574957132,-0.0008194232941605
5.73757666015625,0.0108977347797714,0.0017101283861324,0.040733576926589,9.98700270429e-05,0.0019247466698288,0.000160087365657
5.7475556640625,0.0141645362896844,0.0067812028390355,0.0419295087128877,-0.0029650563374161,5.76414167881e-05,0.0008633399265818
5.75753466796875,0.0086919135648757,-0.0046191477006301,0.0474637619644403,0.0005878667579963,0.0004094447940587,-0.0026336568407714
5.767513671875,0.0136041624605655,-0.0032682628146372,0.0468681341588497,0.0012417847756296,-0.0021778671070933,0.0014638504944741
5.77749267578125,0.0082785287247039,-0.0017081738910637,0.04147767329216,0.0005496292142197,0.0041194427758455,2.73414188995e-05
5.7874716796875,0.0063936830924823,-0.0039030718531459,0.0429693731546401,0.0026396950706839,0.0004052203148603,0.0002962335129268
5.79745068359375,0.0224404163995757,-0.0019108568563126,0.0440156673371791,-0.0012493189424276,-0.0020957542583346,-0.0013645136496052
5.8074296875,0.0173494316698052,-0.0039979835949838,0.0552419947504997,0.0011150310747325,-0.0001673894003033,-0.0018543966580182
5.81740869140625,0.0101504966090433,-0.0033678872642107,0.0544914686441421,-0.0009134986903518,0.0002089152112603,-0.0016637142980471
5.8273876953125,0.0084127860962413,0.0028554807626642,0.0407218864887952,0.0006220844225026,0.0027699451893568,-0.0008233716944232
5.83736669921875,-0.0074588646385818,-0.0033350992394611,0.0447632708340883,0.0025182550307363,-0.0012447703629732,0.0034904165659099
5.847345703125,-0.0055510217232629,0.0009528985443525,0.0579331335306167,-0.0034238337539136,-0.0014348309487104,-0.0004242933937348
5.85732470703125,-0.0028553346321918,-0.0062374330848455,0.0476081388711929,0.0013227179879322,0.0005822470411658,-0.000223757349886
5.867302734375,-0.0020559461491182,-0.0067185311326757,0.0459621252298355,0.0034844067413359,-0.0010917074978351,0.0003151175042148
5.87728173828125,-0.0040789398767054,0.000968351841811,0.0513514170527458,-0.0007257847464643,-0.0007066139951348,-0.0001565283309901
5.887260498046875,-0.0079461001662537,-0.0042702063987962,0.045069560304284,-0.000315370154567,-0.0010802056640386,-0.0013049823464825
5.897239501953125,-0.0049862639799714,-0.0075538129130378,0.0407294852733612,0.0006609447300434,-0.0001749973744153,-0.000228532589972
5.907218505859375,-0.0058980085300281,-0.0011844057452864,0.0381868150532245,0.0002854617778211,0.001697139814496,-0.0004788661026395
5.917201904296875,-0.0145101348569616,0.0044699667545966,0.0443196187198162,-0.0001036260509863,0.0008345423266291,-0.0003867207269649
5.927180908203125,-0.0274176750891841,0.0047975182085298,0.0348947877705097,0.0024390222970396,0.0012323390692472,0.0009160485351458
5.937159912109375,-0.0096237327885814,0.0058169609167613,0.0408791228771209,7.41351395845e-05,-0.001113106496632,0.0009626537794247
5.947138916015625,-0.0153346212486736,0.0035529615075327,0.0452203669518232,-0.0001135956845246,0.0012173205614089,0.002190109109506
5.957117919921875,-0.0180082974373362,-0.0005479162063449,0.0500111083596944,0.001864866586402,-0.0008879080414772,-0.0007510859286412
5.967096923828125,-0.0098331012229435,-0.0145368402007967,0.0512087937116622,0.0008642583852633,0.0006979079917073,0.0004051127762068
5.977075927734375,-0.0005614150087349,-0.0102024642582982,0.0429810635924339,0.0009838343830779,-4.69777733087e-05,0.0013707750476896
5.987054931640625,0.0002971745819784,-0.0067487801404669,0.0420826534479856,-0.0008081340347416,0.0005665393546223,0.0003371285274624
5.997033935546875,0.0045151758695021,-0.0026884353663772,0.0507628035098314,0.0014680697349831,2.24560499191e-05,0.000678545795381
6.007012939453125,0.0040972244520671,0.0010051036556251,0.0461275449246168,3.37428646162e-05,-0.0008658710867166,-0.0006171342683956
6.016991943359375,0.0095754732000641,0.0072885313066653,0.0501671757042408,-0.0021516471169888,0.0001605115830898,-0.0001196557714138
6.026970947265625,0.0120786516600288,0.0141112899987958,0.0410433735281229,2.67070136032e-05,-0.0016063023358583,-0.000356598640792
6.036949951171875,0.0102534820594824,0.0133951776186935,0.035207506981492,-2.28278222493e-05,0.0002656336873769,-0.0014458314981311
6.046928955078125,0.0202161279462277,0.0191513665252365,0.0377542688548564,0.0003603404620662,-0.0014065383002161,-0.0010785855120047
6.056907958984375,0.0103543668843805,0.0045749249664135,0.0459860906273126,-0.0014495437499135,0.0018089618533849,0.0003624509263318
6.066886962890625,0.0132627651443704,0.0002137706148438,0.0440384636908769,5.9685728047e-05,-0.0002369880676269,0.0004598255618475
6.076865966796875,0.0077377729115076,-3.25322964228e-05,0.0414957934707403,-0.0006982499035075,-0.0006609633564949,0.0024377554655075
6.086844970703125,0.0078902965920977,-0.0046470038219355,0.0467372012555599,0.0005145032773725,-2.23014503717e-05,-0.0034375353716313
6.09682373046875,0.0005663469121791,-0.0079177691209129,0.0479348866075277,-7.4055395089e-05,-0.0005733091384172,0.0005811747396364
6.106802734375,-0.0041687187856994,0.0029426475894637,0.0452390716522932,-0.0024562096223235,-0.0011409651488065,0.0023316433653235
6.11678173828125,-0.0047470483966171,0.0086783051646314,0.0352092605471611,-0.002795496257022,-0.0020485706627368,-0.000363475701306
6.1267607421875,-0.0119671906421892,-0.0009010039603337,0.0437350968301296,0.0003102292539551,-0.0011873971670866,-0.0005320220952853
6.13673974609375,-0.0030807226195931,-0.0009113426912575,0.0453787723839283,6.62836246192e-05,0.00292478967458,-0.0011022049002349
6.146718017578125,-0.0132825658233836,0.0020502835933119,0.0473193850576877,5.668727681e-06,0.0013209804892539,-0.0015152473933994
6.15669677734375,-0.016763320611231,0.0049163770815357,0.0428308414667844,-0.000715781643521,-0.001966425217688,0.001137527404353
6.166676025390625,-0.0127731001975946,0.011880845799297,0.0410363592654466,0.0024863798171281,-0.0021208273246884,-3.91580688301e-05
6.17665478515625,0.0005756079308688,0.00688986911159,0.0452285502582788,0.0003025877522304,-0.0010667480528354,-0.0013989680446684
6.186634033203125,0.0037840851159766,0.0065859542615711,0.056004211294651,0.0023949889000505,-0.0019949879497289,-3.4415621485e-05
6.19661279296875,-0.0073536141658201,0.0055798459589481,0.0432838459312915,-0.0022977672051638,0.0016570044681429,-0.0002117821422871
6.206592041015625,-0.0111534631065092,-0.002636029325705,0.0458276851952075,-0.0005610120715573,-0.0009679608047008,0.0004281705478206
6.21657080078125,-0.0023706198551692,-0.0060439563393592,0.0539075312763452,0.0022547480184584,0.0018262276425957,0.0001128522853832
6.226550048828125,-0.0043126573010347,-0.0045988355649635,0.0405892000198364,0.0001971476594917,0.0011563664302229,-0.0001245331804966
6.23652880859375,0.0076496379703283,-0.0028012115584686,0.0404395624160766,-0.0009365599835291,-0.0002665603533387,0.0004267411422915
6.246508056640625,0.0049584809239022,-0.0018874029154889,0.0467278489053249,-0.0005012120818719,-0.0031577413901686,-0.000668729073368
6.25648681640625,0.0010849091598764,-0.0061431423975154,0.0551069701939821,-0.0006130648544058,0.0019198413938283,0.000746208417695
6.266466064453125,0.0165897358763031,-0.0065936809103004,0.0555570520490407,0.0042275437153875,-0.0010770419612526,0.0002458623785059
6.27644482421875,0.0160203202242031,-0.0007658880722708,0.0601987403750419,0.0016440111212432,-0.0023183412849903,-0.0013344574254006
6.286424072265625,0.0138790338791906,0.00153393156901,0.0479319639980792,-0.0012794472277164,-1.7954967916e-05,-0.0015039885183796
6.296402587890625,0.0047350839641876,0.0042513007689267,0.0498749147593975,0.0002169829094782,0.0018883366137742,0.0002622199244797
6.3063818359375,-0.0051215625311248,-0.0030807591522112,0.04942249481678,0.001526377047412,0.0010206280276179,-0.0007044130470603
6.316360595703125,-0.0151061462550424,0.0050492462135851,0.0398445191323757,0.0008312920108437,-0.0008055018261075,-0.0012178705073893
6.32633984375,-0.0129370037887245,0.0012015212768688,0.0455295790314674,-0.0009534804266877,0.000683644786477,-0.0006093074916861
6.336318603515625,-0.0114804300385527,0.0031703188654966,0.0450736519575119,-0.0015377779491245,0.0014237370342016,0.0017947279848158
6.3462978515625,-0.0107060846651904,0.0046751704704947,0.0543523524343967,-0.001418984378688,0.0014904793351888,-0.001174182165414
6.35627685546875,-0.0022858824474737,0.0052834385619498,0.0501572388321161,-0.0022371073719114,0.0004702229052782,0.0014359819469973
6.366255859375,0.0033268611340783,0.0007331000475212,0.0521036967247724,0.0005298907635733,-0.0015217941254377,-0.0011334432056173
6.37623486328125,0.0061287850786,0.0071358249629847,0.0489653986990451,-0.0003478871658444,-0.0006578639149665,-7.74997897678e-05
6.3862138671875,0.0008054894302971,0.0057948586828075,0.0474707762271165,0.0001677407999522,-0.00084725394845,8.83235916262e-05
6.39619287109375,-0.0041864919044077,-0.0009359291432425,0.049568040767312,-0.0004770104715134,-0.0006616311147809,-0.0013511150609701
6.406171875,-0.0047519985663704,-0.0075885736991651,0.038943186378479,-0.0013904499355703,0.0012495703995227,-0.0014109404291957
6.41614990234375,-0.0007626001366414,-0.0025759149026125,0.0387935487747192,-0.0020099012181162,0.001101498492062,8.78866412676e-05
6.42612890625,-0.007538998936396,-0.0009029767217114,0.0482207178115844,0.0005696730804629,-0.0003360342234373,0.0003316760703455
6.43610791015625,-0.0058909212021157,0.0029362543812952,0.0437333432644605,-0.0008167685591615,0.0006895493716001,0.0023655323311686
6.4460869140625,-0.0042434645223431,-0.0028799758831039,0.0567553219228982,-0.0009295581257902,-0.0020493064075708,0.0002995020477101
6.456066162109375,-0.0051495465165935,0.0028073673046194,0.0404448231130838,0.0005713995196856,4.04762104153e-05,-0.0011284849606454
6.466044921875,-0.0077619209720753,-0.0013572232952341,0.0411918420881032,0.0008507720194756,-0.0001450227573513,-0.0003382513532415
6.476024169921875,-0.0134123844818212,0.0023719167631119,0.0477764811754226,0.0008118898840621,-0.0001607351005077,0.0004204832366667
6.4860029296875,-0.0036030477269552,-0.0040182226654142,0.0479261187791824,-0.0013993518659844,-0.00067865755409,0.0010916476603597
6.49598193359375,0.0009982903223484,0.0026546792272478,0.0396942970067262,0.0002400900702923,0.0022026170045137,0.0003483593463897
6.505960693359375,-0.0013051095155067,-0.0036149025615304,0.0467260953396558,0.0017928751185536,0.0008114948868751,-0.0004624459252227
6.51593994140625,0.0095520923244766,-0.005833857252635,0.0422357981830835,0.0007126969867385,0.0018954016268253,0.0011359832715243
6.525918701171875,0.0054403826893307,-0.0084953498131595,0.0545060816913843,0.0007538151694461,-0.0002584662288427,-9.30344031075e-05
6.53589794921875,0.006405008204095,3.09065949171e-05,0.0491267267405986,0.0026020489167422,0.0005519334226846,0.0002092343638651
6.545876708984375,0.0076059997580014,0.0003378719185478,0.0426923097789287,0.0002570161013863,0.0002680737525224,-0.0007793685654178
6.55585595703125,0.0053922144323587,0.004355729257781,0.0338642756789922,0.0015260123182088,-0.0004568388685584,-0.0007663191063329
6.565834716796875,0.0038124161613173,0.0050151430145837,0.0420943438857793,-0.0027300273068249,-0.001315826550126,0.000910326372832
6.57581396484375,0.0032801907144486,0.0024329810342751,0.0468809936404228,0.0008918718085624,-0.0002377787604928,-0.0013373816618695
6.585792724609375,-0.0042219102776609,0.0059101738918572,0.0398480262637138,0.0004696688847616,-0.0002551656216382,0.0001158164814114
6.59577197265625,-0.0035706250283867,-0.0014819091208279,0.0343114349246025,-0.0017596632242202,-0.0014642411842942,-0.0016836815048009
6.605750732421875,0.0055583465131931,0.0055389842255972,0.0479319639980792,0.0005208838265389,-0.0018430175259709,-0.0028188303112983
6.61572998046875,0.0059989846864715,0.0035654921955429,0.0482329927712678,-0.0003177455510012,-0.0022416934370994,0.0008134552044793
6.625708740234375,0.0048601533822715,0.00100057361098,0.0468839162498712,-0.0007871450507082,0.0018066009506583,-7.40664836484e-05
6.63568798828125,0.0083500230583362,-0.0067285958689637,0.0458387911111116,0.0015148913953453,-0.0003612115979194,0.001823435886763
6.645666748046875,0.0001375635734759,-0.0023276209636591,0.0518289714366197,-0.0010932167060673,-0.001233491115272,0.0035405887756496
6.65564599609375,0.0049554852492176,-0.0031992892316542,0.0362643225580453,-0.0004636454686988,-0.0007951343432068,0.0014683832414448
6.665624755859375,-0.0093877320756204,-0.0037568865817971,0.039405543193221,-0.0013549044961109,-0.0006037997081875,0.0004922088701277
6.67560302734375,0.0011854469249024,-0.0054893181312829,0.0543698880910873,0.0002491174382157,0.0008886354044079,-0.0003283110563643
6.68558203125,0.0007327529876492,-0.0058589003623463,0.0419487979352474,-0.0003606313257478,-0.0002308543771505,0.0019550705328583
6.695560791015625,-0.0085544047903269,-0.0052693369713611,0.037309447696805,-0.0016653139609843,0.0008029844611883,0.0011795579921454
6.705539794921875,-0.0007757701454684,0.0005498341687954,0.0552624530166387,0.0016557353083044,0.0004371106624603,-0.001545131439343
6.715518798828125,-0.0073218490543775,-0.0014211553769186,0.0533171641677618,-0.0004878429463133,-0.0013120537623763,-0.0012031816877424
6.725497802734375,-0.0136539929516613,-0.0020822861667722,0.043592473489046,-0.0004286975308787,2.31126323342e-05,-0.0005147789488546
6.735476806640625,-0.003074439009279,0.0074064220652915,0.0399982483893632,0.000853880890645,0.0007509542629122,0.0016186793800443
6.745455810546875,0.0034953313024714,0.0062501829685643,0.0465805493891239,0.0005706627853214,0.0015146890655159,0.0010599192464724
6.755434814453125,-0.0004812807109206,0.0039085882784798,0.0422398898363113,0.0010375150013715,-0.0006224978715181,0.0011078561656177
6.765413818359375,-0.0001849646454676,-0.0083997987505048,0.0343114349246025,-0.0004953138995915,-0.0006810612976551,-0.000317235593684
6.775392822265625,0.0061361829337663,-0.0084058814314194,0.0432931982815265,0.0007755465339869,0.0006750198081135,0.0007576162461191
6.785371826171875,0.006974770916067,-0.010907671651896,0.0374590853005647,-0.0001021571224555,-6.97448849678e-05,-0.0005584064638242
6.795350830078125,-0.0086881507052108,-0.0138876190444454,0.0416506917715072,-0.0006078914157114,-0.001785353757441,-0.0009778542444109
6.805329833984375,-0.002404175064899,-0.0032119477838277,0.0519762709528207,0.0022209854796528,-0.0004160730168223,-0.0025495393201708
6.815308837890625,-0.0066124221433885,0.0050375923084095,0.0441951155573129,0.0006009844364598,-0.0018256837502121,0.0007658299291506
6.825287841796875,-0.0031138211715966,0.0041549642549827,0.0438975939154624,-0.0013001597253605,-0.0009495243430137,-0.0016233557835221
6.835266845703125,-0.0057206061365082,0.0063881849334575,0.0444943907648324,-0.0005073366919532,0.0004606191068887,0.0009993251878768
6.845245849609375,0.0036886801837943,0.0103264376978389,0.043747371789813,-0.0003353751380927,-0.000613416545093,-0.0006674950127489
6.855224853515625,0.0067941719184629,0.0053530149331316,0.0467389548212289,0.0011775667080655,0.000631877221167,0.0010848648380488
6.865203857421875,0.0012226553964428,0.0021086261844262,0.0476367804437875,0.0037757221143692,0.0013983882963657,-0.000366660853615
6.875182861328125,-0.0027847536140121,0.0015346804876811,0.048687750801444,-1.07600353658e-05,-0.0011478597298264,0.0013580023078247
6.885161865234375,0.0010310966134071,-0.0069801777435466,0.0422550874054431,0.0011595706455409,-0.0006132116541266,-0.0012185152154415
6.895140869140625,-0.0027503216214478,0.0060741688145324,0.0444996514618396,0.0014874057378619,-0.0011477079242467,-0.0018898980924859
6.9051201171875,0.0023928134206682,-0.0014681911227293,0.0428501306891441,-0.0018489451613277,-0.0011227969080209,0.0043959612958133
6.915098876953125,0.0062514250775799,-0.0051181649976409,0.0432972899347543,-0.0001431904383935,-0.0011219978332519,0.000948499306105
6.925073486328125,0.0036813736601732,0.001995228937827,0.0349222602993249,-0.0003899686271324,-0.0011563869193196,-0.0022140480577945
6.935052490234375,0.0028153862142935,0.0008110606545582,0.05063479321599,0.0023648052010685,-0.0010466650128364,0.0014531244523823
6.94503076171875,-0.0032819625464268,-0.0022725845744833,0.0451005399644374,0.0005538229597732,0.0013707252219319,-0.0017900534439831
6.955009521484375,-0.0043425957815721,0.0002317446629516,0.0379167659401893,-0.0024307817220687,0.0002758996561169,0.0012318353401497
6.96498876953125,-0.0060188949633389,0.006117003309261,0.0398632238328456,-0.002483568387106,-0.0022172890603542,0.0016074725426733
6.974967529296875,-0.0052234520030207,0.0063725307065993,0.0471954664170742,0.0005574953393079,0.0019055502489209,0.0002545867755543
6.98494677734375,0.004705766538158,0.0071766136310994,0.0438999320030212,-0.0023175494279712,-0.0005650166422128,0.0005535500240512
6.994925537109375,0.0042546617697924,0.0010814385611563,0.0409077644497156,0.0002294977311976,-0.0009077657014131,0.000458741444163
7.00490478515625,0.0014516966456547,-0.0036086737501434,0.0379208575934171,0.0007585806306451,-0.001361034810543,0.0020056050270795
7.014883544921875,0.0045940497919917,-0.0023312742254696,0.0494447066485881,-0.000103750906419,0.0015700403600931,0.0008945342851802
7.02486279296875,0.0015224785932339,0.0028761034255847,0.041966333591938,0.0017281826585531,1.87307596206e-05,9.14166885195e-05
7.034841552734375,0.0125511280099861,-0.0060618573222309,0.0458592493772506,0.0019715956877917,-0.0006414670497179,-0.0004436123999767
7.04482080078125,0.0036366394693031,-0.0049890952578745,0.0479559293955564,-8.03054426796e-05,-0.0003094356507062,0.0001444889348931
7.054799560546875,0.0032886845481581,-0.0001208133680745,0.0382294851511716,0.0035490505397319,-6.54896721243e-05,-0.0003873443347401
7.06477880859375,0.0014493220254778,-4.06973365694e-05,0.0364344184279441,-0.0004298861313145,-0.0001351926475763,0.001251695677638
7.074757568359375,-0.0011386121084913,0.0024842910964041,0.049155952835083,0.0014849266735836,-0.0006907284259796,-0.0027643512003123
7.08473681640625,-0.0051366322360932,0.0147642192158848,0.0442214190423488,0.0001261366996914,-0.0001576738432049,0.0014538236428052
7.09471533203125,-0.0025676402646116,0.0022182605713605,0.0425730673134326,0.0003407875774428,0.00067616160959,-0.0006245073163881
7.104694580078125,-0.0004400171187706,-0.0050422502172179,0.0472112485080957,0.0001903995871543,0.0003096470609307,-0.0010344244074076
7.11467333984375,0.00496951377457,0.007992660988029,0.0439162986159324,-0.0001273155794478,0.0019903685897588,-0.0013281711144372
7.124652587890625,-0.0021448300089687,0.0008472827454097,0.0404734646856784,-0.0012304756091907,0.0001165382564067,-0.0021787586156278
7.13463134765625,0.0013683292111381,-0.0049074265900999,0.0425678066164255,0.000530406483449,0.001020947471261,-0.0016940633067861
7.144610595703125,-0.0072557250156067,0.0041326976242475,0.0482563736468553,-0.002009805291891,-0.0021304860711097,-0.0002177247224608
7.15458935546875,0.0090420421767979,0.0040294199128635,0.0512508792877197,-0.0014803687809035,-0.0015808092430233,0.0034409260842949
7.164568603515625,0.0114332116296514,0.0042652379627339,0.0431727867722511,-0.0011734711006283,-0.0015179039910435,0.0016441521001979
7.17454736328125,0.001671184615232,0.0006317402985878,0.0487111316770315,0.0001868715626187,-0.0006550401449203,9.39260644372e-05
7.184526611328125,-0.0055907874780707,-0.0054291489092633,0.0555915388405323,0.0014598610578104,0.0001696851104497,-0.0016075641615316
7.194504638671875,0.0026293803892098,0.0040086876520887,0.0451169065773487,-0.0004605444846674,-0.0003584204241633,0.0001684979797573
7.204483642578125,0.0055550403112545,0.0048080578688532,0.0460135631561279,0.00223921216093,0.0016564913094043,0.000167479753145
7.214462646484375,0.0024509368160739,0.0059360024528577,0.0400268899619579,0.0007747398340143,-0.0021702051162719,-0.0016554539324715
7.224441650390625,-0.0036022257430478,0.0054549226713366,0.045714872470498,-0.0014550662599503,-0.0003564767539501,0.0006368727772496
7.234420654296875,-0.0052722047818824,0.00613919687476,0.0503518846213817,-0.0011533302022144,0.000314905308187,-7.92512000771e-05
7.244399658203125,-0.0018557839345186,0.0044524676305241,0.0448176313698291,0.0010823030024766,-0.0023817559704184,0.002347954781726
7.254378662109375,0.0087074947264976,7.03435561619e-05,0.0488625228464603,-0.0004460851196199,-0.0006365869194269,0.0013229041360318
7.264357666015625,0.0077301923932507,0.0058567632041871,0.0446732544630765,-0.0014433447504416,-0.0006072102114558,-0.0003221139777451
7.274336669921875,0.0004914733113721,-0.0066790028398856,0.042878187739849,3.87044274248e-05,-0.0021201521158218,0.000477100664284
7.284315673828125,0.0076520308568142,0.00015734598618,0.0473690694183111,-0.0003803700674325,-0.0036917463876307,0.0015707794809713
7.29429443359375,0.002926116579771,0.0005514781366102,0.0484200397759675,0.002306759590283,-0.0021660216152668,-0.0008079559192992
7.3042734375,0.0050556576880626,-0.0046939299698919,0.0515676901519298,0.0004784782067872,-0.0017946325242519,0.0024472211953252
7.31425244140625,0.0073046239249408,0.0075313818855211,0.0472305377304553,0.0003128295647911,0.0022003762423992,0.0012434724485501
7.3242314453125,-0.0046136312752962,-0.001486804491654,0.0509744004338979,0.0006822070572525,0.0004557371139526,-0.0009545086650177
7.33421044921875,-0.011788637471199,-0.0017505699943751,0.0384019191086292,-0.0009804044384509,0.001283979974687,6.78788637742e-05
7.344189453125,-0.0047020767437294,0.0014347455108538,0.0479746340960264,-0.0025079206097871,0.0016531255096197,-9.3144335551e-06
7.35416845703125,-0.0034053149314597,-9.48021439835e-05,0.0324111542612314,0.0015065285842865,-0.0007399907335639,-0.0014697919832542
7.3641474609375,-0.0052638022797182,0.0032265790973789,0.0391471845179796,0.0007147637079469,-0.0018589673563838,0.0003433677775319
7.374126708984375,-0.0063945050763897,0.0057592028475366,0.0421411056369543,-0.0015489232027903,-0.0011553596705198,-0.0001115001068683
7.38410546875,0.0023695786755532,0.00167083755536,0.05201484939754,-0.0003546204534359,0.0004732478410005,0.0002492806524969
7.394084716796875,0.0105225082592107,0.0124231725150719,0.047826165536046,0.0021556750871241,-0.0009845662862062,0.0011547553585842
7.4040634765625,0.0088545019817538,0.0082194006823003,0.0400444256186485,0.001867048558779,0.0007321778684854,7.84870935603e-05
7.414042724609375,0.0091414108980447,-0.0082551478491164,0.0451350267559289,-0.0004546953132376,-0.0020566843450069,-0.0003529450041241
7.424021484375,-0.0010799589901231,-0.0010736205808818,0.0478273345798253,0.0004468235420063,0.0025981552898883,-0.0014831547159701
7.434000732421875,0.0077734652793966,0.002264182072319,0.0539642298996448,0.0015523015754297,-0.0019260225817561,0.0011515106307342
7.4439794921875,0.0016927205936051,0.0027048019792884,0.0476829576730728,0.0013262658612802,0.0005655540153384,-0.0018619012553244
7.453958740234375,-0.0009740691965445,0.0062475708863697,0.0421451972901821,-0.0005952048231847,-0.0011210264638066,-0.0014863957185298
7.463936767578125,-0.0083491645418107,0.0048026875739917,0.043189737907052,-0.0002432942856103,0.0017171176150441,-0.0027044769376516
7.47391552734375,-0.0019343655960634,-0.0032059016355313,0.0481260252654552,0.0011284998618066,-0.0008714748546481,-0.0006469185464084
7.483894775390625,-0.0059556022024713,0.0011411876580677,0.0431862307757139,-0.0025626437272876,0.000931279733777,-0.0001523606188129
7.493873291015625,0.0032166422252543,0.0023574681126512,0.0551549009889364,5.3645693697e-05,0.0019257040694355,0.0013051874702796
7.5038525390625,0.0065527278454042,-0.0024336203550919,0.0386924264878034,-0.0013124784454703,0.0006695510819554,0.0007646529120393
7.51383154296875,-0.0069949369212612,0.0122557252599857,0.047367315852642,-0.0008578769047744,0.0005529047921299,0.001502881059423
7.523810546875,0.0069690718276426,0.0145540835965424,0.0545522589206695,-0.0012103649787604,0.0008702240884304,0.0014882173854857
7.53378955078125,0.0056891698186285,0.0011867803654633,0.0458703552931547,0.0010501261567696,0.0029456252232193,0.0013044592924416
7.5437685546875,0.0041914055415429,0.0065226432343944,0.0499058944195508,-0.0013824680354446,-0.0006630374118685,0.0019350590882822
7.55374755859375,0.0034145759501494,-0.0032492475869134,0.0440711969166994,-0.0008775326423346,0.0014837365597486,-0.0002295582817168
7.5637265625,0.0124125963221304,0.0044315892392769,0.0430225646466016,-0.000806956901215,-0.0032002935186028,0.0002352330775465
7.57370556640625,0.0040639980359002,0.0030319333081133,0.0485626631170511,0.0003184949746355,-0.000565362162888,-0.0005152457160875
7.5836845703125,-0.0025447343130595,-0.0022699542259797,0.0635246699273586,0.0003901005256921,0.0007228916510939,-0.0027568279765546
7.59366357421875,-0.0050900896806269,0.007311272861436,0.0404804789483547,0.0002364361425861,-5.3153373301e-05,0.0011473660124465
7.603642578125,-0.0039997371606528,0.0085710271315649,0.0359872591823339,-0.000497547967825,-0.0003740303218364,-0.0016516165342181
7.61362158203125,-0.0053021797950379,0.0047979748662561,0.0460159012436866,0.0007821009494364,0.0001333011314272,-5.37198211532e-05
7.6236005859375,-0.0073166614226065,0.0058080652242526,0.0448193849354982,0.0007593121845275,0.0015458688139915,0.0013496070168912
7.63357958984375,0.0001907733317464,0.0057412835983559,0.0463151764512062,-0.0029709776863455,-0.0009420569986104,4.83865733258e-05
7.64355859375,0.009799308551196,0.0111993663411587,0.050351300099492,0.0005348867271095,-0.0010882085189223,0.000363761675544
7.65353759765625,0.0031595417431555,0.0101705712826922,0.0439157140940427,0.0021897749975323,0.0023496663197875,-0.0021721003577113
7.6635166015625,0.0013831431877799,0.0029319617986679,0.0452612834841012,0.0008235463174059,0.0005560368299484,-0.0010115838376805
7.67349560546875,0.0054918754145503,0.0117647816715762,0.0512485412001609,0.0013662986457347,-0.0011103032156825,0.0011666156351566
7.683474609375,0.0123409193254075,-0.0024985022848471,0.0406248558551073,-0.0003188411355949,0.0013314457610249,-0.0015369056491181
7.69345361328125,0.0020855375697836,0.000749667589832,0.049157706400752,-0.0015811794437468,0.0002012001350522,0.0005752474535256
7.7034326171875,0.0005082965820096,-0.0005676255538128,0.0503483774900436,-0.0026864083483815,0.0006123688071966,0.0010992016177624
7.71341162109375,-0.0037405199688859,-0.001443823866453,0.0451133994460105,0.0011101941345259,-0.0009937835857272,0.0019133300520479
7.723390625,-0.0003135046622715,-0.0023509653066284,0.0461637852817773,0.00115993747022,-0.000385426916182,0.0018464513123035
7.73336865234375,-0.0048954438913613,0.0011940868890844,0.0542448004066944,0.0001274299575015,0.001554419286549,0.0003745222638826
7.743347412109375,-0.007978449799586,0.0001612915089353,0.046162616237998,-0.0007945642573758,0.0007949769496917,0.0024035873357206
7.75332666015625,0.0046437524189241,-0.0040173824151977,0.0530447769671678,-0.0017354590818285,-0.001504928804934,0.0005582828307524
7.763305419921875,-0.0049365978856571,0.0057059930892661,0.0287982244610786,-0.0014638837892562,0.0006093112751841,-0.0008972845971584
7.77328466796875,0.0054378984712995,0.0016349990569986,0.0407698172837495,0.0025106179527938,-0.0006421077996492,0.0009927608771249
7.783263427734375,0.0068938876995816,0.0035462029731832,0.0524403813332319,0.0010680789127945,0.0016537699848413,0.000976511510089
7.79324267578125,0.0066970134206116,0.007201072218921,0.0467576595216989,0.001824150327593,-0.0024363128468394,-0.0003548027016222
7.803221435546875,0.0016188699061051,0.0022980295429937,0.0445171871185302,0.0022209275048226,-0.0020713098347187,0.0011998345144093
7.81320068359375,0.0090966584408655,0.0051064928261563,0.0443669649928808,0.0007713688537478,0.002606532536447,-0.0003378747205715
7.823179443359375,0.0064653783555142,0.0026458748662844,0.0442167428672313,-0.0002708493266254,0.0006662914529442,-0.0031059684697538
7.83315869140625,-0.0020589418238028,-0.0042656580878421,0.0470569347292184,-0.0019419828895479,0.0008479189127683,0.0001641269191168
7.843137451171875,-0.0114043691276572,-0.001165536648035,0.049745150899887,-0.0012344419956207,-0.0015751468017697,0.0007694505038671
7.85311669921875,0.0031746479807421,0.0003117328302934,0.0507937831699848,-0.0020104870200157,-0.0011692810803651,-0.0002252401900477
7.863095458984375,0.0064887226984836,0.0040646738893352,0.0503460394024848,-0.0019037665333598,-9.63136553764e-05,-0.0013396739959716
7.87307470703125,0.0061016230770386,-0.0103973475095815,0.0475023404091596,-0.0010784529149532,-0.0008012522011995,0.0016968621639534
7.883053466796875,0.0033468810088001,0.0024396665033884,0.0473509492397308,-0.0004922369262203,-0.0017340751364827,0.0004763236793223
7.89303271484375,-0.0001503499898128,0.0104554891712963,0.0566284806728363,0.0008097825339064,7.79395923018e-05,0.0012236066395416
7.903011474609375,0.0004852810326032,0.0078658380042761,0.0338829803794622,0.0009037917479872,0.0016501899808645,-0.0009851083159446
7.91299072265625,-0.0007966120040975,0.000385053794831,0.0413660296112298,-0.0024083817843347,-0.0031341789290308,-0.0012708655558526
7.922973388671875,-0.0024740254307165,-0.0026814028373919,0.0536380666851997,0.0004396040458232,-0.0003188494592905,-0.0015949667431414
7.93295263671875,-0.0010133600273169,0.000263418442849,0.0488479097992181,9.1528869234e-05,0.0031888000667095,-0.0012743221595883
7.942931396484375,0.0017827369646169,-0.0026020539908669,0.0483937362909317,0.0012417372781783,0.0016302671283483,0.0016849737148731
7.95291064453125,0.0045770621245726,-0.0026015425342135,0.0449538249701261,0.0015461365692317,-0.0016334373503923,-0.0021374612115323
7.962889404296875,0.0046088455023244,0.0045108467542566,0.0485474655479192,0.0036771313752979,-0.00174774043262,-0.0012275610351935
7.97286865234375,0.0052774106799624,0.0016219386460259,0.034933366215229,0.0006134307477623,0.0003494983538985,-0.0001929229474626
7.982847412109375,-0.0020937391425482,0.0035883250818587,0.0412152229636907,-0.0004914500750601,7.17714428901e-05,-6.72732421662e-05
7.99282568359375,-0.0066630563520826,0.00057462155018,0.0368769014984369,-0.0024166493676602,-0.0002334266901016,-0.0012766146101057
8.0028046875,-0.0050992959003895,0.0079151570387184,0.0392763638556003,-0.000187350960914,-0.0019233487546443,0.0012768842279911
8.01278369140625,-0.0009160553989931,-0.0028039332385174,0.0443681340366601,0.0036236327141523,6.04400411248e-05,0.0003005693433806
8.0227626953125,0.0032309447452425,-0.0004383183520287,0.0412269134014844,-0.0036771777085959,0.0015252903103828,-0.0027290806174278
8.03274169921875,0.0040424985901452,0.0013747589519247,0.0437689990997314,-0.0003871085937134,0.0010525798425078,-0.000147678569192
8.042720703125,0.0101068583967164,-0.0009028123249299,0.0463110847979784,-0.0010200443211942,-0.0010699499398469,-0.0003928279620595
8.05269970703125,0.0074851863899268,0.0003177607122808,0.0457084427297115,-0.001536697614938,0.0001127598807215,0.0018703263485804
8.0626787109375,0.0051670091080479,0.0069373615151271,0.0476525625348091,-0.0010546405101194,0.0012508444488048,-0.000581817002967
8.07265771484375,0.0056758536793291,-0.0036160533390007,0.045108723270893,0.0003714822232723,0.000766416080296,0.0005204653716646
8.082636474609375,-0.0027569340253248,0.0044429508835077,0.0479500841766595,-0.0012706733541563,-0.001004159450531,0.0009037422132678
8.092615478515626,-0.0056769313915632,0.0064388008758425,0.0534895981252193,-0.0013329912908375,-0.0009269276633858,0.0002241035399492
8.102594482421875,-0.0071145447129383,-0.0034229419196955,0.0467535678684711,-7.92309874668e-05,0.0007021846249699,0.0001156099024228
8.112573486328126,0.0023146518842317,-0.0002874021066352,0.0475046784967184,0.002183124423027,0.0008380059152841,-0.001410115044564
8.122552490234375,-0.0027899960447102,0.0006469926666468,0.053490182647109,0.0002741470234468,-0.0006226692348718,-0.0004317905404604
8.132531494140625,9.89303298294e-05,-0.0021672427701763,0.0433136565476655,8.50625801831e-05,-0.0008085574954748,0.0008912679040804
8.142510498046875,0.0067391903282143,-0.0024860081294551,0.0488479097992181,-0.0005008865264244,0.0007107742130756,-1.85625540325e-05
8.152489501953125,-0.0011753456559963,-0.0005429660365916,0.0448082790195941,0.0013356292620301,-0.0011710161343216,-0.0012089954689145
8.162468505859374,-0.0007712583671323,-0.0034109044220298,0.0522919127732515,-0.0017851542215794,-0.0018155127763748,0.0006742532132193
8.172447509765625,0.0034073790243826,0.0017934592880308,0.052141690647602,0.0003261998062953,0.0011232858523726,0.0002353642485104
8.182426513671874,0.0098626926436088,0.0057418863865546,0.0491501076161861,3.3656368032e-05,0.0002468731254339,0.0004475846362765
8.192405517578125,0.0047673970649018,0.0055521907670423,0.0488525859743356,-0.0002417144714854,-0.0005741799250245,-0.0016680305125191
8.202384521484374,-0.0003550057164393,0.003797748315148,0.0569306784898042,-0.0004546295385807,0.000290616415441,0.0021655773743987
8.212363525390625,0.0032041298035532,0.0056663917312398,0.032839024284482,0.0010671007912606,0.002644051797688,-0.0006030449876561
8.2223427734375,-0.0041815417346544,0.0064457238069735,0.0461526793658733,-4.06461767852e-05,0.0004607019945979,-0.0004186299047432
8.232321533203125,-0.0019850546036846,0.0005149820511229,0.0486965186297893,0.0019314247183501,-0.0003204029053449,0.0006735324859619
8.24230078125,0.003016224282328,-0.0093697032285854,0.0458574958115816,-0.0003372944775037,-0.0008426150307059,-0.0015089102089405
8.252279541015625,-0.0053063445135019,-0.0012070559685118,0.0398684845298528,-0.0006246495759114,0.0016357228159904,-0.0012718888465315
8.262257568359376,-0.0042249059523455,-0.0009162563283927,0.0437561396181583,0.000282546156086,-0.0003225021064281,0.0013761739246547
8.27223681640625,-0.0084552187321707,-0.0103473160890862,0.0448036028444766,0.0007672414649277,-0.0001968014985322,0.0009529976523481
8.28221533203125,-0.0021119323863647,-0.0049786286627873,0.0528852024912834,-0.0015637589385733,-8.75042751431e-05,0.0023373612202703
8.292194580078124,0.0045930086123757,-0.004277732118126,0.0524321980267763,-0.0016271421918645,0.0009274259209632,0.0001991092285607
8.30217333984375,0.0081555051332339,-8.4573010914e-06,0.0497369675934314,-0.0005701520713046,-0.0009551122784614,0.00029584398726
8.312152587890624,-0.0023171726348809,0.0008614208686165,0.0534773231655359,0.0009390612831339,0.0007418543100357,-0.0006373276701197
8.32213134765625,-0.007582655415032,0.0014650858501903,0.047641456618905,-0.0007318140706047,-0.0032769832760095,0.0017782322829589
8.332110595703124,0.0042538032532669,0.0002988733487203,0.0477922632664442,0.0003622125368565,0.0015393439680337,0.0002495779190212
8.34208935546875,-0.0080130461889319,0.0004929346160963,0.0551227522850036,-0.0003353924839757,-0.0018080100417137,-0.0012786482693627
8.352068603515624,0.0004017309349961,0.0009902896789833,0.0480915384739637,0.0019791610538959,-0.0002812203019857,0.0005735801532864
8.362047607421875,0.0009940160060301,-0.0020719474358484,0.047494157102704,-0.0001446538371965,0.0004973858594894,-0.0007598384981974
8.372026611328126,0.000797470520623,-0.0021497253797948,0.0557218872219324,-0.0019955507013946,0.0002843327820301,0.0007640222320333
8.382005615234375,-0.0074889127169735,0.0010416910726577,0.036714404413104,-0.0018865384627133,-0.0003223028033971,0.0007581894751638
8.391984619140626,-0.0002206570133566,0.0024252361192367,0.0371627327024936,0.0014597235713154,-0.0004674447700381,0.0001123728579841
8.401963623046875,0.0084795494558289,-0.0018891016822308,0.0476420411407947,-0.0021863831207156,-0.0021866345778107,-0.0012406425084918
8.411942626953126,0.0062724678656086,-0.001493398629222,0.0468909305125474,-0.0014827761333435,0.0026089195162057,-0.0008600767469033
8.421921630859375,0.0188805502272211,0.0056041766826063,0.0401566538214683,-0.0001306695630773,-0.0008541801944375,-0.0008689581300131
8.431900634765626,0.0200309623713605,0.00467873240076,0.0427022466510534,-0.000628414331004,-0.0016557918861508,1.36134331114e-05
8.441879638671875,0.0019589703143574,0.0069498374042101,0.0415098219960927,-0.0001763680484145,-0.0007215579971671,-0.0017595686949789
8.451858642578125,0.004480835208483,0.0039660906193777,0.0440536612600088,-0.0020962408743798,0.0019703656435012,-0.0005504935979843
8.461837646484375,0.0020039784998632,-0.0010120265867561,0.0431529130280017,-0.0017604402964934,-0.0010366411879658,0.0022304938174784
8.471816650390625,0.0014729038304649,0.0022318324389867,0.0407622184991836,0.0004691581707447,-0.0003362298011779,-0.0001700794964563
8.481795654296874,-0.0029888978839851,-0.0061855202345177,0.05063479321599,-5.5175041779e-06,-0.0006631584838032,0.0015502269379794
8.491774658203125,0.000106766576413,0.0021722294725477,0.0455430230349302,0.0001076668268069,-0.0010858019813895,-0.0001696425460977
8.501753662109374,0.0062578000194393,0.0099948128569871,0.0370125105768442,-0.0002313274890184,-0.0005574813112616,0.0015438466798514
8.511732666015625,0.0017753573757596,0.0058024392010644,0.0450929411798715,-0.00051681837067,-0.0010520303621888,0.0016674173530191
8.521711669921874,-0.0065661353162489,0.0056776620439253,0.0506342086941003,0.0015240976354107,-0.0014327773824334,0.001185521367006
8.531689453125,-0.0079974102283827,0.0012467669243924,0.0386620313495397,0.0003030382795259,0.0008588721975684,-0.0011332929134368
8.541668701171876,-0.0041695955685339,-0.0030517522534355,0.043150574940443,0.0006074586417526,-0.0015776380896568,0.0001264733145944
8.5516474609375,-0.0032835699816234,-0.0015685096920467,0.0525806665867567,-0.0034330892376601,-0.0012657819315791,-0.0005843243561685
8.561626708984376,-0.0031355580793693,-0.0072168177773244,0.0590133299827575,-0.000417377508711,-0.0003678621724247,-0.0009523760527372
8.57160546875,0.0110000443767756,0.0021583470776677,0.0506342086941003,0.0012356465449556,-0.0014251368120312,-0.0005433144979178
8.581584716796876,0.0121841943937353,-0.0002707249664701,0.0410591556191444,-0.0005787604022771,-0.001354175619781,0.0013662988785654
8.5915634765625,0.0068285308457911,0.0074046137006953,0.0425567007005214,-0.002162542194128,0.0013840869069099,-0.0002137546835001
8.601542724609375,0.004258351564221,-0.0041683899921365,0.0488368038833141,-0.0012762345140799,0.002264336682856,-0.0020665533374994
8.611521484375,-0.0067128685768693,-0.0030619448538869,0.0477864180475473,-0.0011563922744244,0.0012057302519679,0.0020933041814714
8.621500732421875,0.0032395116441883,0.0102735932657495,0.0383615870982408,-0.0020207052584737,-0.0008334750309586,9.71829867921e-05
8.6314794921875,-0.0016067776095122,0.0053430049957707,0.0471925438076257,0.0008373991586267,-0.0007687602192163,0.0034309281036257
8.641458740234375,0.000275894331932,0.0059668542488478,0.0549760372906923,-0.0005116055253893,0.0008621038869023,0.0016405591741204
8.6514375,0.0012731434746645,0.0060296355530619,0.0376180752545595,-0.0014354560989886,-0.00117361638695,0.0003105764335487
8.661416748046875,0.0023049342078156,0.0008559775085188,0.0465945779144763,-0.0010516383918002,-0.0007027750834822,-0.0005619783187285
8.6713955078125,-0.0005326273056678,-0.0062533065074123,0.0504863246560096,0.0009936693822965,0.0006972486153244,1.72592408489e-05
8.681374755859375,0.0023419417499564,-0.0022028072739019,0.0427028311729431,0.0021048327907919,0.0015993770211935,0.0007908142870292
8.691353515625,-0.006464629436843,0.0003985525972209,0.0340215120673179,-0.0001386142685078,-0.0020358376204967,0.000753530068323
8.701332763671875,-0.0006687295744195,-0.0016868023094721,0.0449456416636705,-0.0013632845366373,-0.002233256585896,-0.00060301204212
8.7113115234375,0.0027084917737171,-0.0023215748153626,0.0401584073871374,0.0033121611922979,1.28541141748e-05,-0.0030528539791703
8.721290771484375,-0.0028322277512401,-0.0039418877598829,0.0465928243488073,-0.0003843185259029,0.0001239655539393,-0.001639952766709
8.731269287109376,0.0057063401491381,-0.0054360718403942,0.0549731146812438,0.0011573854135349,0.0002603195607662,-0.0013086554827168
8.74124853515625,0.0071011007094755,-0.0003505304707214,0.0427004930853843,0.0015295724151656,0.0014804070815443,0.0004784686607308
8.751227294921875,-0.0036442747864872,0.0076845996858552,0.0416553679466247,0.0004089142894372,-0.0001939227804541,0.0004686149768531
8.76120654296875,0.0006496960803866,0.0005942760987207,0.0513859038442373,-1.6861828044e-05,-0.0014367969706654,0.0004438923788256
8.771185302734375,0.0046976014980114,0.0057612486741505,0.0355260714113712,-9.9153490737e-05,0.0016298331320285,0.000919266603887
8.78116455078125,-0.0003101619277149,0.0091091891288757,0.042555531656742,-0.0003788962494581,-9.17548313736e-05,0.001289979671128
8.791143310546875,-0.0093562957577407,-0.0026178908808156,0.0418073436379432,0.0011156698456034,-0.000540230423212,0.0007514884928241
8.80112158203125,-0.0027810272869654,-0.0014847951976582,0.0446527961969375,0.0017546038143336,-0.0010533025488257,0.0006143500795587
8.8111005859375,-0.0053188204025849,0.0042492001433856,0.0453980616062879,0.0006930677918717,0.0009957328438758,0.0029187831096351
8.82107958984375,-0.0077171867812052,0.0016194544279947,0.0418079281598329,0.001284688594751,0.0002159914001822,-4.57801506854e-05
8.83105859375,0.0057887029366567,-0.0057331550908274,0.0498889432847499,8.2537648268e-05,-0.0007246369495987,-0.0004231500788591
8.84103759765625,0.0021287921896204,-0.0053615270331501,0.0379185195058584,-0.0003301925607956,-0.0001886719837784,-0.0012606761883944
8.8510166015625,0.011153042981401,-0.0079039415249601,0.0446510426312685,-0.0014047781005501,-0.0022014891728758,0.000295941485092
8.86099560546875,0.0143442402381449,-0.0071394234258681,0.0377665438145399,0.0018719296203926,-0.0009272238239645,0.0006411966169252
8.8709736328125,0.0055712790600024,0.0016826010583899,0.0516840100079774,-0.0012588826939463,-0.0013360194861888,0.0001354623236693
8.88095263671875,0.0054248197940178,0.0005849785474129,0.0401642526060342,0.0012183063663542,-0.0011238362640142,0.0007983137620612
8.890931396484374,-0.0081545918177813,-0.0064875901873223,0.0439081153094768,0.0035054287873208,-0.0008774939924478,-0.0008637651335448
8.90091064453125,-0.0066090063435956,-0.0007191080547869,0.0483995815098285,-0.0016673863865435,-0.0019481461495161,-0.0010733904782682
8.910889404296874,-4.32546198368e-05,0.0043803705086931,0.0415162517368793,0.0021601086482405,0.0007464401423931,-0.0027876673266291
8.92086865234375,0.002557703392487,0.0014187442241236,0.042563130441308,-0.0029304509516805,-0.0007311180233955,-0.0001725280308164
8.930843994140625,-0.0047271381197497,0.0054256417779251,0.0261000714182853,-0.000522953341715,0.0006603831425309,0.0011417419882491
8.940822998046874,0.0023187070048414,0.0045674175133928,0.0437543860524892,0.0013815516140311,0.0013247253373265,-0.0017546452581882
8.950802001953125,-0.002053808990959,-0.0014132095324806,0.0476473018378019,0.0006659602513536,-0.0002041961997747,-0.0009556969162076
8.960781005859374,-0.0090968593702651,-0.0014471848673187,0.033583120650053,-0.0001516515039838,-0.002122888341546,-0.0002739891351666
8.970760009765625,-0.0019616371954791,-0.0027890279303304,0.0398725761830806,0.0014217441203072,-0.0009340532124042,0.0001848735264502
8.980739013671876,0.0026745347051881,-8.24541190639e-05,0.0395738854974508,0.0001739074941724,-0.0018880413845181,0.001984866335988
8.990718017578125,0.0019225655604153,-0.0010753193476237,0.0477992775291204,-0.0026825992390513,0.0005239835008978,0.0008146732579916
9.000697021484376,0.0031475407781079,0.0007501973127946,0.0433078113287687,-0.000220371002797,0.0021515404805541,-0.0003265832492616
9.010676025390625,0.0116219756674021,0.0022206169252283,0.0524339515924453,0.0001575315836817,-0.0003097532317042,-0.0014709435636177
9.020655029296876,0.0047789779048413,-0.0010109854071401,0.0477946013540029,-0.0005488149472512,0.0003733066841959,-0.0001683896698523
9.0306337890625,0.0066217196946963,0.0037766689945012,0.0395657021909952,0.0016251233173534,-0.0010317768901586,-0.0018006411846727
9.04061279296875,0.0035795755198225,0.0002970101851969,0.0486976876735687,0.0010563514661043,-0.000913068652153,-0.0008175519760698
9.050591796875,0.0047357780839316,-0.0026209048218093,0.0451104768365621,0.0001729810610413,-3.36924567818e-05,0.0020349598489701
9.06057080078125,-0.0029483832105062,-0.0019790449880063,0.0425660530507564,0.0010151213500648,-0.0019287057220935,0.0007690354832448
9.0705498046875,-0.0015101488346233,0.0055369749316014,0.0516968694895505,0.0026020989753305,0.0002122092992067,0.0003676970954984
9.08052880859375,-0.0105443730311468,0.0025875870740972,0.0514005168914794,-0.0013755190884694,0.0006027854979038,-0.0004663347499445
9.0905078125,-0.001965436587762,-0.0046153848409652,0.0475070165842771,0.0003075987333431,0.0028667384758591,0.0022958959452807
