seconds_elapsed,ax,ay,az,gx,gy,gz
0.109087158203125,-0.0020215506891719,0.0042073702956549,0.0437596467494964,-0.0019976333715021,0.0003135381266474,0.0002503964933566
0.11906591796875,0.007003887412697,0.0038919659372419,0.0413566772609949,0.001292968634516,0.0022922670468688,0.0016922319773584
0.129045166015625,0.0061573901185765,0.0012820391671732,0.0518242952615022,0.000195643340703,0.0008615627884864,0.0002952998329419
0.13902392578125,-0.0013616072094067,0.0075783810987137,0.047328152886033,-0.0005449817399494,-0.0013153050094842,-0.0008240267634391
0.149003173828125,-0.0033912681397981,-0.0025314547063782,0.050614334949851,0.0015911485534161,-0.0003643836826086,-0.000954114831984
0.15898193359375,-0.001114938971959,-0.0033096725372597,0.0498591326683759,0.001408722018823,0.0018116850405931,-0.0011248234659433
0.168961181640625,-0.0007326251234859,0.001410213857796,0.0407253936201333,0.0009331018663942,0.000726556405425,-0.0001292737870244
0.17893994140625,-0.0012803586667403,-0.0079503196836449,0.0398269834756851,0.0036599123850464,-1.38022005558e-05,-0.0007953303866088
0.1889189453125,-0.0014879004701972,-0.0027532442308962,0.0444663337141275,0.001474643824622,0.0006873738020658,0.0014232832472771
0.198897705078125,-0.0004963504158891,-0.0030880839421413,0.0458078114509582,-0.0003951616236008,-0.0012034699320793,-0.0004766158526763
0.208876953125,-0.0043926637346856,0.0026624241422861,0.0372732073396444,-0.000742558913771,0.0005864547565579,0.000219937384827
0.218855712890625,-0.002174403163325,-0.0052600028874352,0.0329331323087215,0.0029288749210536,0.0011534420773386,-0.0010780873708426
0.2288349609375,-0.0065781910802237,0.0022482538508251,0.0369727630883455,0.0009939494775608,0.0011716932058334,9.4870410976e-05
0.238813720703125,-0.006653156012576,-0.0010640307686291,0.0392184961885213,0.0012967508519068,-0.0006112931296229,-0.0020369901321828
0.24879296875,-0.0091504344547167,0.000966269482579,0.0441530299812555,-0.0024761506356298,0.0003224238753318,-0.0003036299312952
0.258771728515625,-0.0059672195750288,0.0092262944362126,0.0424964949458837,1.84322707355e-05,-0.0008080881088972,-0.0011087034363299
0.2687509765625,-0.0049105318626388,0.0033886925902217,0.0493435843616723,-0.0034655702766031,-0.0039919423870742,0.0030792541801929
0.278729736328125,-0.0013342077458277,0.0043412623410113,0.0460328523784875,0.000307063688524,0.0003676516935229,-0.0011035065399482
0.288708984375,0.0003645224634557,0.0036100071907043,0.0555967995375394,0.0014067275915294,-0.0001934375613927,0.0004880066844634
0.298687744140625,-0.0081573865630663,0.0042200471141375,0.0588993482142686,0.0015460108406841,0.0015325564891099,-0.0014036366483196
0.308665771484375,-0.003293835647311,0.0040244697431102,0.0443868387371301,-0.0012510735541582,-0.0008547091856598,0.0017525354633107
0.318644775390625,0.0029107180812396,0.0009652465692721,0.0381102426856756,0.0007867772364988,-0.0009372672066092,-0.0010610942263156
0.328623779296875,0.0063631600900553,0.0039234753203578,0.0448497800737619,-0.0024739410728216,0.0012433882802724,0.001276962691918
0.338602783203125,0.0093047299672849,-0.0003657463061623,0.0433534040361642,0.0017508976161479,-0.0016972739249467,0.0010324845789
0.348581787109375,0.0081499887079,-0.0001715023756958,0.0432090271294116,0.0011736315209418,0.000652166083455,0.0010935286991298
0.358560791015625,0.0110027660568244,-0.0002799677188508,0.0574105709612369,-0.0016362697351723,0.0016444604843854,0.000975284317974
0.368539794921875,0.0015094364485703,0.0053668059964664,0.0407867684185504,0.0004442714853212,0.0007794657722115,0.0011459118686616
0.378518798828125,-0.001589388083294,-0.0035062180226668,0.0470756394296884,0.0012879609130322,0.0006103552877902,0.0034274419303983
0.388497802734375,0.000724368751794,-0.0045905426606535,0.041986791858077,-0.0010337802814319,0.0001601856201887,-0.0014168841298669
0.398476806640625,-0.0049204504684545,-0.0094863153455778,0.0560474659144878,-0.0009978276211768,0.0016811164095997,0.0001434620207874
0.408455810546875,-0.0115286896270699,-0.0023911694528535,0.0491477695286273,0.0006520440801978,-0.0010026916861534,-9.68709209701e-05
0.418434814453125,-0.002428798049502,0.00779268143652,0.0428548068642616,9.27803339436e-05,-0.0018048360943794,0.0011851747985929
0.428413818359375,-0.0053186925384216,0.0037101613632403,0.0555675734430551,0.0001952605089172,0.0005968315526843,0.0015346343861892
0.438392822265625,-0.0093492266961373,0.0005566840346902,0.0513642765343189,-0.0001501514343544,0.0006546219810843,0.0001026526879286
0.448371826171875,-0.0031190088033676,-0.0014632774855941,0.0483662637621164,0.0003526502987369,-0.0018080193549394,-1.57894100993e-05
0.458350830078125,-0.0005172105408273,-0.0075730108038522,0.0464262356102466,-0.0033547361381351,0.0008149277418851,-0.0002016780490521
0.468329833984375,-0.0008086677680723,-0.0092425331849604,0.0432861840188503,-0.0004943672684021,0.0002017803490161,-0.0019811529200524
0.478308837890625,-0.0024285605874843,-0.0072177676253952,0.049431847167015,-0.0007210022304207,-0.0006666760891675,0.0008937293896451
0.488287841796875,-0.001464629192464,-0.0137481192422099,0.0504921698749065,-0.0021750233136117,-0.0009917430579662,-0.0005097492830827
0.498266845703125,-0.0068916774761863,0.0044151130285114,0.0371703314870595,0.0002551111392676,-0.0001571085304021,-0.0004484965757001
0.508245849609375,0.0094669347916729,0.0074926390440203,0.0421142176300287,0.0015160196926444,-0.000582031905651,-0.0015050690853968
0.518224853515625,0.0141836245826445,0.0028442469825968,0.0552875874578952,0.0019695560913532,-0.0007535386830568,-0.0007830860558897
0.52820361328125,0.0090884020691737,0.0032125871046446,0.0500514403700828,-0.0003086160286329,0.0007325233891606,0.0015133377164602
0.5381826171875,0.010396817786619,0.0015848580386489,0.046309915754199,-0.0011336633469909,-0.0018720477819442,-0.0003093296545557
0.54816162109375,0.010814787470363,-0.000572904517129,0.0448205539792776,0.0013021117774769,-0.0005948627367615,-4.86158533021e-05
0.558140625,0.0007390365979634,-0.0001691094892099,0.0527519315004348,-0.0019789026118814,0.000857625156641,-0.001492581795901
0.56811962890625,-0.0163726773258298,-0.0025599866811186,0.0526087236374616,0.001419105567038,0.0013855434954166,0.0006981376209296
0.5780986328125,-0.0034788185590878,0.0071349481801502,0.0494639958709478,-0.0011721501359716,-0.0004216777160763,0.0003740309330169
0.588076904296875,0.0006036284489557,0.0030704569539055,0.051397594282031,-0.0007208517054095,-0.0008450122550129,-0.0025099653284996
0.5980556640625,0.0057270724099129,0.0035094694256782,0.0455529599070549,0.0007076679030433,-0.0005728369578719,-0.0021009037736803
0.608034912109375,0.0085550258448347,-0.0108014895973727,0.0459901822805404,-0.000458505586721,-0.0001321593299508,0.0001669419580139
0.618013671875,-0.0024373649484477,-0.0063958750495687,0.038055297628045,0.0015971884131431,-0.0004884907975792,-0.0006202884833328
0.627992919921875,-0.0022793979077599,-0.0074991966489702,0.0500245523631572,-0.0002288994728587,-0.002252958714962,0.001003093435429
0.6379716796875,-0.0041246421819552,-0.0066117645562626,0.0513701217532157,-0.0017040243837982,0.0026954608038067,0.0002709904219955
0.647950927734375,-0.0093445687873288,0.0034058994533494,0.0422492421865463,0.000617888290435,0.0004882151260972,-0.0017144856974482
0.6579296875,-0.0042987749061547,0.0014641542684286,0.0379097516775131,-0.0006966480286791,-0.0018902532756328,0.0006432108348235
0.667908935546875,-0.0015162132492288,0.0075901446017436,0.0371609791368246,-0.0004872098215855,-5.223788321e-06,0.0004087060224264
0.6778876953125,0.0080728683510795,0.0051915772937238,0.0480786789923906,0.0003335764631628,-0.0010132296010851,-0.0013668234460055
0.687866943359375,0.0072692420843057,-0.0001219093466177,0.0500233833193779,-0.0005001086392439,0.0005507180467247,-0.0003046461206395
0.697845703125,-0.0017148228275589,0.0011761676399037,0.045086511439085,-0.0004500412032939,0.0008133053779602,-0.0004180967807769
0.707824951171875,0.0074185326281934,0.0031382980257272,0.0569108047455549,0.0004254123196005,-0.0018636649474501,-0.0001792528782971
0.717803955078125,-0.0010127755054272,-0.0024716873431578,0.0503331799209117,1.39540061354e-05,0.0005110763013362,0.0009134421125054
0.72778271484375,-0.0016353643831796,-0.0025815409258008,0.0437502943992614,-0.000343206396792,-0.0003797663375735,-0.0015691003063693
0.73776171875,-0.0086811181762255,0.0029886604219675,0.0471931283295154,0.0010964984539896,0.000648746266961,4.7704699682e-05
0.74774072265625,-0.0014145977719686,0.0056888775576837,0.0427034156948328,0.0006831808714196,-0.0006095385178923,-0.0010706688044592
0.7577197265625,-0.0048531756522133,-0.0075075078195892,0.0374596698224544,-0.0001264200545847,-0.0024439236149191,0.0015528112417086
0.76769873046875,-0.0090932426410727,-0.0020203451127745,0.0498737457156181,-0.001196437398903,0.0028478717431426,0.001073180232197
0.777677734375,-0.0065808579613454,-0.0003839212836697,0.0325175372451543,-0.0006201292853802,0.0018377341330051,-0.0001497433113399
0.78765673828125,0.0029974465166218,0.0060957413255237,0.0337093773782253,0.0009690447477623,-0.0022611385211348,0.0005119980778545
0.7976357421875,0.0040745924951508,-0.0024312822675332,0.0477788192629814,3.45415901392e-05,0.0031735738739371,-0.0004145156708545
0.80761474609375,-0.0014191643492318,-0.0004090922575443,0.0365548299372196,-0.0009836979443207,5.87925314903e-05,0.0006140162586234
0.81759375,-0.0092738964376039,-0.000953099473752,0.0404483302444219,-0.0017504220595583,0.0008817091584205,0.000825737544801
0.82757275390625,0.0030854170610196,0.0014111454395577,0.0492757798224687,0.0009233754826709,0.0005323970690369,0.0012427777983248
0.8375517578125,0.0058242857066914,0.0010129399022087,0.0383539883136749,-0.0012452366063371,0.0015356102958321,-4.85889941046e-05
0.84753076171875,-0.004639222374279,-0.0006566555441357,0.0545183566510677,-0.0005151646910235,-0.0006708009168505,-0.0016142555978149
0.857509765625,-0.0028537637296132,0.0006232829974964,0.0581143353164195,0.0018252212321385,-0.0020218221470713,-0.0014922828413546
0.86748876953125,0.003142042619083,-0.006505838230066,0.0485357751101255,0.0006945565110072,-0.0008852798491716,0.0016350644873455
0.8774677734375,-0.0005477700758725,-0.0045194684521295,0.0497281997650861,2.29072757065e-05,0.0016436576843261,-0.0002706935920286
0.88744580078125,-0.006548837121576,0.0048401335075497,0.0458387911111116,0.001442082808353,0.0014958390966057,-0.0004499993228819
0.897425048828125,-0.0067178370129317,0.001522862185724,0.05361877746284,0.0007259587291628,0.0027081100270152,0.0011015583295375
0.90740380859375,-0.0096713347899727,-0.0035716479416936,0.0509235470294952,-0.0005807855050079,-0.001771998591721,0.0001097329950425
0.917383056640625,0.0044740584078244,-0.0076946278895251,0.0429898314207792,-0.0008505637524649,-0.0003344248980283,-0.0003158401523251
0.927361572265625,-0.0038607853476889,-0.0021712430918589,0.0449368738353252,-0.0007120519294403,-0.0008801976218819,-0.0017468080623075
0.9373408203125,0.0033212533771991,9.9186058156e-06,0.0461363127529621,-0.0012585326330736,-0.0008008359000086,0.0014782799407839
0.947319580078125,0.0005251746515743,-0.0043694655221886,0.0536141012877225,-0.0027160285972058,0.0036587817594408,0.0013722328003495
0.957298828125,0.0070740665720775,-6.87909198924e-05,0.0205459444224834,0.0018017577240243,-0.003394866362214,-1.1593365343e-06
0.967277587890625,0.0007678060347214,0.0016617409334518,0.0560088874697685,-0.0024743657559156,0.0010178862139582,-0.0007972340099513
0.9772568359375,0.0013795812575146,-0.0022803660221397,0.0401566538214683,-0.0032365624792873,-0.0065702586434781,-0.0002393017348367
0.987235595703125,-0.0080984229174442,0.0047890061085112,0.0506412229567766,-0.0001035258756019,0.0030068708583712,0.0011176356347277
0.99721484375,-0.0055598078179173,0.004118669098895,0.0504956770062446,0.000550013850443,-0.002225974574685,0.0008318783948197
1.007193603515625,0.0040206703508272,0.0018805895822122,0.0386743063092231,-0.0012801259290426,0.001160423271358,0.000214972809772
1.0171728515625,0.0085250325653702,0.0010975129131227,0.0391232191205024,-0.0008934348588809,-0.0004358757287263,-0.0009072832763195
1.027151611328125,0.0017113522288389,-0.0040189715840853,0.038974750560522,0.0001252015354111,0.0003887116909027,0.0003734665806405
1.037130859375,-0.00960004138574,-0.001599781613145,0.0368745634108781,-0.0011635021073743,-0.0004499172791838,0.0003801244893111
1.047109619140625,-0.0037146731415763,-0.0052960423151962,0.0515349569261074,0.0007175038335844,0.0004440480843186,-0.0003558747121132
1.0570888671875,-0.0043154520463198,0.0011851181313395,0.0531815550893545,0.002554818522185,-0.0005088308826088,0.0012665230315178
1.067067626953125,-0.0008278291262686,0.0021300890975631,0.0461515103220939,-0.0022557098418474,-0.0031660962849855,0.001636266708374
1.077046875,0.0068760232493281,-0.0027474720772355,0.0425602078318595,0.0001659024273976,0.0007514143362641,-0.0002636325079947
1.087025634765625,-0.0010658756658434,-0.0064263615193776,0.0449491487950086,-0.0016500997589901,0.0010119983926415,-0.0001498319907113
1.0970048828125,0.0021606303662993,-0.0040526363916695,0.0515285271853208,-0.0011350443819537,-0.0012231925502419,0.0005367309204302
1.106983642578125,-0.0016322591106407,0.0031846944507211,0.0486830746263265,0.0030913150403648,0.0012466236948966,-0.0036681892815977
1.116962890625,0.0032142493387684,-0.0065211819296702,0.0373117857843637,0.0013738421257585,0.000519847497344,0.0008330853306688
1.126941650390625,-0.0014451573070138,0.0005365545621141,0.0388110844314098,0.0010997335193678,9.81325283646e-05,-0.0001696160470601
1.1369208984375,0.0062062342289835,0.0068694473780691,0.0467465536057949,-0.0009975057328119,-0.0027312096208333,0.0023894156329333
1.146899658203125,0.0137135776517912,-0.0026945728462189,0.0440536612600088,-0.0001272302470169,-0.0019991779699921,-7.07007420714e-05
1.15687890625,0.0044879773353226,0.0068751647328026,0.0477957703977823,-0.0011070072650909,-0.0018276702612638,0.0011948334285989
1.166857421875,0.0033185316971503,0.0088682747787795,0.0488449871897697,-0.0010513921733945,-5.7129189372e-05,-0.0004824716597795
1.176836669921875,-0.0078320453325286,0.0044078430375084,0.0488438181459903,-0.0004210219485685,0.001442763954401,-0.0013637116644531
1.186815185546875,-0.0066793133671395,0.0039582909054122,0.053335284346342,0.0003727370640262,-0.0006185490638017,-0.0007213778444565
1.196794189453125,-0.0049708472151309,0.0084384137278422,0.0410685079693794,0.0014161635190248,0.0004930552095174,7.14451962267e-05
1.206772216796875,-0.0058458947503007,0.0083838887953199,0.0410708460569381,0.0002147963969036,-0.0003240033984184,-0.0005778711056336
1.2167509765625,0.0023039112945087,0.006243497499451,0.0445072502464055,0.0003894997062161,0.0001204777508974,-2.0471503376e-05
1.22672998046875,0.0053263643882237,-0.0002795841263607,0.046897360253334,-0.0025104619562625,-0.0008706059306859,-0.0007514064782299
1.236708984375,-0.0016193265638314,-0.0094095237823203,0.049586745467782,0.0004773384425789,-9.69571992754e-05,0.0015255962498486
1.24668798828125,0.0077574274600483,0.0013550861370749,0.0476367804437875,0.0009021603036671,0.0008467221632599,-0.0005554157542064
1.2566669921875,0.0051825537370517,-0.0070141896110028,0.0474900654494762,0.0009157424792647,-0.0013743545860052,-0.0007684686570428
1.26664599609375,-0.0077175155747681,-0.0082866572322323,0.056768765926361,-0.0008794741006568,-0.0012705381959676,0.0013553466415032
1.276625,-0.0106123602334409,-0.0046406836790032,0.0428588985174894,0.001472363481298,-0.0010731983929872,-0.0010116709163412
1.28660400390625,-0.003555500524491,-0.0036393976819701,0.0404646968573331,-0.0007684956071898,0.000353479757905,0.0015287920832633
1.2965830078125,0.0009937420113943,-0.0062970360512845,0.0548287377744913,0.0022142450325191,-0.0003056526184082,-0.000215578416828
1.30656201171875,0.0004056764577515,0.007424615309108,0.052432782548666,-0.000397449475713,0.0006805406883358,-0.0015974033158272
1.316541259765625,-0.001812255320046,0.0076629358433187,0.0404641123354434,0.0005008347798138,0.0018376838415861,-7.62056806706e-05
1.32652001953125,0.0032501426360569,0.0002185746541246,0.0479424853920936,-0.0009881620062515,0.0002332748845219,0.0014304294018074
1.336499267578125,0.00315000672983,0.0012671703916043,0.0479430699139833,-0.0002225031494162,0.0005123736336827,0.0004586418508552
1.34647802734375,0.005303239240963,0.0017043927650898,0.0452566073089838,-0.0005814641481265,-0.0017241491004824,-0.0037299098912626
1.356457275390625,0.0068648442681878,-0.0023649938319809,0.0500461796730756,0.0015080519951879,0.0018809726461768,0.0023980238474905
1.366436279296875,-0.0021517894727177,0.0006289455533027,0.0507961212575435,0.0004127126885578,0.0006445161998271,0.0008966142777353
1.376415283203125,-0.0081168901558965,-0.00065502984263,0.0452606989622116,-0.0004189924802631,-0.0009187590330839,-0.0001566659193485
1.386394287109375,-0.0005986052139662,-0.0110843799256719,0.0504974305719137,-0.0003547735977917,0.0002600029110908,0.0008857725188136
1.396373291015625,-0.0061997131566517,0.0004212028204463,0.0470569347292184,0.0003142124041914,-0.001125905662775,0.0025859344750642
1.406352294921875,-0.0087210117951966,0.0041196737458929,0.046005964371562,-0.0005192008684389,0.0021512247622013,0.001485775806941
1.416331298828125,-0.0021087540485896,-0.0058370538567192,0.0434603715419769,-0.0002414331538602,0.0005863513797521,0.0014207947533577
1.426310302734375,-0.0068225029638037,0.0079420267793349,0.0451022935301065,0.0002940053818747,-0.0006529968231916,0.0009689048165455
1.436289306640625,-0.0025382132407277,0.0067449259492568,0.0539332502394914,0.0013747160555794,-0.0012471480295062,-0.0012116915313526
1.446268310546875,0.0085089034144766,-0.0024521241261623,0.0539338347613811,7.22707482054e-05,0.0023426907137036,-0.001227437169291
1.456247314453125,-0.0017958887071348,-0.0012277699629776,0.0479471615672111,0.0020944089628756,0.0016004675999283,0.0013297301484271
1.46622607421875,0.0040991424145177,0.0017350801642984,0.0443558590769767,-0.0002101626596413,0.0005890307947993,-0.0006887424970045
1.476205078125,0.0111102084866724,-0.0088859382996335,0.037771804511547,-0.0004176229122094,0.0005317730829119,-0.0002029819588642
1.48618408203125,0.0006765840873122,-0.0027761319161392,0.0434621251076459,0.0001757558202371,0.0007393043488264,0.0014716915320605
1.4961630859375,-0.0066340494533069,-0.0083348985544405,0.0424146618813276,-0.0015220092609524,-0.0005392795428633,0.0002860522363334
1.50614208984375,-0.0074068604567088,-0.0096138141827657,0.0430149658620357,-0.0021619747858494,-0.0004933075979351,0.0012588800163939
1.51612109375,0.0052280916455201,0.0031409649068489,0.0488467407554388,5.67047391086e-05,0.0006601074710488,0.0005358318448998
1.52610009765625,0.0016047317828983,-0.0035930743222124,0.0590215132892131,-4.20776195824e-05,-0.0007939217612147,0.0014589534839615
1.5360791015625,-0.0002091675049625,-2.51892401836e-05,0.0494435376048088,0.0002324942033737,-2.21375375986e-05,0.0015292610041797
1.54605810546875,-0.0098454857804812,0.0025542875926941,0.0473480266302824,0.0001457266043871,-0.0007754229009151,0.0001688706252025
1.556037109375,0.0048931971353478,-0.0002180814637802,0.0437561396181583,0.000175553956069,0.0014089019969105,0.0010943190427497
1.56601611328125,-0.0051375455515459,-0.0053252866759896,0.0518354011774063,0.0007363348267972,0.0027689160779118,0.0016392837278544
1.5759951171875,-0.0126393908153288,-0.0034935594704933,0.0437514634430408,0.0006726853316649,0.0009542386978864,-0.0013703546719625
1.585973388671875,-0.0023628749401308,-0.00374506827984,0.0498901123285293,-0.0002789200516417,0.0003758119419217,-0.0005585115286521
1.5959521484375,-0.0010993760766461,-0.0040037557486444,0.0447983421474695,0.0005109735066071,-0.0021840184926986,-0.0019649269524961
1.605931396484375,-0.0002453165305778,0.0065947403562255,0.0310305135577917,-0.001453336677514,0.000667774118483,0.0012333740014582
1.61591015625,0.0019794103141874,-0.0010670629759319,0.0500333201915025,1.5482073649e-06,0.0007290262728929,0.000566518458072
1.625889404296875,0.0024178930629976,-0.0092076993335969,0.0476350268781185,-0.000880685809534,0.0004503633826971,-0.0025916481390595
1.6358681640625,0.0032900910539552,-0.0029938845863565,0.0443412460297346,-0.0026317141018807,-0.0010497951880097,-0.0014092046767473
1.645847412109375,0.0023257760664448,-0.0015519421497359,0.0344628260940313,0.0006500985473394,0.0020033530890941,0.0025582613889127
1.655826171875,-0.0011549969877116,0.0059466882436536,0.049431847167015,-0.0012569910613819,-0.0002981508150696,0.0009009763598442
1.66580517578125,-0.0010254340576007,-0.0001554645563475,0.0491325719594955,0.0001284749014303,0.0008078133687376,2.54698534263e-05
1.675783935546875,-0.0022945589442737,0.0012316241541877,0.0376069693386554,-0.0011000413214787,0.001592912711203,0.0009783487766981
1.68576318359375,-0.0033071700529195,0.0019486133171245,0.038954292294383,-0.0012551369145512,-0.0009973281994462,-0.0014758565230295
1.695741943359375,-0.0084132975528948,0.0002349230007268,0.0456862308979034,-0.0007824258645996,-0.0015416787937283,-0.0015842472203075
1.70572119140625,-0.004385521607846,0.0043110498658381,0.0392523984581232,-0.0024966867640614,-0.0007206024602055,0.0007354965782724
1.715699951171875,0.0002626877904869,0.0026407055008225,0.0549602551996707,-0.001286546466872,-0.0009496342390775,-0.0001798318844521
1.72567919921875,0.0042070963010191,0.0070480736142955,0.0334089331269264,-0.0008191388333216,-3.06311994791e-05,0.0003845379396807
1.735657958984375,0.0087128650213591,0.0005596249104477,0.0489683213084936,-0.0024335470516234,-0.0011624740436673,-0.0027353554032742
1.74563720703125,0.0079325465649366,-0.0102680037751793,0.0396861137002706,-0.000269079580903,-0.0008051041513681,0.000803610892035
1.755615966796875,-0.0021035664168186,-0.0085405406617559,0.0447726231843233,0.0011154977837577,0.0029608719050884,0.0013418357120826
1.76559521484375,-0.0056053822590038,-0.0065751223403029,0.0500052631407976,-0.0008365630637854,0.001554955728352,-0.0009036836563609
1.775573974609375,0.0078729253321886,0.0022414222512394,0.0464139606505632,0.0010199265088886,-0.0007643913850188,-0.0009199288906529
1.78555322265625,0.0071637724158354,-0.0017964732290245,0.041028175958991,-0.0003793882788158,0.0011213924735784,0.0014555912930518
1.795531982421875,0.0058892772343009,-0.0004541187093593,0.0476104769587516,0.0010496638715267,-0.0003587929531931,-0.0016677639214321
1.80551123046875,-0.0040942105110734,0.0039532494041137,0.0510480501919984,-3.88801563531e-05,0.0014550052583217,-0.0002435414644423
1.815489990234375,-0.0027076332571916,-0.0029839111816138,0.0432657257527112,0.0011217255378142,-0.0008329162374138,-0.001229443703778
1.82546923828125,-0.0070705594407394,-0.0021119141200557,0.0514952094376087,-0.0009548515081405,0.0009914925321936,0.0001754635595716
1.8354482421875,-0.0115800727544352,0.000852232915163,0.0443102663695812,0.0016891347477212,0.0028509115800261,-0.0003909908118657
1.84542724609375,-0.003188475576695,0.0029756000109948,0.0597241086006164,-0.0011112358188256,-0.0002507697790861,-0.003702990245074
1.85540625,-0.0028833551502786,-0.0054056036368943,0.0463999321252107,-0.0025629247538745,0.0013537844642996,-0.0022076254244893
1.86538525390625,0.0061958589654415,-0.0102435269210487,0.0540296963512897,-0.001041387906298,6.16032630205e-05,0.0008605264592915
1.8753642578125,0.0037967436681501,0.0014015921599231,0.0408610026985406,0.0006909983931109,-0.0001184260472655,0.0009851623326539
1.88534326171875,-0.0014302337325178,-0.0034601321249268,0.0438525857299566,-0.0005814782925881,0.0002413401380181,-0.0006101130275055
1.895322265625,0.0056747211681678,-0.0006250000305473,0.0383142408251762,-0.0006240889197215,-0.0012369807809591,-0.0005248918314464
1.90530126953125,-0.0043094424306415,0.0009791654967702,0.0468500139802694,-8.89779767021e-05,-0.0010215491056442,0.0019234966021031
1.915280029296875,0.0015085961983539,-0.0023619616246782,0.0519452912926673,0.0001981107052415,-0.0008585639297962,-0.0006613676086999
1.925259033203125,-0.0009204575794748,-0.0002533171739429,0.0538899956196546,0.0009029824286699,0.0007888888940215,0.0025965545792132
1.935238037109375,0.0126700416819192,-0.000756572254654,0.0455085362434387,-0.0021460705902427,0.0006344253197312,0.0005736174061894
1.945217041015625,0.0013010726612061,-0.0046860937233082,0.0407218864887952,0.0015522689791396,-0.0016411785036325,0.0008988884510472
1.955196044921875,-0.0063825589102692,-0.0021164258983917,0.0378840327143669,0.0014952771598473,-0.0004360983148217,-0.000407392042689
1.965175048828125,-0.0021884864876046,-0.003697594142612,0.0476157376557588,-0.0001438509207218,0.0003692731261253,0.0022770012728869
1.975154052734375,-0.0109425420358777,-0.0061692449531517,0.0474625929206609,0.0021653762087225,0.0003138799220323,0.0009965535718947
1.985133056640625,-0.004679773580376,-0.0024804003725759,0.04088087644279,-0.0010325765470042,-0.0038635903038084,0.0010392956901341
1.995112060546875,-0.0056743375756777,-0.0013654248679988,0.0504606056928634,0.0005346937105059,0.0004467358812689,0.0003777666133828
2.005091064453125,-0.0063514148533344,0.0076685618665069,0.0386386504739522,0.0032133585773408,-0.000318432226777,-0.0005988429766148
2.015070068359375,0.0025934870919212,-0.0009801701437681,0.043130116674304,0.0015550078824162,0.001688259653747,-0.0002989710192196
2.025049072265625,0.0004912175830453,0.0098417411871254,0.03909048589468,-0.0018442992586642,-0.0003682812675833,-0.000677868607454
2.035028076171875,-0.0038352673139423,0.0041532654882408,0.0464233130007982,-0.0014608040219172,0.0003824643790721,0.0008358721388503
2.045006103515625,0.0024934790498577,0.0081188811835832,0.0450754055231809,-2.15669861063e-05,0.0002376213669776,-0.0015040826983749
2.0549853515625,-0.0024614947427064,0.0036763869578018,0.0354997679263353,-0.0019422387704253,-0.0025882590562105,-0.0002862191176973
2.064964111328125,-0.0077537559319287,-0.0098837719642557,0.045528409987688,0.0027334373444318,0.0007131956517696,-0.0003480770101305
2.074943359375,-0.001705141683761,-0.0021867511882446,0.0501700983136892,0.0004785386845469,-0.0008151922374963,-0.0005313025321811
2.084922119140625,0.0012711707132868,-0.0043458289182744,0.044482115805149,7.188715972e-05,0.0002029361203312,0.0003899704897776
2.0949013671875,0.0008532010295428,0.0011503573452122,0.0595955137848854,4.84513584524e-05,-0.0008356962352991,-0.0012484062463045
2.1048798828125,0.0027450791907496,0.0044254882920533,0.0540612605333328,0.0010121443774551,-0.0003477847203612,0.001101128407754
2.114859130859375,-0.0015523988074623,0.0087314966565929,0.0353559755414724,-1.66348181664e-05,-3.29986214637e-05,0.0006372057832777
2.124837890625,0.0049983562765643,0.0080022142676636,0.0384977806985378,0.0014901894610375,0.0002151895314455,-0.0005338483606465
2.134817138671875,0.0051595199213363,0.0070685684130527,0.050321489483118,0.0002190626692026,0.0003195852041244,0.0030382494442164
2.1447958984375,0.0040688386077992,0.0068690089866518,0.0456868154197931,0.0022657753434032,0.0002660499885678,-0.001325445016846
2.154775146484375,0.0024512473433278,0.0077125471387058,0.043738019439578,0.0008044987916946,0.0017185378819704,-0.0011512741912156
2.16475390625,0.004179660304822,0.0034507067094556,0.0476280126154422,0.0009477568091824,-0.0002686139196157,0.0019224361749365
2.174733154296875,-0.0025219562256708,-0.0091306703083217,0.0356575888365507,-0.0011153940577059,-0.0004614265635609,-6.77441712468e-05
2.18471240234375,0.0012980221875943,-0.0103044267954304,0.0405950452387332,-0.0004095517215318,-0.0009353244677186,-0.0005239686579443
2.194691650390625,-0.0006123414783738,-0.0086489329396747,0.0476268435716629,-0.0024572564288973,-2.4186447262e-06,-0.0004512643208727
2.20467041015625,0.0041995705816894,-0.0014860007740557,0.0500210452318191,0.0012012553634122,4.2313709855e-05,0.0024133026599884
2.214649658203125,0.0064101045043207,-0.0034392902662977,0.0537608162820339,-0.0002070242189802,0.0006335359066724,-0.0003806198074016
2.224628662109375,-0.0110848183170892,0.000150770114921,0.0446335069745779,-0.0005796398618258,-0.001859157346189,0.0011329634580761
2.234607666015625,-0.0025762436961755,-0.0009921163098886,0.0413426487356424,-0.0010395677527412,0.0007653879001736,0.0012568004895001
2.244586669921875,-0.0005622004600241,0.0054254956474527,0.034903555598855,-0.0018891624640673,0.0001009926199913,-0.0004308855568524
2.2545654296875,-0.0040794513333588,0.0063577715288847,0.0470265395909547,-0.0016747780609875,-0.0022455183789134,0.0004953618627041
2.26454443359375,0.0086940872556529,-0.0010087751837447,0.0579535917967557,0.0002862258115783,0.0001955796033143,-0.0001743614848237
2.2745234375,-0.0030154388310387,-0.0031779907152988,0.0417938996344804,-0.001276250812225,-0.0006885901093482,-8.4465427789e-06
2.28450244140625,0.0011867620991542,-0.0013138956101611,0.0376028776854276,-0.001479840837419,0.0014872988685965,0.0007729057688266
2.2944814453125,-0.0036594175566919,-0.006684683662001,0.0464279891759157,-0.0020681330934166,-0.0008285865187644,0.0031407221686095
2.30446044921875,0.0051572548990137,-0.0038381716570816,0.0465782113015651,-0.0001551234163343,-0.0003359150141477,-0.0013296083780005
2.314439453125,-0.0044913566024973,-0.002928874792438,0.0521130490750074,0.0018787328153848,3.39979305863e-05,-0.0006084243068471
2.32441845703125,-0.0078072944837622,-0.0027596739716827,0.0477700514346361,-0.0001913092564791,-0.0004769656807184,-0.0022219293750822
2.3343974609375,-0.0113219880738295,0.0027374438735656,0.043581367573142,-0.0001580197713337,-0.000550203025341,0.0004252527432981
2.34437646484375,0.0089876816410571,-0.0005125343657098,0.0525590392768383,0.0024638520553708,-0.0006221095100045,0.000108405816718
2.35435546875,0.0080218688162043,0.0082703636845573,0.0561544334203004,0.0016225595027208,-0.0021457038819789,-0.002662879647687
2.36433447265625,0.0032122948436997,0.0004206730974838,0.051819034564495,0.0023098937235772,-0.0011577755212783,0.0010126116685569
2.3743134765625,0.0088915460565127,-0.0036355069581419,0.0428437009483575,-0.0002169132931157,-0.0028784433379769,0.0006040827720426
2.38429248046875,0.0077402936621569,-0.0038412038643844,0.0443465067267417,0.0012870883801952,-0.0009002517908811,-0.0011233364930376
2.394271484375,0.0024625359223224,-0.0060818771969527,0.0527285506248474,-0.0023185652680695,-0.0008006496354937,0.0017360995989292
2.40425048828125,0.0049446715942583,-0.0018608254358172,0.0477934323102235,-0.0008134498493745,-0.0003927759826183,0.0003923358453903
2.4142294921875,0.000166734869033,-0.0012684307669289,0.0443517674237489,0.0023541138507425,0.0013294899836182,0.00200807582587
2.42420849609375,0.0007972330586053,0.0002167114906013,0.0489969628810882,-0.0009607410174794,-0.0031658262014389,-0.0012882336741313
2.4341875,-0.0014957915157079,0.0048535409783944,0.0446563033282756,0.0003471374511718,0.0018518352881073,-0.0006200465140864
2.44416650390625,0.001651073408965,0.0003625862346962,0.0401607454746961,0.0013891081325709,0.0012285988777875,0.0032841563224792
2.4541455078125,0.0059304494949057,0.0001163563886657,0.045547114688158,-6.9210072979e-06,0.0005931686609983,0.0023163636215031
2.46412451171875,0.0010198080344125,0.0005232201565057,0.045399815171957,0.0014239099109545,0.0014483360573649,-0.0009591805865056
2.474103515625,-0.0114330837654881,0.0026430618546903,0.0377682973802089,0.0004971298621967,0.0008187647908926,0.0008752046851441
2.484082763671875,-0.0061459554091095,0.0078618376825936,0.0527291351467371,-0.0011048774467781,-0.001555941067636,-9.44617349887e-05
2.494061279296875,-0.0048273653575219,-0.0042040640937164,0.0557224717438221,0.0024563013575971,1.45249068737e-05,-0.0004217642417643
2.50404052734375,-0.0051970571864396,-0.0024586451984941,0.0459960274994373,0.000220506102778,0.0003736158832907,0.0006466046907007
2.514019287109375,0.0028214323625899,-0.0040827027363702,0.0492868857383728,-0.000598948507104,0.0004678918048739,-0.0003837723052129
2.52399853515625,0.0093438564012758,-0.0071904046944342,0.0461409889280796,0.0005009452579542,0.0012567527592182,-0.0011406949488446
2.533977294921875,0.007708473751787,-0.0043512722783721,0.0404547599852085,0.0015097506111487,2.79704108834e-05,0.0005163238383829
2.54395654296875,0.0183896797040477,-0.0055033649229444,0.0415022232115268,-0.0010835920693352,0.0009284177795052,1.90056161954e-05
2.553935302734375,0.0075716590969823,-0.0030751696616411,0.0455424385130405,-0.002181080635637,0.0010482603684067,6.98719959473e-05
2.56391455078125,0.0073362977048382,-0.0010654007418081,0.0513783050596714,0.0004333239048719,-0.0018469812348484,2.32082093134e-05
2.5738935546875,0.0058107503716833,0.0010549158804118,0.0434533572793006,0.0009643582161515,-0.0003375010564923,-0.0002971700741909
2.58387255859375,-0.0001409245743416,-0.0013599084426648,0.0412152229636907,0.0009639466879889,-0.0002568941563367,-0.0003534108400344
2.5938515625,-0.0060859140512533,-0.0042956696336157,0.0466015921771526,-0.0031098909676074,-0.0018542576581239,-0.000545957358554
2.60383056640625,-0.0041663076329045,0.0004300802466459,0.0506400539129972,-0.0008791642030701,0.0001108543947339,0.0013092646840959
2.6138095703125,0.0005663651784881,0.0026643969036638,0.0447995111912488,-0.0001052496372722,0.0006735799834132,-0.0002159277210012
2.62378857421875,-0.0035959786653518,-0.0081306264203041,0.0403133056879043,-0.0012132041156291,0.0001150202006101,-0.0007404096540994
2.633767578125,-0.0133339489507488,-0.0067309522228315,0.0455512063413858,-0.0010571428574621,0.0008639013394713,-0.0001284152385778
2.64374658203125,-0.0054069005448371,-0.0008046309137716,0.0482400070339441,-0.0019323677988722,-9.78605821728e-05,0.0003659654175862
2.653724365234375,0.0054076677298173,-0.0066885195869021,0.0569166499644517,-0.0003294111811555,-0.0006611188873648,0.0004637034144252
2.66370361328125,0.0088757639654912,0.0029588680719025,0.0464414331793785,-0.0001268592313863,0.0006009936332702,-0.0013359509175643
2.6736826171875,0.0038170375375077,-0.0001412533679045,0.0539244824111461,-6.18781195953e-05,0.0019251173362135,0.0001791213871911
2.68366162109375,0.0047530214796774,-0.0071422729700803,0.0435948115766048,-0.0002558966516517,-0.0007166778668761,0.0010777524439617
2.693640625,0.0099204324465245,-0.0037428763227537,0.0394061277151107,-0.0005927865277044,-0.0013094972819089,0.0052067171782255
2.703619384765625,0.0039390747482888,-0.0060554641140624,0.0531774634361267,0.0025997154880315,-0.0013375747948884,-0.0010560931405052
2.7135986328125,-0.0045519824822433,-0.0048590756700374,0.0471954664170742,0.0011099432595074,-0.0009942930191755,0.0012619222979992
2.723577392578125,0.0059546706207096,0.0043652460047975,0.0439063617438077,0.0009996127337217,-0.0016608284786343,-0.0011976863024756
2.733556640625,-0.0024465894345194,-0.0021845592311583,0.0536363131195306,0.001653685234487,-0.0007979646325111,5.29341050423e-05
2.743535400390625,0.0027027744189836,-0.0068296085580252,0.0407686482399702,-0.0012083129258826,-0.0007790280506014,-0.0003180496860295
2.7535146484375,-0.0004792348843067,0.0054345009378157,0.049596097818017,0.0005565639585256,0.0017677526921033,-0.0006339005776681
2.763493408203125,-0.0012081884796731,0.0114270558835007,0.0564765049815177,-0.0013359810691326,0.0003802301362156,-0.0012508013751357
2.77347265625,-0.0004389394065365,-0.0006580620499327,0.0567769492328166,-0.0004246473545208,0.0002185758203268,-0.0001413284335285
2.783451416015625,-0.0028857663030736,-0.0027979418891482,0.0418149424225091,0.0013357072602957,0.0008723633363842,-0.0007643766002729
2.7934306640625,0.0044384208388626,-0.0029624848010949,0.0424187535345554,-0.0007902941433712,0.0006057806313037,0.0007656094385311
2.803409423828125,0.0011630706963129,-0.0067110054133459,0.0436129317551851,-0.001627150690183,-5.16446307301e-05,-0.0003979445900768
2.813388671875,-0.0010696019928902,0.0028584399047307,0.0418172805100679,4.39828727394e-05,-0.000539269298315,-0.0009534800192341
2.823367431640625,0.0095122352381236,0.0042040823600254,0.0495949287742376,-0.0024550373200327,-0.0005384758114814,0.0009985533542931
2.8333466796875,0.0017575294581241,-0.000505995027069,0.0485468810260295,0.0025538359768688,0.0012948438525199,0.0011615389958024
2.843325439453125,0.0062945153006352,-0.0041212629147805,0.0461497567564249,-0.0004941512015648,0.0014243591576814,-0.0003010360524058
2.8533046875,-0.0051123197787441,0.0037335605051368,0.0448006802350282,0.0012456920230761,-0.0001556947827339,-0.0008762788493186
2.863283447265625,-0.0060853295293636,0.0017206315138377,0.0534802457749843,-0.0002106940373778,0.0001539532095193,-0.0016998852370306
2.8732626953125,-0.0023061945831403,-0.0025038543133996,0.0515320343166589,-0.001376093365252,0.0021854117512702,0.0013291941722854
2.883241455078125,0.0002282557979226,-0.0068322754391469,0.0446487045437097,0.0011982470750808,0.0008598687127232,-0.0007747281342744
2.893220703125,-0.0149783368906006,-0.0041357663641683,0.0341717341929674,-0.0002249462413601,0.0013714618980884,0.0021685974206775
2.903199462890625,-0.0075310713582672,-0.002988167231623,0.0352174438536167,0.0001747803762555,0.0012275613844394,-0.0005825741682201
2.9131787109375,0.0082755695826373,-0.013713504586555,0.0447942504942417,0.002215826883912,-0.0007405150681734,0.0005149144562892
2.923157470703125,0.0063826867744326,-0.0067368705069646,0.0449433035761117,0.0016606574645265,-0.0004489123821258,0.0015422664582729
2.93313671875,-0.0016462693696841,0.0034459392027929,0.0435977341860532,-0.0022352808155119,0.0009170230478048,0.0021079219877719
2.943115234375,0.0043148492581211,-0.00312262553256,0.0572153406500816,-0.0029155793599784,0.0018038814887404,0.0009187058894895
2.953094482421875,0.0146212488149292,0.0029002332198433,0.0486836591482162,-0.0019214211497455,0.0004107821732759,0.0030713388696312
2.9630732421875,0.0181039215652272,0.0063346829142421,0.0467354476898908,-0.0030636256560683,0.0026762159541249,0.0015251892618834
2.973052490234375,0.0073318224591203,0.006559230651427,0.0486795674949884,0.0003992827842012,-0.0008815005421638,0.0005195796256884
2.98303125,0.0049270811386406,0.0051412353459745,0.0377571914643049,-0.0002784890821203,0.0017650881782174,0.0021384269930422
2.993010498046875,0.00281487475764,0.0007648651589639,0.0388029011249542,0.0004251181380823,0.0004683956503868,0.0012928732903674
3.0029892578125,0.0026002273599617,-0.0235548439148813,0.0453863711684942,-0.001198049634695,-0.000802906230092,-0.0001990327436942
3.012968505859375,-0.0029256964546628,-0.0191592941033653,0.0434399132758379,-0.0014598383568227,0.0015513282269239,-0.0002054243232123
3.022947509765625,0.000198956638202,-0.0179477628891356,0.0368558587104082,0.0001979826483875,0.000361138023436,-0.0010789665393531
3.032926513671875,-0.0096016305546276,-0.0092127225685864,0.0491261422187089,0.0004605703288689,-0.0022708643227815,0.0012505004415288
3.042905517578125,-0.0079395790939219,-0.012609306204319,0.0552589458853006,0.0010597669752314,0.0014563864096999,-0.0014308296376839
3.052884521484375,-0.0074045589017681,-0.0107192912066355,0.0464279891759157,0.000362285063602,-0.0014943964779376,-4.81164752272e-05
3.062863525390625,-0.0078096873702481,-0.0028700572772882,0.04388356539011,0.0018708766438066,-0.0011094380170106,-0.0002315006713615
3.072842529296875,-0.0057077649212442,0.0060877224158495,0.03744914842844,0.0001057335175573,0.0018493337556719,-0.0004751798987854
3.082821533203125,-0.0112421277706511,0.0068079447154887,0.0461240377932786,-0.0002459489624015,-0.0003249570727348,-0.0011137933470308
3.092800537109375,-0.0095795283206738,0.0062159701717086,0.0479202735602855,0.0006113225826993,-0.0003153691068291,0.0001120596425607
3.102779541015625,-0.0033561968264169,-0.0030312939872965,0.0530067830443382,-0.0003946528886444,0.0025219675153493,0.0004333792021498
3.112758544921875,0.002240600267332,-0.0081664831849746,0.043875966605544,0.0025505369994789,0.0012843962758779,-0.0004475944442674
3.122737548828125,-0.004227846828103,-0.0004337152421474,0.0335527255117893,0.0007596819195896,-0.0039647039957344,-0.0035471636801958
3.132716552734375,-0.0007903101274743,-0.0028196057316847,0.0456803856790065,-0.0008712379494681,-0.0033646943047642,-0.000568950548768
3.142695556640625,0.0117968755765818,0.004281568043027,0.0386561861306428,0.0006775573128834,-0.0022395914420485,0.0011854514013975
3.152674560546875,0.0049106049278751,0.0087885606060735,0.0489811807900667,-0.001484663109295,0.0010949522256851,0.0009023573365993
3.162653564453125,-0.0053250309476628,-0.0018253522636368,0.0470347228974103,-0.0017306383233517,0.0018477570265531,-0.0014713109703734
3.172632568359375,-0.0015597418637014,-0.0006344802449457,0.0533200867772102,-0.0006208990234881,0.0003340160474181,0.0012592280982062
3.182611572265625,0.000792629948724,-0.0004956745624542,0.0473334135830402,-0.0021820382680743,-6.80610537528e-05,-0.0002381762315053
3.19259423828125,-0.0027881146148778,7.27181763388e-05,0.0557066896528005,-0.0018206473905593,0.0030265320092439,0.0001541074016131
3.202572998046875,-0.0006484905039891,-0.0044720673801377,0.0500169535785913,-0.0007151357131078,0.0005765352398157,-0.0008204372134059
3.21255224609375,0.0027469971532002,-0.0086243282213807,0.0528600680500268,0.0023323195055127,0.0003147469833493,-0.0011741049820557
3.22253125,-0.0002233056281693,-0.0075237831009551,0.0417845472842454,0.0008704394567757,-0.0003680689260363,-0.0007072279695421
3.23251025390625,-0.0046491957790218,0.0040099297611042,0.0450724829137325,-0.0012185440864413,0.0008636433631181,-0.0001498283818364
3.2424892578125,-9.72315630875e-05,-0.001967500680685,0.0477671288251876,-0.0008214531699195,0.0007021306082606,-0.0001574285852257
3.25246826171875,0.001926967740897,-0.0037503472431562,0.0459738156676292,0.0018435721285641,-0.0014174794778227,-0.0006407923065125
3.262447265625,0.0089747490942478,-0.0007756788139231,0.0488169301390647,0.0001832800917327,-0.000787004828453,-0.0006487849750556
3.27242626953125,0.0059252070642076,0.00258926757453,0.0474672690957784,-0.0015621556667611,-0.0004101675003767,0.0007059650379233
3.2824052734375,0.0059727360003627,0.000135864806734,0.0522533343285322,-0.0024818279780447,0.0001746462658047,0.0015027641784399
3.29238427734375,0.0099263689969666,-0.0065707932250574,0.0458148257136344,-0.0019971325527876,-0.0011673206463456,0.0003986175288446
3.30236328125,-0.0032052440484054,0.0001589534213766,0.0459662168830633,-0.0004156493814662,-0.0008230814710259,-0.0004469446721486
3.31234228515625,-0.0015548099602572,-0.0076491630462929,0.055243163794279,-0.0007155212806537,0.0002048993483185,0.0006292387261055
3.3223212890625,-0.011843746925611,0.0019241547293029,0.0547913283735513,0.0006703985854983,0.0005384553223848,-0.0005911065964028
3.33230029296875,-0.0011508688018657,0.0039254115491174,0.0453670819461345,-0.0010737054981291,-0.0003260076045989,0.0004137040814384
3.342279541015625,-0.0113202527744695,-0.0043892844675108,0.0491039303869009,-0.0019415579736232,-0.0011636978015303,0.0011818211060017
3.35225830078125,-0.0144402296922169,-0.0031567287315614,0.0384773224323987,9.2075206339e-06,2.27401033043e-05,0.0002435894857626
3.362237548828125,-0.0082989869908429,-0.0103914840243756,0.0486520949661731,0.000297091784887,-0.0022328216582536,-0.0011888648150488
3.372216064453125,-0.0087206647353246,-0.0153179806411266,0.0474555786579847,-0.0023410357534885,0.00012993440032,0.000154966226546
3.3821953125,-0.0079368026149459,0.0017616028450429,0.048510640668869,0.0002636892022565,-0.0010152757167816,-0.0024175122380256
3.392174072265625,-0.0065828307227231,-0.003117766694352,0.0461176080524921,-0.0004260695422999,0.0005589192733168,-0.000580197549425
3.4021533203125,0.0061449142294935,-0.005147975614015,0.0535977346748113,-0.0006533906562253,-0.0002586254850029,-0.001282260287553
3.412132080078125,0.0037390951967798,-0.0117922907330095,0.0537497103661298,-0.0023452970199286,-0.0016013905405998,-0.0002881021646317
3.422111328125,0.0098445724650286,-0.002394493921101,0.0423825131773948,0.0010519482893869,-0.0010204734280705,0.0024174181744456
3.432090087890625,0.0053766880696639,0.0038884770722128,0.0456745404601097,0.0011803127126768,-0.0016279406845569,0.0025130256544798
3.4420693359375,0.0056941199883818,0.0096725951652973,0.0447790529251098,0.0008744321530684,0.0005544256418943,-0.0009971500840038
3.452048095703125,0.0016234364833682,-0.0045555809451267,0.0447813910126686,-0.0011823271634057,-0.0010951366275548,-0.0007721130386926
3.46202734375,0.0015289996655657,-0.0046670054303482,0.0446375986278057,0.0005217075813561,-0.0022023431956768,0.0021824126597493
3.472006103515625,0.0085035696522332,1.95084180682e-05,0.055564066311717,0.0012506146449595,0.0030118590220808,-0.0002083069994114
3.4819853515625,0.0020145181601867,-0.0050498490017838,0.0467342786461114,6.52021262794e-05,0.0002833399921655,-0.0001891804568003
3.491964111328125,0.0026986827657558,-0.0007230535775423,0.0386550170868635,0.0014500459656119,0.0008508600294589,0.000569554104004
3.501943359375,-0.0006002309154719,-0.0097333854418247,0.0396978041380643,-0.000257265754044,0.0007404778152704,-0.0026724173221737
3.511922119140625,0.0120188294978812,-0.0022263525462709,0.0422375517487525,-0.002570753917098,-0.0001181252300739,-0.0016292569926008
3.5219013671875,0.0113129097182303,0.0089898005329072,0.0434328990131616,-0.0006937162834219,0.0005947547033429,8.77165584824e-05
3.53188037109375,-0.0031371472482569,-0.0020878756573423,0.0452297193020582,-0.0022199738305062,-0.0015951627865433,0.001286405371502
3.541859375,0.0066251537607982,-0.0027518559914082,0.0410451270937919,-9.80159384198e-05,0.000693991780281,0.0004808671073988
3.55183837890625,0.004468377585709,-0.0104175683137029,0.04942249481678,-0.0001110653975047,0.0003690859302878,-0.0003297991061117
3.5618173828125,0.0026386231415905,-0.010753430938255,0.0444832848489284,-0.0025071999989449,0.0018787020817399,0.00122334016487
3.57179638671875,0.0005493044458329,-0.01429921378633,0.045977907320857,-0.0002512363134883,0.0004547098651528,-0.0009314233902841
3.581775390625,-0.00750190006271,-0.0129706320636905,0.0383493121385574,-0.0013661447446793,4.23444435e-05,0.0002232625556644
3.59175439453125,-0.0021530133154243,-0.0163091288366355,0.0426870490819215,0.0013697206741198,-0.0009150616824626,0.0012757438234984
3.6017333984375,-0.0129775001958943,-0.0066468541359528,0.0624368746906518,-0.001576974755153,0.0026217047125101,0.0013264522422105
3.61171240234375,-0.0090830500406213,-0.0040574404309503,0.0467231727302074,-0.000497595523484,0.0004144767299294,-0.0019596221391111
3.621691162109375,0.000777377580665,-0.0040506636302918,0.0393909301459789,0.0037252814508974,0.0001135868951678,-0.0018631018465384
3.631670166015625,-0.0099601799350231,-0.0024383330628275,0.0401420407742261,0.0010125852422788,-0.0006736442446708,-0.0007845215732231
3.641649169921875,-0.0031872882666066,-0.0052571350769139,0.0561509262889623,-0.0005046272999607,0.0007375190034508,-0.0022110133431851
3.651628173828125,-0.004260433923453,-0.0021363179089501,0.0606388853579759,0.0033066226169466,-0.0004830081015825,0.0014713392592966
3.661607177734375,-0.0016516396645456,0.0059958063486963,0.0533089808613061,-0.0001094306353479,0.0010554539039731,-0.00056011416018
3.671586181640625,-0.0016971593067049,0.0046234950821846,0.0527092614024877,0.0001227969769388,0.0010115122422575,-0.0008123155566863
3.681565185546875,0.0009646255147643,0.0019363931563682,0.0444786086738109,-0.0002832079189829,0.0002683438360691,-0.0012779569951817
3.691544189453125,0.008233173479326,-0.0001591543507762,0.0492687655597925,-0.0002214225823991,-0.0003210138529539,-0.0003509105881676
3.701522216796875,0.0064346544236876,0.0024712306854315,0.0519610733836889,-0.0001712978701107,0.0006728256121277,0.000760534312576
3.711502197265625,-0.0019603950864635,-0.005721555984579,0.0545025745600461,-0.0028413832187652,-0.0009548990055918,-0.001424855669029
3.721481201171875,0.0004197415157221,-0.002680051130522,0.0401356110334396,-0.0011207686038687,0.0002534752711653,0.0021216054446995
3.731460205078125,0.0121292310697957,-0.0023079116161912,0.0380401000589132,-0.0005468574236147,-0.0008711777627468,0.0008757786708883
3.741439208984375,0.0149121763192117,0.0009840608675964,0.0464215594351291,-0.0009883526945486,0.0005403431132435,-0.0015140395844355
3.751418212890625,0.0053527409384958,-4.84970505349e-05,0.0534551113337278,0.0002651972463354,-0.0001728516072034,-0.0007752786623314
3.761396240234375,0.012081501204241,0.0071056672867387,0.0521107109874486,-0.0002040115650743,0.0014586132019758,0.001666608848609
3.77137548828125,0.0079699742321856,0.0059702700486406,0.0524094016730785,0.0001533846370875,-0.0006703184917569,-0.0017800541827455
3.781354248046875,-0.0049177287884056,0.004217453298252,0.0465711970388889,0.0003120900364592,0.0006085103377699,0.0001735477126203
3.791334228515625,0.0018537563742138,0.0050270891807042,0.041332127341628,0.0016902759671211,0.0011555235832929,-1.127566793e-05
3.801312255859375,-0.0034575931079685,-0.0014514226510189,0.0500116928815841,0.0002743933582678,0.0009243050590157,0.000581226486247
3.81129150390625,-0.0163214768615551,0.004243793315906,0.0453694200336933,0.0008485709549859,0.0017645321786403,0.0007346246275119
3.82127001953125,-0.0065930781221017,-0.0105707495814189,0.0441723192036151,-0.0021859183907508,-0.0021865228191018,0.0018777069635689
3.831249267578125,-0.0148117481520399,-0.0086192867200821,0.0365413859337568,0.0016064228257164,0.0001722387969493,-0.0012632252182811
3.84122802734375,-0.009892905118782,-0.0093569168122485,0.0444745170205831,0.0036463933065533,-3.18307429552e-05,-0.0004199485410936
3.851207275390625,-0.0155398614971898,-0.0023258308653719,0.051953474599123,-0.0055084894411265,0.0001785596832633,-0.0014966644812375
3.86118603515625,0.0022395042887888,0.0051266953639686,0.0501543162226676,-0.0009775133803486,-2.58013606071e-05,1.9746657926e-06
3.871165283203125,-0.0025808102734386,-0.0015854608268477,0.0523982957571744,0.0014891064492985,0.0027233799919486,0.000595593242906
3.88114404296875,0.0046526481114327,0.0021797917244955,0.046261400437355,-0.0013737551635131,0.0003582425415515,9.43596241995e-05
3.891123291015625,0.0034965003462508,0.0082775058113969,0.0438683678209781,-0.0025751071516424,-0.0010921144858002,0.0010333901736885
3.90110205078125,0.0049244690564461,0.0010412526812404,0.0465595066010951,-0.0011437839129939,0.0007565300911664,-0.0007737688720226
3.911081298828125,0.0037069647591561,-0.0019290866327472,0.0402770653307437,0.0002077702665701,0.0007306970655918,0.0012070902157574
3.92106005859375,0.0064598253975622,-0.0006477050526998,0.0553910478323698,-0.0002630051458254,-0.0025600874796509,0.0024913956876844
3.931039306640625,0.0055217590961605,0.0012111841543577,0.0483615875869989,0.0004059809143655,-0.0013739150017499,0.0009052169625647
3.94101806640625,0.0006794518978334,-0.0156139679130166,0.0392313556700944,-0.0014211765956133,0.0007341867312788,-4.96784341521e-05
3.950997314453125,-0.0025843539373949,-0.0014663096928969,0.0380301631867885,4.75567067041e-05,0.0008154129609465,-0.0003098692686762
3.96097607421875,0.0038138957323506,0.0058381681015715,0.047904491469264,-0.0014169362839311,-0.0004062373191118,0.0011680254247039
3.970955322265625,0.002492218674533,-0.0022143333149142,0.0420639487475156,0.000834766367916,0.0004592901095747,-0.0037215382326394
3.980934326171875,-0.003397095092386,0.0032393289810977,0.0396697470873594,0.0035821814090013,-0.0009550033137202,0.0011407076381146
3.990913330078125,-0.0048305071626789,-0.0030736718242987,0.0453559760302305,0.0020796256139874,-0.0010085329413414,0.001117271836847
4.000892333984375,0.0028212862321175,0.0015520882802084,0.0553816954821348,-0.0002515708911232,-0.0005202069878578,0.000823822512757
4.010871337890625,-0.0002301189614459,-0.0011673815452493,0.0538835658788681,0.002224369905889,-0.0012025088071823,-3.02532571367e-05
4.020850341796875,-0.0114907870357856,-0.0038146811836399,0.0420586880505085,0.0009970115497708,0.0018703201785683,0.0012097158469259
4.030829345703125,-0.0111776111670769,-0.0057546728028915,0.0437017790824174,-0.0013593533076345,0.001919855363667,0.000705579528585
4.040808349609375,0.0008458214406855,-0.0058280485663563,0.045793198403716,0.0007423991337418,-4.51244413852e-05,0.0011094354558736
4.050787353515625,-0.0089963398715481,-0.00477784539368,0.0538771361380815,0.0002987164771184,0.0015333304181694,0.0003568261745385
4.060766357421875,0.0027483671263791,-0.002456179246772,0.0540261892199516,0.002331961877644,0.0027497699484229,0.0002895969082601
4.0707451171875,0.0123434400760568,0.0001059263261966,0.04205576544106,-0.001954395789653,0.0023955702781677,-0.0003010922227986
4.080724365234375,0.0042732020734809,-0.0095043441926129,0.0387637381583452,-5.13143022544e-05,-0.0031984001398086,-0.0020127890165895
4.090703125,-0.0026027298443019,0.001337422616221,0.0466962847232818,-0.0010782291647046,-0.0012755980715155,0.0008359943749383
4.100682373046875,-0.001431000917498,0.0089329192465171,0.0465454780757427,0.0006771990447305,0.0029990365728735,-0.0003685154952108
4.1106611328125,-0.0091373009785078,0.0005232201565057,0.0399625925540924,0.0004862504429183,-0.0009759981185197,0.0004069970163982
4.120640380859375,-0.0017101101198233,0.0041180480443872,0.0359247153401374,-0.000637681572698,-0.0015636198222637,-0.0006457115523517
4.130619140625,-0.002343877978716,-0.0002639846984297,0.0452045848608016,0.0012800607364624,0.0014737145975232,-0.0010454520815983
4.140598388671875,0.0007634586531668,0.0074483067119494,0.0341319867044687,-0.0015340682584792,0.0011779479682445,-0.0017625510226935
4.1505771484375,-0.0006577880552969,-0.0055758273709565,0.0432546198368072,0.0014835596084594,0.0004706121981143,-0.0004655915545299
4.160556396484375,-0.007918134447094,-0.0013951258865185,0.044901802521944,-0.0004520948277786,0.0003220653161406,-2.14464962482e-05
4.17053515625,-0.0046316601223312,-0.0121544568425975,0.0468505985021591,0.0015292970929294,-0.0019354959949851,-0.0020816677715629
4.180514404296875,0.0041836058275774,-0.0095945249604061,0.0555295795202255,0.0009174908627755,0.0001420117914676,0.0003997918101958
4.1904931640625,0.0067023106502369,-0.0130097402313724,0.0462497099995613,-0.0002678821329027,0.0006157886236906,-0.0012558954767882
4.200472412109375,-0.000765924604889,0.0004352496121078,0.0475958639115095,2.54277256317e-05,0.0006597992032766,0.0010945837711915
4.210451171875,0.0036553807023912,-0.0017325594136491,0.0458037197977304,-0.0005157266277819,0.0004992103204131,0.0021249607671052
4.220430419921875,0.0004544840355403,-0.0065010889897122,0.038171032962203,0.0017315367003902,-0.0010818494483828,-0.0012740993406623
4.2304091796875,0.0033081929662264,-0.000571169217769,0.0396697470873594,-0.0003478594007901,0.000502198934555,1.22075143735e-05
4.240388427734375,0.0026758681457489,0.0046100145461037,0.0502922633886337,-0.0019651572220027,0.0017808768898248,-0.0003610202111303
4.2503671875,-0.0003219619633629,0.0006253288241103,0.0447527494400739,-0.0016823295736685,0.0017395978793501,-0.0021863507572561
4.260346435546875,-0.0027553996553644,-0.0038354134444147,0.0484907669246196,-0.0001134201302193,-0.0011029094457626,0.0003858436539303
4.2703251953125,0.0015925664210692,-0.0064796991418115,0.0460977343082427,-0.0002769381972029,-0.0017860103398561,-0.0013209762983024
4.280304443359375,0.0008724537192843,-0.0103523210577666,0.0552238745719194,-0.0019825864583253,-0.0005482472479343,0.0003572071436792
4.290283447265625,0.0055207544491626,-0.0003392601580359,0.0348766675919294,-0.0004890857962891,-0.0006174892187118,-0.0012875611428171
4.300262451171875,0.0018943075803108,-0.0009082191524095,0.0422083256542682,-0.0001804395578801,0.0005337167531251,-0.0003813179500866
4.310241455078125,-0.0008035714678466,0.0019383659177459,0.0496866987109184,-0.0009474299731664,0.0017089694738388,-0.0013594969641417
4.320220458984375,0.0039477147124707,0.0022713972643949,0.0508837995409965,0.0013952127192169,-0.0002089580520987,-0.0023973169736564
4.330199462890625,0.0007837159899063,-0.0004299341161735,0.0458013817101716,0.0013776358682662,-0.0015112431719899,0.0002413429901935
4.340178466796875,-4.8040392808e-06,0.0049887481980025,0.0522416438907384,0.0009572922717779,-0.0019439607858657,0.0005093542276881
4.350157470703125,0.0031538426547311,-0.0066089880772866,0.0399666842073202,-0.0016177182551473,0.0016230773180723,-0.0006557787419296
4.360136474609375,-0.0016087321045808,-0.0030362441570498,0.0456499905407428,-0.0015927747590467,0.0017963107675313,0.001014462322928
4.370115478515625,-0.0108769842526875,0.001814648206532,0.0395160178303718,0.0022195405326783,-0.0016934955492615,0.0011881004320457
4.380094482421875,0.001783467616979,-0.0091600425332784,0.0513414801806211,0.0012440511491149,-0.001069244928658,0.0018159439787268
4.390073486328125,-0.0038033560720272,-0.004036196713522,0.0395230320930481,0.0003769260365515,0.0003685960546135,0.0027429903857409
4.400052490234375,-0.0041607729412615,-0.0033896424382925,0.0461100092679262,0.0001795099815353,-0.0027397079393267,0.0005978675908409
4.410031494140625,-0.0037039508181624,7.5567720551e-05,0.0420692094445228,0.0008258591406047,0.0009586233645677,-0.0006833791849203
4.420010498046875,0.0004088182629086,-0.0023295023934915,0.0383265157848596,0.0004658872494474,-0.0016654543578624,-0.0001179589307866
4.429989501953125,-0.0010410152192227,-0.0066135911871679,0.0505985528588295,0.0008328708354383,8.47745686769e-05,-0.0005568478954955
4.43996826171875,0.0034343583628535,-0.0056656976114958,0.054791912895441,0.0008588844211772,-0.0019037742167711,5.40261680725e-05
4.449947265625,-0.0022340974613092,0.0058297290667891,0.0462660766124725,-0.0011890864698216,-0.0005602091550827,0.0002814601175487
4.45992626953125,-0.0080086622747592,0.0033570736092515,0.0549473957180976,-4.14975220337e-05,-0.0004809098318219,-0.003384587354958
4.4699052734375,-0.0004984510414302,-0.0007993336841464,0.0462695837438106,0.0007981971139088,-0.0011919736862182,0.0006093552801758
4.47988427734375,-0.0022772972822189,-0.0053414888921193,0.0438724594742059,-0.002227381337434,-5.2880495786e-06,0.0008356244070455
4.48986328125,0.0003264372090809,0.0050949302525259,0.0455167195498943,0.0001516202464699,-0.0009685531258583,-0.0002349663554923
4.49984228515625,-0.0044400648066774,0.0002409691490232,0.0571878681212663,-0.0005660913884639,0.0003588674589991,0.0017924364656209
4.5098212890625,-0.0086478369611315,-0.0062249754620715,0.0495528431981801,-0.0026726517826318,-0.0004906812682747,-0.0014587506884709
4.51980029296875,-0.0074470098040066,-0.0017422040248289,0.0477542693436145,-0.0014743199571967,-0.0013572070747613,0.0012836628593504
4.529779296875,-0.005492478202749,-0.0090542258049361,0.0362304202884435,-0.0007243737345561,0.0012817187234759,0.0019672962371259
4.53975830078125,-0.0109719142608344,-0.0131998559759929,0.0345803149938583,-0.0014184239553287,0.0013000350445508,-0.0017600901192054
4.5497373046875,-0.0082425988947972,-0.0064772697227075,0.0413110845535993,0.002134233014658,0.0017615603283047,-0.002765699988231
4.55971630859375,0.0103274788774549,-0.0101192612205632,0.0483434674084186,-0.001693356083706,2.01947987079e-05,2.77501530945e-05
4.5696953125,0.0138819564886391,-0.0026032960998825,0.0516384173005819,0.0018712850287556,-0.0020019430667161,-0.0003490871167741
4.57967431640625,0.0163711246895603,0.0041549277223646,0.0419113885343074,-0.0012412403011694,-0.0006397860124707,-0.0003628864942584
4.5896533203125,0.0054735908391885,0.0024369813559576,0.0477431634277105,-0.0005517478566616,0.0007112361490726,-0.0016851460095494
4.599632568359375,0.0073078753279522,0.0064552953529171,0.0534299768924713,7.28485174477e-05,-0.0020100306719541,-0.0004304008034523
4.609611328125,-0.0044162272733636,0.0053178522882051,0.0504401474267244,-6.13747979514e-05,0.0006371513009071,0.0006180857308208
4.619590576171875,-0.0032849582211114,0.0030291202965192,0.0443090973258018,-0.000311870011501,-9.1902911663e-06,0.0017985012382268
4.6295693359375,-0.0020237243799492,-0.0010860234047286,0.045353053420782,-0.0013917818432673,0.0010054744780063,0.0018285950645804
4.639548583984375,0.0023202231084927,-0.0075394921267405,0.0493932687222957,3.64625593647e-05,0.0006504105404019,0.0019959760829806
4.64952734375,-0.0068470346168614,-0.0088622834294103,0.0568774869978427,0.0020130607299506,-1.53798609972e-05,-0.0008512094500474
4.659506591796875,0.0005726122561842,0.0001753383005969,0.0469978980183601,-0.0019653062336146,-0.0007002102211117,-0.0005744869122281
4.6694853515625,0.0009380115024745,-0.0052621948445215,0.0473006803572177,0.0014842861564829,-0.0004583951085805,-0.0015878196572884
4.679464599609375,0.0030555151131004,-5.69543516263e-05,0.0455102898091077,0.0013021435588598,0.0009483685716986,0.0011277785524725
4.689443359375,0.0020811536556109,0.0027467962238006,0.0500029250532388,0.0015828406903892,-0.0010157125070691,-0.0002301672211615
4.69942236328125,0.0043773017687723,-0.0020875833963975,0.053441667330265,-0.0011206855997443,0.0036972472444176,-0.0026365593075752
4.7094013671875,-0.0075766457993537,-0.0082266706733033,0.0357785848677158,0.0009459273423999,0.0009541912004351,0.0011086442973464
4.71938037109375,-0.0088304269864223,0.000901095291879,0.032186113333702,0.0005621052114292,-0.0002917097881436,-0.0001634822110645
4.729359375,-0.0055616161825135,-0.0022252383014187,0.0401198289424181,-0.0011516389204189,-0.0005961088463664,0.002352938754484
4.73933837890625,-0.0003232223386876,0.0045763132059015,0.0461012414395809,-0.0037423907779157,0.0039501264691352,-0.0003532539994921
4.7493173828125,0.003211363261938,-0.0044789537786506,0.0477449169933795,-0.000161770673003,-0.0020313337445259,0.0021647647954523
4.75929638671875,0.0014051358238793,-0.0033757965760305,0.0435527260005474,-0.0015351772308349,0.0008840002119541,0.0018417768878862
4.769275390625,0.0068452993175014,-0.008041870424617,0.044597851139307,0.0010478226467967,0.0017801532521843,-0.0013636037474498
4.77925439453125,-0.0017650551774539,0.0015660437403246,0.0387637381583452,0.0006281229434534,0.0001311171799898,-2.30534205911e-05
4.7892333984375,-0.0101147859748452,-0.0008344597964547,0.0405628965348005,-0.0006350143812596,-0.0008960645645856,-0.0026420059148222
4.79921337890625,0.0067438665033318,-0.000600614507962,0.0562760139733552,0.0011589048663154,-0.0005740188062191,0.0013649957254529
4.809192138671875,-0.0039427645427174,-0.0006806392079219,0.0473012648791074,-0.0015961352037265,0.0022230986505746,0.0014691252727061
4.81917041015625,-0.001723170530796,-0.0006091083416715,0.0422141708731651,-0.000381751160603,0.0003829384222626,0.0021712002344429
4.8291494140625,0.0002615187467075,0.0028615817098878,0.0507446833312511,0.0007860449841246,-0.0006295954808592,0.0010625262511894
4.83912841796875,-0.005983567921631,-0.0073976725032553,0.0473053565323352,0.0008559003472328,0.0019566807895898,-0.0004065719549544
4.849107421875,-0.0018280374110676,-0.003731204151269,0.0401268432050943,0.0006340589607134,-0.0031296908855438,-0.0011887423461303
4.85908642578125,0.0024369630896486,-0.0006444536496885,0.0526969864428043,-0.0009420271962881,-0.0003822082653641,-0.0012154764262959
4.8690654296875,-0.003571447012294,-0.0062910264356061,0.0594318476557731,-0.0028019789606332,0.0003389762714505,-0.0019361277809366
4.87904541015625,-0.0032493571847677,0.0003768339557573,0.050302784782648,0.0013602599501609,0.0002354914322495,0.001473918557167
4.8890234375,-0.005568392983172,-0.0046112383888103,0.0444680872797966,-0.0010219375835731,3.04281711578e-05,-0.0005346375401131
4.89900341796875,0.0058460956797003,-0.0046232393538579,0.0506038135558366,0.0005416971398517,1.92457810044e-05,-0.0013198315864428
4.908982421875,-0.0005876454285345,-0.0034443683002144,0.0441664739847183,-0.0022282567806541,-0.0007751751691102,0.0004008368123322
4.91896142578125,0.0010482121449895,-0.0061591254179365,0.0446124641865491,-0.0004658264224417,0.0006056372076272,0.0008387931156903
4.9289404296875,0.003456734591443,0.0044920872548595,0.0495510896325111,0.0014484536368399,0.0016218991950154,0.0021658462937921
4.93891943359375,0.0060131228096783,-0.0003712261988781,0.0265051450878381,0.0015158974565565,-1.16387382149e-05,-0.0016576132038608
4.9488984375,0.0049995801192708,-0.0059848282969556,0.0417699342370033,0.0005875196075066,-0.0019147340208292,-3.5748060327e-05
4.95887744140625,-0.0041685178562998,-0.002793393578194,0.0431178417146205,-0.0033853445202112,-0.0004336154088377,-0.0003570421831682
4.9688564453125,-0.0002493899174965,-0.0058862998259253,0.0473065255761146,-0.003699064720422,0.0004590768367052,0.0001878405455499
4.978835205078125,0.0038677813440561,-0.0038166539450176,0.0462543861746788,-0.0033128652721643,0.0023441920056939,0.000750123115722
4.988814453125,-0.0002480382106266,-0.0151110050932504,0.0456529131501913,-0.0001314528635703,0.0003478862345218,-0.000642177532427
4.998793212890625,-0.0011345569878816,-0.0072393036037683,0.0544832853376865,0.0002192091196775,0.0002108421176671,0.0005391131853684
5.0087724609375,-0.0056419148771092,-0.0050453372234478,0.0426630836844444,0.0013257525861263,0.0018367022275924,0.0009897199925035
5.018750244140625,-0.0056831602029502,-0.0048805020505562,0.0426648372501134,-0.0010925042442977,0.0018453914672136,-0.0005428846925497
5.0287294921875,0.0041559506356716,-0.0044158802134916,0.0401233360737562,0.0027858573012053,6.26714900135e-05,0.0010014824802055
5.038708251953125,0.009300272987876,0.0017195720679126,0.0425216293871402,0.0012057536514475,-0.0008639702573418,3.0673982109e-06
5.0486875,0.0049994522551074,0.0037885238290764,0.0449158310472965,-0.0001564531703479,0.0017059799283742,0.002110959496349
5.058666259765625,0.0048332105764187,-0.0012043708210811,0.0443155270665884,0.0008365774992853,-0.0007884902879595,0.0022813486866652
5.0686455078125,0.0048469285745173,-0.0053507316445,0.0420715475320816,0.001964692492038,-0.0005149841308593,-0.0007125769043341
5.078624267578125,-1.73529936e-05,-0.0002295709721744,0.0437228218704462,0.0022628812585026,-0.0003360994160175,-0.0014585379976779
5.088603515625,-0.0048369186371564,-0.0050653753644786,0.0473152934044599,3.40816332027e-05,-0.0002135941758751,0.0013929086271673
5.098582275390625,-0.0011018602946773,-0.0018701595197431,0.0482137035489082,-0.001088116550818,0.0005117058753967,-0.0012297630310058
5.1085615234375,0.0089433127763681,-0.0025839155459776,0.0398351667821407,-0.0006825170712545,-0.0019631693139672,-0.0001208227840834
5.118540283203125,-0.002348718550615,-0.0073611216188408,0.0408843835741281,-0.0004341365420259,0.0001406474038958,-0.0010325516341254
5.12851953125,0.0017667722105048,-0.0007729936664924,0.0446241546243429,-1.22918281704e-05,0.0014178995043039,-0.0005670310929417
5.138498291015625,0.0033337840652093,-0.0012500365937128,0.048365094718337,-0.0013894931180402,0.0016076164320111,0.0013110793661326
5.1484775390625,-0.0069375989771448,-0.0071410308610647,0.0386357278645038,-0.0014595342800021,0.00165422167629,-0.000986429862678
5.158456298828125,-0.0102403668495826,-0.0043161278997547,0.0444745170205831,-0.0001600502291694,-0.001175969839096,0.0014117092359811
5.168435546875,-0.0018491532643325,-0.0060231144807301,0.0513566777497529,-0.0008924194844439,-0.0004971306771039,-0.0004924508975818
5.178414306640625,-0.00431968983002,-0.0021783669523894,0.0503068764358758,-0.0018627969548106,0.0040529891848564,-0.0017629779176786
5.188390380859375,0.0064256126007065,-0.0068866542411968,0.0452110146015882,-0.0018992822151631,0.000969048589468,-0.001314501510933
5.198369384765625,0.0033058914112858,-0.0033452735736034,0.0429664505451917,0.0006010392680764,-0.0020175958052277,0.0017544850707054
5.208348388671875,-0.0004168737052008,-0.0067687269499525,0.0396785149157047,-0.0021428156178444,0.0010314574465155,-0.0012980301398783
5.218327392578125,0.0070529689851216,0.000255436065793,0.046408699953556,9.35673015192e-05,0.0008995402604341,-0.0004139337106607
5.228306396484375,-0.0034364041894674,0.0069968548837117,0.0449099858283996,-0.0037368573248386,-0.0016978411003947,0.0005285590304993
5.238285400390625,0.0035249227231368,-0.0089466920435428,0.043560909307003,0.0005220868624746,-0.0018628062680363,0.0001035061723086
5.248264404296875,0.0031790318949148,-0.0017066212547942,0.0543354012995958,-0.0005349217681214,-0.0001330832019448,-0.0007859895704314
5.258243408203125,0.0011657010448165,0.0010666611171327,0.0492512299031019,0.004432616289705,-0.0013247849419713,0.0012202636571601
5.268222412109375,0.0031020028696395,-0.0005355133824981,0.0410217462182044,-0.0020497841760516,0.0014273254200816,-0.00033608765807
5.278201416015625,-0.0056627384694293,-0.0109496110974811,0.0396773458719253,-0.0001013326109386,-0.0005532801151275,-0.0004062505322508
5.2881806640625,0.0009934680167585,-0.0059018444549292,0.0411748909533023,-0.0001354210544377,-0.0008454294875264,0.0005538190016523
5.298159423828125,0.0023155834659934,0.0009241656402125,0.0405775095820426,0.0013270113850012,-0.0012917527928948,-0.0001958761858986
5.308138671875,-0.0065724371928721,-0.006798720229417,0.0467155739456415,-0.0013441392220556,-0.0007689744234085,0.0023053647018969
5.318117431640625,0.0007740531124174,-0.0074080477667972,0.0506061516433954,-0.0008691162802278,-0.0006747860461473,-0.0017283812630921
5.3280966796875,-6.1374798417e-05,0.0050320210841484,0.0491080220401287,0.0002211817773059,0.000936159864068,-0.001152872107923
5.338075439453125,-0.0001047755487263,0.0078759392731823,0.0497089105427265,-0.0005127615877427,-0.0004678079858422,0.0024604187346994
5.3480546875,0.0005997011925093,-0.0003364288801327,0.0497083260208368,0.0015786187723279,0.0001678885892033,0.0010782382450997
5.358033447265625,0.005873020219244,0.0024719430714845,0.0562917960643768,-0.0010311346268281,0.0008684424683451,0.0028909770771861
5.3680126953125,0.001712064614892,0.0020570603939704,0.0471685784101486,0.0011683700140565,-0.0017124274745583,-0.0006225313409231
5.377991455078125,-0.0026677396382205,-0.0079559274405241,0.0455231492906808,0.0004442876088432,-0.0014422852545976,-0.0024953049141913
5.387970703125,0.0065442705443128,-0.0104997667044401,0.0435796140074729,0.0008938292157836,-0.0003882059827446,-0.0015046090120449
5.397949462890625,0.0042570546562783,-0.0123677342670969,0.0503138906985521,0.0011422390816733,0.0005721915513277,-0.0007857680902816
5.4079287109375,-0.0024621340635232,-0.0039191279388032,0.0515121605724096,0.0015089564258232,0.0004366366192698,-0.0016840522876009
5.417907470703125,0.0030202428703196,-0.0021086261844262,0.0500122774034738,-0.0006153144640848,-0.000296932645142,0.0003151887212879
5.427886474609375,-0.002239577354025,-0.0028397169379517,0.0366945306688547,0.0001045378739945,0.0003108009696006,-0.0013325090985745
5.437865478515625,-0.0048494127925485,-0.0021613610186614,0.0434288073599338,-0.0013523197267204,-0.0010863710194826,0.0001555540657136
5.447844482421875,-0.0018585056145675,0.006280578106828,0.0518102667361497,0.0030685276724398,-0.0019923783838748,-0.0012825529556721
5.457823486328125,0.0008383322539739,0.0056284343410283,0.0423883583962917,-0.0004365788190625,0.0009940844029188,-0.000402683916036
5.467802490234375,-0.0057864561806432,0.0026494367965497,0.0432855994969606,0.0025384384207427,-0.000254139304161,-0.0016445158980786
5.477781494140625,-0.0021742387665435,-0.0028038053743541,0.046878655552864,-0.0002709818654693,-0.0009222691878676,-0.0008448318694718
5.487760498046875,-0.0071322630327194,0.0070760028008371,0.0438888260871171,0.0003881505690515,0.0017310380935668,0.0007392163388431
5.497739501953125,-0.0066407531887292,-0.0049868850344792,0.0503191513955593,-0.0021163434721529,0.0007020598277449,-6.09821290709e-05
5.507718505859375,-0.0041322592328302,-0.005168105086591,0.0519639959931373,0.0008541462593711,0.0003992579877376,0.0008072083583101
5.517697509765625,0.0043951296864077,-0.0042376558360643,0.0479278723448514,-0.0010300914291292,-0.0014376463368535,-0.0016887853853404
5.527676513671875,0.0075631287306547,-0.0045431233223527,0.051669981482625,-0.0008439364028163,9.5535069704e-05,0.0012976834550499
5.537655517578125,0.0088172752439044,-0.0033497488193213,0.0579524227529764,-0.0014899120433256,0.0018970565870404,0.0010765208862721
5.547634521484375,0.0118763888198882,-0.0001765804096125,0.0458276851952075,0.0001961352536454,0.0011963788419961,0.0007409625686705
5.557613525390625,0.0114159682339057,0.0011848624030128,0.0455260719001293,-0.0007744421600364,-0.000633580610156,-0.0001801067701308
5.567592529296875,-0.0023606281841173,-0.0030326822267845,0.0407370840579271,0.0005281099001877,-0.0010053580626845,-0.0029476636555045
5.577571533203125,-0.0012388941451907,-0.0004409852331504,0.0405874464541673,0.001970428507775,-0.0005659405142068,0.0006335653597488
5.587550537109375,-0.0093237817276269,0.0037081520692445,0.0441805025100708,0.0011403211392462,-0.0002705957740545,-0.0034895406570285
5.59752978515625,-0.0023716793010942,0.0009174436384811,0.0334089331269264,0.0015352219343185,-0.000714061781764,0.0015809952747076
5.607508544921875,0.0026153701301664,-0.0035061814900487,0.0489735820055007,0.0004755503032356,0.0016369763761758,0.0001034734596032
5.61748779296875,-0.0017662790201604,-0.0032894699994474,0.0384989497423172,-0.0005622901953756,-0.0007127951830625,0.0001085958938347
5.627467529296875,-0.0014572130709886,-0.0003290310249663,0.0470247860252857,0.0006718186195939,0.0010859044268727,-0.0017119409749284
5.637446533203125,0.0041502880798652,-0.00962915788237,0.0595955137848854,0.0011090473271906,0.0008737416937947,0.0005153139354661
5.647425537109375,-0.0047452400320209,-0.0044066922600381,0.0597457359105348,-6.86025596223e-05,-4.02545556426e-05,-0.0022469165269285
5.657404541015625,-0.0088073201054707,-0.0047357598176226,0.04927344173491,0.0004380789468996,-0.0008990811184048,-0.0004635312070604
5.667383544921875,3.04682034999e-05,-0.003639032355789,0.0402940164655446,-0.0013030958361923,0.0005472814664244,0.0006275658961385
5.677362548828125,0.0046747503453865,-0.0081275576803833,0.0479255342572927,0.0002616677666082,0.0001275958493351,0.0005499004619196
5.687341552734375,-8.00246999599e-05,-0.0090106789241544,0.0432937828034162,0.0005096080712974,-0.0023451494053006,0.0004396456060931
5.697320556640625,-0.0002469422320835,-0.0005782382793724,0.0395534272313118,-2.09878198802e-05,0.001730510033667,-0.0015664082020521
5.70729931640625,0.0043043461304157,0.0018052410573698,0.0426934788227081,-0.0002894344506785,0.0028785988688468,0.0003705089329741
5.717278564453125,0.0025581052512861,0.002874130664207,0.0462830277472734,-8.74995603226e-05,0.0005234647542238,-1.39691401273e-05
5.72725732421875,-0.0091936525419354,-0.000280734903831,0.0494265864700078,-0.0005695316940546,-0.0021367659792304,-0.0008725722436793
5.737236572265625,-0.0017652013079263,-0.0043430707056075,0.0570604423493146,0.0013942790683358,0.0028401436284184,-0.0016538175987079
5.74721533203125,-0.0023406265757046,-0.0065552485960535,0.0503244120925664,0.0014110570773482,-0.0014201151207089,0.0010844446951523
5.757194580078125,-0.0014729768957011,0.0038640732833184,0.0494306781232357,0.0025094053708016,-0.0025856681168079,-0.002604326698929
5.76717333984375,-0.000612761603482,-0.0031031536471098,0.0440501541286706,0.0040407227352261,0.0002205045893788,-0.0001699312415439
5.777152587890625,0.0013184804537333,-0.0007837890551425,0.0365717810720205,0.0025584062095731,-0.0006192745640873,0.0011204081820324
5.78713134765625,-0.0001855856999754,-0.0008019640326499,0.0418149424225091,0.0014787607360631,7.87395983934e-05,-6.76280033076e-05
5.797110595703125,0.0005421623189933,-0.0095889720024541,0.0542348635345697,0.0003804861335083,-0.0009289644658565,0.000159639341291
5.80708935546875,-0.0045766602657735,-0.0018431984475813,0.0546861144334077,-6.66585983708e-05,-0.0018136659637093,-0.0005828499561175
5.817068603515625,-0.0007116554006934,0.0072212747567333,0.0509469279050827,-0.0010312485974282,0.0003189826384186,-0.0002503969008103
5.827047607421875,0.007831844403129,-0.0042696766758337,0.0472065723329782,0.0016486903186887,0.0003930190578103,-0.0018360430840402
5.837026611328125,0.0076678860130719,-0.0023279862898401,0.0552870029360055,-0.0007432996062561,0.0001796754077076,0.0017609865171834
5.847005615234375,0.0015392105323262,-0.0084305592149496,0.0490063152313232,-0.0003906970378011,-0.0014419239014387,0.0021239754278212
5.856984619140625,0.0096417251029983,-0.0079623571813106,0.0514040240228176,7.0710782893e-05,0.0005033081397414,-0.0015118032461032
5.866963623046875,0.0045293139927089,-0.0050119464104995,0.0525993712872266,0.0012265227269381,-0.001134536229074,-2.5898625608e-06
5.876942626953125,0.0034219555390067,-0.0068826173868961,0.0415273576527833,-0.0021994085982441,-0.0007965816184878,0.000342383456882
5.886921630859375,0.0026158815868198,-8.46460761502e-05,0.0482581272125244,0.0005226082867011,0.0001674825325608,-0.0007606978761032
5.896900634765625,0.0038425738375633,-0.0014096841348335,0.0530447769671678,-0.0001090200967155,-0.0007745865732431,-0.0007631548214703
5.906879638671875,0.0037407208982855,-0.0088707224641926,0.0493055904388427,-0.001706650480628,-0.0008837757632136,-0.0005698093445971
5.916858642578125,0.0051492359893396,-0.0027818310045637,0.0413742129176855,0.0010527876438573,0.000523124821484,6.71509915264e-05
5.926837646484375,0.0061868171424604,-0.0012251030818559,0.0478068763136863,-0.0005072921048849,-0.0019562784582376,-0.0002963705046568
5.936816650390625,0.0037883594322949,-0.0023537235192954,0.0437654919683933,0.0009281594539061,0.0012943753972649,-0.0012980600586161
5.946795654296875,-0.0044079526353627,-0.0003958857160992,0.0416653048187494,-0.0002833125181496,0.0008733291178941,-0.0004929864662699
5.9567744140625,-0.007055873328261,0.0045824324194341,0.0534884290814399,-0.0018527910578995,0.0002849837765097,0.0023202020674943
5.96675341796875,-0.0037153855276294,0.0055601548777893,0.0510913048118352,-0.0028301710262894,0.0020053852349519,-0.0009102122858166
5.976732421875,-0.0050750565082766,-0.0004433598533272,0.0473439349770545,0.001015726593323,0.0017767883837223,3.76844545826e-05
5.98671142578125,0.0042717590350657,-0.0050840069997124,0.048991702184081,0.0004790996899828,-0.0027231546118855,0.0020038962829858
5.9966904296875,0.0190870508510619,-0.0061623585546389,0.0509334839016199,-0.0034165610559284,0.0015751319006085,-0.0031216088682413
6.00666943359375,0.0032193456389941,-0.0104457714948803,0.0449427190542221,-0.0026517012156546,9.84091311693e-05,0.0001298444694839
6.0166484375,0.0070300082346424,-0.0140893521616235,0.0461404044061899,-0.0002437750226818,0.0007374035194516,0.0001144314883276
6.02662744140625,0.0038814993421547,-0.0125980724242515,0.0421001891046762,-0.0004935794859193,0.0004417933523654,-0.0005737293395213
6.0366064453125,-0.0004041968867182,-0.0063206909215077,0.0450906030923128,0.001099516171962,0.0016235569491982,-0.0002109688066411
6.04658544921875,-0.0017967289573512,-0.0021760105985216,0.0527203673183917,0.0001090865116566,-0.0007146978750824,-0.001380895380862
6.056564453125,-0.0046881212836131,0.0018342479561455,0.0398497798293829,-0.0010840549366548,0.0008993232622742,-0.0005637715221382
6.06654345703125,0.0006186068223789,-0.0054440176848322,0.0474777904897928,-0.0016893914435058,0.0004274109378457,-0.0013619208475574
6.0765224609375,-0.0020905608047731,-0.0069150583517737,0.0393915146678686,-0.0014883088879287,-0.000613173469901,-2.05600517801e-05
6.08650146484375,-0.0016017361082136,-0.0049657143822871,0.0437315896987915,-0.0002182474709115,-0.0010089185088872,0.0006987597444094
6.09648046875,0.0017076807007193,-0.0058692208269611,0.0474701917052268,-0.0009937601862475,-2.54334881901e-05,-0.0002222981420345
6.10645947265625,0.0004882949735969,-0.0091987488421611,0.0428331795543432,-0.0002672498230822,-0.0012033497914671,0.0006783829303458
6.1164384765625,-0.0048756066797301,-0.0034136626346968,0.0480728337734937,-0.0001200585393235,0.0003413669764995,0.0001063432573573
6.12641748046875,0.0041406982676126,-0.0083336381791159,0.0473258147984743,0.0023950308095663,0.0004324475303292,0.0004786531790159
6.136396728515625,0.0108931316698901,-0.0044335072017274,0.0539104538857936,0.0005952413193881,0.0001147622242569,0.0008325246744789
6.14637548828125,0.0034361119285225,-0.0111922424806281,0.0458265161514282,0.0002671398688107,0.000933151692152,9.50953399296e-05
6.156354736328125,-0.0021398433065973,-0.0075995882835239,0.0480710802078247,-9.19462181627e-05,-0.0013552363961935,-0.0001056229812093
6.16633349609375,0.0006249086990021,-0.0027735381002537,0.0380476988434791,0.0008398938225582,4.29237261414e-05,-0.0003551611735019
6.176312744140625,-0.0031081220831722,-0.0093918602614663,0.0447802219688892,-0.0019654848147183,-0.0007987068966031,-0.0004771329986397
6.186291259765625,-0.0010914850311353,-0.0009210238350555,0.0453758497744798,-0.0012640082277357,0.0004026442766189,-0.0003088212106376
6.1962705078125,0.0053928537531755,-0.0008345145953819,0.047473698836565,0.0008504233555868,-0.0003182245418429,-0.0014629053184762
6.206249267578125,0.0113564383327029,0.0022235760672949,0.0551081392377614,0.0013404448982328,0.0003198692575097,0.0023305010981857
6.216228515625,0.0062216327275149,-0.0006351743646897,0.047475452402234,0.0005258684977889,0.0002657640725374,4.03830345021e-05
6.226207275390625,-0.0023463987293653,-0.0039328276705928,0.0365507382839918,-0.0025034772697836,0.0028474330902099,0.0010965926339849
6.2361865234375,0.0020679105815477,-0.0031200682492926,0.0450806662201881,-0.0012496982235461,-0.0016489578410983,-0.0005710241384804
6.24616552734375,-0.0004934643390588,-0.0123824203795753,0.0450800816982984,0.0003255615010857,0.0019340589642524,0.0006779984105378
6.25614453125,-0.002172667863965,-0.0056705929823219,0.0456774630695581,-0.0011612481903284,-0.0005658008158206,-0.0004312873643357
6.26612353515625,0.0001035151734016,-0.0003807429458945,0.0467243417739868,-0.0006184958619996,-0.0013298615813255,0.0004323757602833
6.2761025390625,-0.0007813596360385,0.0004620645537972,0.046125206837058,0.0003098400775343,0.0006724661216139,-0.0005521486746147
6.28608154296875,0.0082811408068984,-0.0028722492343746,0.0479243652135133,0.0014640539884567,-0.0016530063003301,0.0011160555295646
6.296060546875,0.0096343272478319,0.0014972893530502,0.0447790529251098,-1.35560985654e-05,0.0025106938555836,-0.0015208084369078
6.30603955078125,0.0119899139306507,-0.0067953409622423,0.0598895282953977,-0.0013438049936667,0.0023327944800257,-0.0022587704006582
6.3160185546875,0.0041437852738425,-0.0009924633697606,0.0576432106733322,-0.0008313016151078,0.0005595749244093,-0.0011100163683295
6.32599755859375,-0.0031413850319571,-0.0063532232179306,0.0501630840510129,0.0003285050624981,-0.0021195653825998,-0.0016077611362561
6.3359765625,0.0013045615262351,-0.0022987784616649,0.0501619150072336,0.0032565495930612,0.0004437621682882,-0.0020223134197294
6.34595556640625,-0.005168780940026,-0.0118365865324623,0.0458224244982004,-0.0013959929347038,0.0006589451804757,-0.0004105683765374
6.3559345703125,-0.004788585983403,-0.00377765537519,0.0519587352961301,4.31986991316e-05,-0.0001142360270023,0.0008153584785759
6.365913330078125,0.0047123972083441,-0.007078742747195,0.0465711970388889,-0.0006612073630094,-0.0011925492435693,0.0012356053339317
6.375892333984375,-0.0095237247465178,-0.005308810465224,0.0565992545783519,-0.0021582448389381,-0.0009926529601216,0.0006092423573136
6.38587255859375,-0.0019847806090489,-0.0028410321122035,0.0540577534019947,0.0026082808617502,-0.0015612374991178,0.0015570614486932
6.3958515625,-0.0012550415623933,-0.0006811141319572,0.0456792166352272,-0.001940946909599,3.24118882417e-05,-0.0013914121082052
6.40583056640625,-0.0027991657318547,-0.009709200848639,0.0531616813451051,-0.0003089617821387,0.0008710408583283,-0.0005884690326638
6.415809326171875,0.0028527773489244,-0.0036711627934128,0.0401432098180055,-0.0004679652047343,0.0002857102081179,0.0004077654448337
6.425788330078125,0.0022408925282768,-0.0062848706894554,0.0543599512189626,-0.0012964745983481,4.9221329391e-05,0.0007854016730561
6.435767333984375,-0.0053873555941507,-0.0107493758176453,0.0485246691942214,0.000124538084492,0.0016719074919819,-0.000113913352834
6.445746337890625,0.0055211380416527,-0.0116807383836247,0.0449351202696561,-4.91000828333e-05,0.0001853313297033,0.0018778648227453
6.455725341796875,0.0085900423592887,-0.006708941320423,0.0432914447158575,-0.0016067919787019,0.0008085118606686,0.0001708632917143
6.465704345703125,-0.0052611353985965,-0.0095666140401735,0.0446358450621366,-0.0004227505414746,-0.0011760760098695,0.0020420004148036
6.475683349609375,-0.0025817783878184,-0.0033719058522023,0.0452384871304035,-0.0004413200076669,-0.0020792987197637,-0.0005468149902299
6.485662353515625,0.0150709836101159,-0.0001489434840157,0.0503285037457942,0.0002055617514997,-0.0012151030823588,0.0015067484928295
6.495641357421875,0.0032952604194171,0.001368274412211,0.0491302338719367,-0.0012612916762009,0.0008859308436512,-0.0010728928027674
6.505620361328125,-0.0065192457009106,-0.0048071993523277,0.0444885455459356,0.000421027187258,-0.0011412678286433,0.0011569720227271
6.515599365234375,0.0050835503419861,-0.0059134252948686,0.0543652119159698,-0.000296218204312,-0.0007944097742438,0.0003183495718985
6.525578369140625,0.0020829620202071,0.0001456920810043,0.0434463430166244,0.0011030066525563,0.0016945805400609,-0.0005610262160189
6.535557373046875,0.0023453758160583,-0.0016583799325861,0.0525730678021907,-0.0014005684060975,-0.0017799427732825,0.0008371559670194
6.545536376953125,0.0017755400388501,-0.0071076583144254,0.0426993240416049,0.0036847377195954,0.0004334105178713,0.0017639360157772
6.555515380859375,0.0036409503182396,-0.0101328696208074,0.0455465301662683,-0.0028581372462213,0.0004696678370237,-0.0024250294081866
6.56549462890625,0.0084879519579932,-0.0046875915606506,0.046593408870697,0.0012170316185802,-0.0011452734470367,0.0022386983036994
6.575473388671875,0.0090352471098303,0.0007251907357014,0.0422533338397741,-0.0012022643350064,0.0028756279498338,0.0036633126437664
6.58545263671875,0.004814231881313,-0.0079338069402612,0.0479389782607555,-0.0007396732689812,-0.0006551910191774,-0.0019991006702184
6.595431396484375,-4.41314026713e-05,-0.0024771855021826,0.0474929880589246,-0.0002660882892087,-2.86437571048e-05,0.0019566097762435
6.60541064453125,0.0017896781620569,-0.001534972748626,0.0401624990403652,0.0007949151331558,-0.0009333193302154,-0.0022101721260696
6.615389404296875,-0.0025235271282494,-0.0050470177238807,0.052884033447504,-8.21877620182e-05,-0.0012438865378499,0.0022791810333728
6.62536865234375,0.0078088653863407,0.0041030148720368,0.0501934791892766,0.0013665718724951,0.0002208519726991,-0.0001517523051006
6.635347412109375,0.0055840472100302,-7.79058081097e-05,0.0558832152634859,0.0036575030535459,0.000504464842379,-0.0003136343439109
6.64532666015625,9.46742798201e-05,0.0014394034196622,0.0555886162310838,0.0012958120787516,-0.0004894267767667,-0.0006854116218164
6.655305419921875,-0.0045669973882846,-0.0005813435519114,0.0475087701499462,0.0011260127648711,0.0001041088253259,0.0001442788052372
6.665284423828125,-0.0032957718760706,-0.0040330366420559,0.0509486814707517,-0.0009645686950534,0.0005504544824361,-0.0008293729042634
6.67526318359375,-0.0071252853026613,-0.0031554866225458,0.0518476761370897,0.0043651526793837,-0.0016917241737246,-0.0003840128774754
6.685242431640625,-0.0056065513027831,0.0022443448606878,0.0494604887396097,0.0017051878385245,0.000171422958374,-0.0006130447145551
6.69522119140625,0.0024376389430835,-0.0016523337842896,0.0497550877720117,0.0030793256592005,-0.0006310744211077,0.0016876289155334
6.705200439453125,0.0097575700350105,-0.0029855003505013,0.0503536381870508,0.0002145631005987,-0.0010539852082729,-0.0013635547365993
6.715179443359375,0.0049294740251265,0.0052007104482501,0.0502022470176219,-0.0004600541433319,0.0023394199088215,0.0012237668270245
6.725158447265625,0.0081738262412138,-0.0032672216350212,0.0594797784507274,-0.0017178651178255,-0.0023104595020413,0.0002775457105599
6.735137451171875,0.0044331053429283,-0.0073554042641073,0.0545411530047655,0.0003037195419892,-0.0010379208251833,-0.000416350463638
6.745116455078125,0.0032982378277927,-0.0089760825348086,0.0448164623260498,0.0005854819901287,1.7974525690078738e-07,-0.001015295390971
6.755095458984375,-0.0052761503046378,-0.0077565141445957,0.0367354472011327,0.0018390797777101,0.000871947966516,-0.0020669321529567
6.765074462890625,0.0020195231288671,0.0047570766002871,0.0427250430047512,-0.0003433808451518,0.0007529044523835,-0.002165202749893
6.775053466796875,-0.0011290770951658,0.0003658011050894,0.0533510664373636,0.0005748579278588,0.0014570606872439,0.0009428459452465
6.785032470703125,0.0080364635971374,-0.0064688306879252,0.0542506456255912,-0.0026496974751353,5.99669292569e-05,-0.0031661454122513
6.795011474609375,0.0003552979773841,-0.0090333474136888,0.0509580338209867,-0.0010282050352543,-0.0011080494150519,-0.0018830280750989
6.804990478515625,-0.0043069399463012,-0.0017923815757967,0.0452694667905569,0.0009390719933435,0.0006264671683311,-0.0012364126741886
6.814969482421875,-0.0024429361727088,0.0075582150935195,0.0356920756280422,0.0001100797671824,0.0015925848856568,-0.0009109819075092
6.824948486328125,0.0081439242932945,-0.000685205785185,0.0479606055706739,0.0014605686301365,0.0017984472215175,-0.0004657013632822
6.834927490234375,-0.0011597827606834,-0.003475421025604,0.0454132591754198,-0.0003401322173886,0.0019543394446372,-0.0020564326550811
6.844906494140625,-0.0043464499727822,-0.0032118929849006,0.0428676663458347,-0.0002037783851847,0.0005463268607854,-0.0023448530118912
6.854885498046875,0.0051259099126793,0.0081303889582864,0.0463064086228609,-0.0001947779674082,0.0002867244184017,-0.0017214268445968
6.864864501953125,-0.0006544087881222,0.0008053615661337,0.0467570749998092,-0.0008190229418687,-0.0013481900095939,-0.0001584176206961
6.874843505859375,0.0016286789140664,-0.0004157411940395,0.0382283161073923,-0.0017890979070216,-0.00093390699476,0.0003924045013263
6.884822509765625,-0.0028966164906509,0.0002896305963397,0.0461608626723289,-0.0004958668723702,-0.0009243190288543,-0.0003026805352419
6.894801513671875,0.0036023353409022,-0.0053709707149304,0.0490033926218748,-0.0010474359150975,-5.13009727001e-05,-0.0019206501310691
6.9047802734375,0.0108326336543075,-0.0030975641565397,0.0376297656923532,0.0011270352406427,0.0004565641283988,0.0022618444636464
6.91475927734375,0.0067433367803692,-0.0033616219202056,0.0370341378867626,-0.0006299377419054,-0.0003933953121304,0.0003135976730845
6.92473828125,0.0062628780533559,0.002867536526639,0.0448135397166013,-0.0033183987252414,0.000370399095118,0.0015008349437266
6.93471728515625,0.0031332565244287,-0.0102587975554168,0.0364355874717235,-0.0015266202390193,0.0005261534824967,-0.0026667229831218
6.9446962890625,0.0082521887070499,-0.0135522678765468,0.0504997686594724,-0.0007151550962589,-0.00017851870507,-0.0003897204296663
6.95467529296875,0.002775017671287,-0.0115508649262599,0.0490028080999851,-0.0001828456297516,-0.0003042789176106,0.0005574220558628
6.964654296875,0.014340459112171,0.0025015892910771,0.0482522819936275,-0.0012054995168,0.0008408799767494,0.0018186951056122
6.97463330078125,-0.000834551128,-0.0020889899021945,0.0555839400559663,-0.0003384131123311,-0.000189421698451,-1.78808259079e-05
6.9846123046875,0.001390102651529,0.0020982143882662,0.0430137968182563,-0.0001410729018971,-0.0008533475920557,-0.0005965857417322
6.99459130859375,-0.0039766668123193,-0.0004427935977466,0.0440618445664644,-0.0002698890166357,0.0015477640554308,-0.0003273892216384
7.0045703125,-0.0092476112188771,-0.0008201572764664,0.0424134928375482,-0.0021679238416254,-0.0018855826929211,0.0004156327049713
7.01454931640625,0.001056705978699,0.009434365962632,0.0476490554034709,2.88265291601e-05,0.0004657423123717,-0.0001413115533068
7.024528564453125,-0.0015773323193192,0.0009115618869662,0.0576765284210443,-0.00288573699072,-0.0002309409901499,-0.0002691432891879
7.03450732421875,0.0056593592022545,-0.0086140260230749,0.0428618211269378,0.0024009603075683,-0.0002251425758004,-0.0016579190269112
7.044486572265625,0.0077007288367487,-0.0093546517899259,0.0388204367816448,-0.000232107064221,0.0017855437472462,-0.0004333975375629
7.05446533203125,0.0110357367446646,-0.0076529441722668,0.0314870251536369,0.0026076114736497,0.0008686669170856,-9.3481939984e-06
7.064444580078125,0.0037550964835099,-0.0075775043158791,0.041361937958002,9.19895246624e-05,0.0005504190921783,-0.0010040388442575
7.07442333984375,-0.004881488431245,-0.0062884508860297,0.0470469978570938,0.0011021504178643,0.0019884258508682,-0.0004889119300059
7.084402587890625,-0.0010411430833861,-0.0072108264279551,0.0489911176621913,0.0006084003252908,0.0012328866869211,0.0005095071392133
7.09438134765625,-0.0003936937590129,-0.0033313363797962,0.0470393990725278,-0.0022118454799056,0.0006622727960348,-0.0008391723386012
7.104360595703125,0.0004405833743512,-0.0102001444370485,0.0453898782998323,-0.0003774602664634,0.0006020851433277,0.0012721817474812
7.11433935546875,0.0081882566253654,-0.0083058368567377,0.0555687424868345,0.0026291045360267,2.0345672965e-05,-0.0018944289768114
7.124318603515625,-0.0005524827836081,-0.0029936653906479,0.0516781647890806,-0.0026093330234289,0.0008011851459741,-0.0001788206718629
7.134297607421875,0.0071835913611575,0.0052842422795481,0.0458358685016632,-0.0008107321918942,0.0014815693721175,0.0023629814386367
7.144276611328125,0.0038035387351177,0.0055914267988875,0.0441881012946367,0.0012699955841526,0.0007047252729535,2.09977006306e-05
7.15425537109375,-0.0050740518612787,0.0062497993760742,0.0491296493500471,-0.0007046525133773,0.0016109785065054,0.0012396690435707
7.164234375,0.0025017719541676,-0.0025967019623145,0.0492775333881378,-0.0007885420927777,0.0013675652444362,-0.0004719446296803
7.17421337890625,-0.0013880568249151,-0.0027668526311405,0.0429921695083379,0.0014804982347413,0.000461964868009,0.0036313270684331
7.1841923828125,0.0027456089137122,0.0030006613870151,0.0434422513633966,-0.000516606203746,-0.0030765766277909,0.0003897272981703
7.19417138671875,0.0085647252549417,0.0047177127042785,0.0335667540371418,-0.0011824063258245,0.0013226112350821,-0.0006976617733016
7.204150390625,0.012714337481372,0.0030752244605682,0.0465846410423517,-0.0008833333849906,0.0004070168361067,0.000726596743334
7.21412939453125,0.0134120191556401,-0.0035152598456479,0.0479302104324102,0.0014916273066774,-0.0006680684164166,-0.0015012976946309
7.2241083984375,-0.0021283903308212,-0.0012671886579133,0.0480804325580596,-0.0006013509118929,-0.0006574159488081,-0.0001470802817493
7.234087158203125,0.0020491510821506,-0.0093468155433423,0.0512257448464632,0.0009261971572414,-0.0007136883214116,-0.0009799546096473
7.244066162109375,0.0080576525156386,-0.0085767444862984,0.0371609791368246,0.0021294131875038,0.000847190618515,0.0008975739474408
7.25404638671875,0.0030388014403171,-0.0007064860352315,0.0332733240485191,0.0004638490499928,0.0004796767607331,-0.0001664997689658
7.264025390625,-0.0010430062469094,-0.0005449753305874,0.0464408486574888,-0.0014408438000828,0.0008434643968939,2.44488910539e-05
7.274004150390625,0.0032726284625008,-0.0028656733631156,0.0429945075958967,-0.0012355893850326,8.64397734403e-05,0.0009477671119384
7.283983154296875,-0.0009926460328511,-0.0027574272156693,0.051222237715125,0.0010749690700322,0.000249957665801,3.59007099177e-05
7.293962158203125,0.0007650478220544,0.001934913585335,0.0449374583572149,-0.0004034744342789,0.0008164597675204,-0.0008045894210226
7.303941162109375,0.0062086819143965,0.0012472601147368,0.0417974067658185,-0.0010016204323619,-0.0001659812405705,-0.0007366788340732
7.313920166015625,0.0007430369196459,-0.0074803458180278,0.0534662172496318,0.0001875675516203,-6.66864216327e-05,0.0014716158621013
7.323899169921875,0.0052448418509215,-0.0101802706927992,0.0399964948236942,-0.0019501517526805,0.0001133438199758,-0.0005859424127265
7.333878173828125,-0.0030755532541312,-0.0026267683070152,0.0519675031244754,0.000201150891371,-0.0015001650899648,0.0007846630178391
7.343857177734375,-0.0033177827784791,-0.0020717465064488,0.0512198996275663,0.0003010194050148,-0.001088973134756,-0.0004989806329831
7.35383642578125,-0.0035698761097155,0.0034933950737118,0.0408937359243631,0.0007984192343428,-0.0006209686398506,-0.0003930865204893
7.363815185546875,-0.0051421486614271,-0.0017048676891252,0.0380471143215894,-0.0001800261088646,0.0008030235767364,-0.0007933595916256
7.37379443359375,0.0015877623817883,-0.0008605075531639,0.0414876101642847,0.0005143494345247,-0.0010666837915778,0.0001130450400523
7.383773193359375,0.0130896188008598,-0.0079151387724094,0.047025955069065,0.0023820241913199,-0.0019985241815447,-0.0027410648763179
7.39375244140625,0.008901702124346,-0.0012295965938828,0.0491232196092605,0.0024258049670606,0.0009472770616412,-9.48465312831e-05
7.403731201171875,0.0004770063946023,-0.0008504245505668,0.039845688176155,0.0017970325425267,0.0002620462328195,-0.0033976989798247
7.41371044921875,0.0070511606205254,0.0014840645452961,0.04987023858428,-0.0002458750386722,0.0008663218468427,-0.0030012272763997
7.423689208984375,0.0056743923746049,0.0024624993897043,0.0501677602261304,-0.0018672074656933,-0.0003190515562891,-0.0010515270987525
7.43366845703125,0.0031672866581939,-0.0001725618216209,0.0513636920124292,0.0026415083557367,0.0030286069959402,-0.0021113692782819
7.443647216796875,0.0018862156054005,-0.0093842797432094,0.044333062723279,0.0015179206384345,-0.0003701196983456,7.93469662312e-05
7.45362646484375,0.0080291753398254,-0.0084700327088125,0.0506178420811891,-0.0027797187212854,-0.0007527386769652,0.0024091850500553
7.463605224609375,0.0020662483474239,0.0018492263295687,0.0459796608865261,-0.0008585142786614,-0.0016259886324405,-0.0008467956795357
7.47358447265625,-0.0033364326800219,-0.0041687370520085,0.0431388845026493,0.0016817186260595,0.0003052977845072,-0.0001297427370445
7.483563232421875,-0.0013817732146009,0.0080330843299627,0.0467296024709939,-0.0004416197771206,0.0019138464704155,0.0012295347405597
7.49354248046875,0.0090392656978219,0.0003122260206378,0.0594458761811256,-0.0021824780851602,0.0001838095486164,0.002565731992945
7.503521240234375,0.003917666634079,0.0026766535970382,0.0548059414207935,-0.0013790022348985,0.0013220449909567,-0.0003179386840201
7.51350048828125,0.0040614590189419,-0.0006326718803495,0.0437321742206811,-0.0002757451147772,-1.54506415128e-05,-0.0003503256884869
7.52347900390625,-0.0043709450932219,-0.0066031063257716,0.0595955137848854,0.0036518848501145,0.0003826916217803,-0.0007902798824943
7.533458251953125,0.0041571744783781,0.0001820055034011,0.0465776267796754,-0.0001277396222576,-8.0745667219e-06,-0.0005311093991622
7.54343701171875,0.0112514801208861,0.0044395716163329,0.0528588990062475,-0.0021778410300612,0.0007634432986378,6.94334376021e-05
7.553416259765625,0.0087621475231833,-0.0015516681551001,0.0477723895221948,0.0026117851957678,-0.000267144292593,0.0002401337842456
7.56339501953125,-0.0005221241779625,-0.0066159475410357,0.0492728572130203,-0.0001922571100294,0.0002529714256525,0.0003029844083357
7.573374267578125,0.003245667390339,-0.0074983015998266,0.0495692098110914,0.0018604269716888,0.0007951697334647,-0.0007534513715654
7.583353271484375,0.0009930296253412,-0.0027950192796997,0.0512163924962282,-0.0008735741721466,-0.0014565335586667,-0.0013803595211356
7.593332275390625,-0.0030086254977621,-0.0057958633298054,0.0429869088113307,0.0002422053948976,-0.0004201550036668,-8.03967341198e-05
7.603311279296875,-0.0106627752464264,-0.0054331857635639,0.0425362424343824,-0.0002997478586621,-0.0010164370760321,-0.0001022346550598
7.613290283203125,-0.0061408225762657,-0.0055794988990761,0.0422340446174144,-0.0002056658850051,0.0010425569489598,-0.0013255146332085
7.623269287109375,-0.0079703395583666,-0.0085897135657258,0.0402875867247581,-0.0002839628141373,0.0003093890845775,0.0019126229453831
7.633248291015625,-0.0006452573672868,0.0035307496757246,0.0477694669127464,-0.0001709099160507,-0.0015035169199109,-0.0009074530098587
7.643227294921875,-0.0047675066627562,-0.0066437305971048,0.0458259316295385,0.0002453422057442,0.0001870580017566,-0.0012094555422663
7.653206298828125,-0.0023661263431422,-0.0067195175133645,0.0483709399372339,0.0012117805890738,0.0012357849627733,0.0015970696695148
7.663185302734375,0.0087627503113821,0.0021749146199785,0.0308621712535619,-3.43124847859e-05,0.0018749441951513,-0.0022895475849509
7.673164306640625,-0.0021533603752963,-0.0016188333734869,0.0536065025031566,-0.0032057741191238,-0.0003085797652602,-0.0003009655047208
7.683143310546875,-0.0022431210179813,-0.0018602226476185,0.0589934562385082,0.0010992258321493,0.0017220806330442,0.0002122256555594
7.693122314453125,0.0027525318448431,-0.004078812012542,0.0407359150141477,0.0014562353026121,0.0015770746394991,-0.0012528671650215
7.703101318359375,0.00010123188477,0.0045691345464438,0.0429834016799926,0.0008793946471996,-0.0009039267897605,-0.0010539289796724
7.713080322265625,-0.0012340535732917,0.0015713409699499,0.0473293219298124,0.0035530901513993,-4.89763915538e-05,0.0015634417068213
7.723059326171875,0.0060853295293636,-0.0006863200300373,0.0492763643443584,0.0001575598726049,0.0003132140263915,0.0001865875092335
7.733038330078125,0.0024756145996041,-0.0107142497053369,0.0483785387217998,8.76628328114e-05,-0.0005226517096161,0.0011815895559266
7.743017333984375,-0.0018570077772252,-0.0051071138806641,0.0476291816592216,0.0014946107985451,-0.0003213165327906,0.0003064747725147
7.752996337890625,0.0008348799215629,0.0004972089324146,0.0461374817967414,7.9897174146e-05,-0.0016279993578791,0.0009728523436933
7.762975341796875,0.0086675463085994,-0.0009095891255885,0.0488309586644172,-0.0009249135036952,9.34684649109e-05,0.0023563646245747
7.7729541015625,0.0026306224982254,0.0022472492038272,0.042993923074007,0.0010814715642482,-0.0012639518827199,-0.0005380935035645
7.78293310546875,-0.0031284890177659,0.0067148048056289,0.0435971496641635,-0.0001803342020139,-0.0017076348885893,-0.0006640610517933
7.792912109375,0.0024873233037069,-0.0076981715534813,0.0528758501410484,-0.0035793883726,0.0007261708378791,0.0005340170464478
7.80289111328125,0.0022675796058028,-0.0055105253160931,0.0482347463369369,0.0002062950516119,0.0016281837597489,0.0024696025066077
7.8128701171875,0.0037273682263679,-0.0089199501670897,0.045839960154891,-0.0003523273044265,-0.0018941247835755,-0.0010479141492396
7.82284912109375,0.0118198911259882,-0.0057744917482137,0.0515267736196517,0.0003587367245927,-0.0004237927496433,-0.0003605522797442
7.832828125,0.0041013709042221,-0.003478562830761,0.0483867220282554,0.0015680303331464,-7.0933252573e-05,2.34304679906e-05
7.84280712890625,0.0056002311598509,-0.0001313347620889,0.0467418774306774,-0.0014088512398302,-0.0015085078775882,-0.0008365042158402
7.8527861328125,-0.0035081542514264,-0.0107267803933471,0.0473410123676061,0.0013513452140614,-0.0001610489562153,-0.0002577701816335
7.86276513671875,-0.0033071335203014,-0.0087074216612614,0.0409124406248331,-0.0003959548776037,-0.0015480229631066,0.0009465112234465
7.872744140625,-0.0016532105671241,-0.005025646142289,0.0504886627435684,-0.0004572662874124,0.0015412447974085,0.0008332965080626
7.88272314453125,0.0025578860555775,0.00037292496562,0.0410597401410341,0.001173653639853,0.0007598735392093,-0.0014322546776384
7.892702392578125,0.0017183847578242,0.0028055954726412,0.0425543626129627,-0.0003427055198699,-7.44331628084e-05,-0.0017495185602456
7.90268115234375,0.003427946888376,0.0037614166264422,0.0451005399644374,0.0001483813975937,-0.0015615420415997,-0.0022912055719643
7.912661376953125,0.0014117116951383,0.0056077751454897,0.0564735823720693,0.0008840746013447,-0.0005389656871557,0.0003666150441858
7.92264013671875,0.012570161504019,0.0005828048566356,0.0392646734178066,0.0025506808888167,0.0016011511906981,0.0001394473947584
7.932619384765625,0.0061125280635431,-0.0109330435551702,0.0368698872357606,0.001119301887229,5.87180256843e-05,-2.60194210568e-05
7.94259814453125,0.0097731146640144,-0.0053453796159476,0.0458504815489053,8.7593216449e-05,-0.0005639288574457,-0.0014838337665423
7.952577392578125,0.0044376901865005,-0.0067298379779793,0.0449561630576849,0.0012533145491033,-0.0007178476080298,-0.0011316848685964
7.96255615234375,0.0006909779388457,-0.006393902288191,0.0470516740322113,0.0032179283443838,-0.000223564915359,0.0006499699084088
7.972535400390625,0.0022531126890331,-0.0003411233215592,0.0337327582538127,0.0002964428858831,0.0018645320087671,-0.0006151510169729
7.98251416015625,-0.0014146891035139,-0.0050134442478418,0.0537818590700626,-0.0031925644725561,0.0014509437605738,0.0009795499499887
7.992493408203125,0.0023018472015857,-0.0011680208660662,0.0495908371210098,-1.27584207803e-05,-6.27990812063e-05,-0.000478800968267
8.00247216796875,0.0069844520598649,0.002260364413727,0.0464490319639444,-0.000799988862127,-0.0010249996557831,0.000560364453122
8.012451416015624,0.0086266297763213,0.0034108678894117,0.0569230797052383,-0.0011603534221649,-0.0021860022097826,0.0015812669880688
8.02243017578125,0.0110574005872011,0.004032360788621,0.0449538249701261,-0.0018714173929765,-0.0011958396062254,-0.0002065131266135
8.032409423828126,-0.0022324717598035,0.0059597851872444,0.0463011479258537,-0.0011146061588078,-0.0004065427929162,0.0003604039375204
8.04238818359375,0.0018440021651796,-0.0050338842476718,0.0536322214663028,0.0010039384942501,0.0017357040196657,-0.0010824967175722
8.052367431640626,-0.0011399820816703,-0.0046117133128456,0.0450987863987684,0.0006437451811507,0.0012121563777327,0.0001342048635706
8.062345947265625,0.0009737404029816,-0.0087143445923924,0.0433025506317615,-0.0010934347519651,-0.0007889429107308,-0.0007217351230792
8.0723251953125,-0.0066777241982519,-0.0062662390542216,0.0572170942157506,-0.0031428537331521,0.0008217012509703,0.0002743841614574
8.082303955078125,0.0020438538525253,-0.000102273064386,0.0389537077724933,-0.0026107542216777,0.0008731000125408,0.0009385765879414
8.092283203125,0.0136857945957221,0.0005735438379459,0.0455330861628055,0.0004387686494737,0.0018003489822149,-0.0008008501608856
8.102261962890625,0.0049780441408976,0.0037962322114966,0.0540606760114431,0.0003902991302311,-0.000258008018136,0.0013003839412704
8.1122412109375,-0.0045678011058829,-0.0037269481012597,0.03685235157907,0.0003605551319196,0.0019310303032398,0.000184386735782
8.12222021484375,-0.0076666073714382,-0.0041246239156462,0.0470271241128444,-0.0035332527477294,-0.0020615812391042,0.0008973149233497
8.13219921875,-0.0039418329609557,0.009593812574353,0.0516682279169559,0.0037430201191455,-0.0001215962693095,-0.0003892589593306
8.14217822265625,0.0057231816860847,-0.0006602905396372,0.0456821392446756,-0.0019897005986422,-0.0008270675316452,-0.001011905958876
8.1521572265625,0.0019029475444927,-0.0097223160585388,0.0420914212763309,0.0003231730661354,-0.0011995648965239,-0.0023032047320157
8.16213623046875,0.0036338081914,-0.007904946171958,0.042398879790306,0.001635845284909,-0.0031588524580001,-0.0003849297354463
8.172115234375,0.0101536566805094,-0.0075869662639684,0.0464443557888269,0.0020850114524364,-0.0006551370024681,0.0003023670578841
8.18209423828125,0.0029647132907994,-0.0032002025471068,0.0501794506639242,-0.0015222404617816,0.0029995189979672,-0.001748799579218
8.192072265625,0.0060451984483748,-0.0084488803229294,0.0489841033995151,-0.0015424934681504,-0.0016516577452421,-0.0004619587271008
8.202051513671876,-0.0038306094051338,0.0020718561043031,0.0545218637824058,0.0005289132823236,-0.0020332895219326,0.0003814644005615
8.2120302734375,-0.000703216365911,-0.0011376805267296,0.0501806197077035,-0.001044780947268,0.0005142735317349,0.0014633634127676
8.222009521484376,-0.0033278657810762,0.0002149761912412,0.0356640185773372,0.0008798855124041,0.0004804516211152,-0.0021044735331088
8.23198828125,-0.0062150568562559,0.0001660042166709,0.0507756629914045,-0.0007180882967077,0.0032640835270285,-0.000625928165391
8.241967529296875,0.0062212674013338,-0.000520571541693,0.0506242718219757,0.0036801220849156,-0.0015210844576358,-0.0012706795241683
8.2519462890625,0.0029778467670083,-0.005793981899973,0.0560141481667757,0.0022311424836516,0.0006009442731738,0.0003676002088468
8.261925537109375,0.0094256346669048,0.002154657283239,0.0515256045758724,-0.0012794364010915,-0.0009623309597373,-0.0006537220906466
8.271904296875,0.0034277459589764,-0.004091982021369,0.0491319874376058,0.001418549218215,-0.0002583982422947,0.0014559535775333
8.281883544921875,-0.0015607647770084,-0.0035812560202553,0.0504752187401056,-0.0002640358870849,0.0002404125407338,0.0022759409621357
8.2918623046875,0.006154778036382,-0.0044061990696936,0.0506242718219757,0.0010844273492693,-0.000190595164895,0.0004186423611827
8.301841552734375,0.0065408182119019,-0.0021312581413425,0.0417985758095979,-0.0001107995049096,-0.0017703827470541,-0.0022224145941436
8.3118203125,6.76766750402e-05,0.0056492579333484,0.0416512762933969,-0.0002505918964743,0.0001598186790943,-0.0004403485509101
8.321799560546875,0.0017070596462115,-0.0079723488523624,0.0392570746332407,-0.0004769605584442,-0.0005312720313668,-3.44828222296e-05
8.3317783203125,0.0005818550085648,0.0003436988711357,0.0403039533376693,0.000461786694359,0.0019285082817077,-0.0012158281169831
8.341757568359375,0.005435980508849,0.0057271820077672,0.0447913278847932,-0.0001387561205774,-0.0001841774210333,0.0001639556721784
8.351736328125,0.0028327392078936,-0.0003083535631187,0.0474883118838071,0.0012548880185931,-0.0031606592237949,-0.0003024945035576
8.361715576171875,-0.0026392259297892,-0.0028069654458202,0.0433037196755409,0.0012391754426062,0.0002726884558796,-0.0005597558338195
8.3716943359375,0.0044587147082202,-0.005500460579805,0.0486918424546718,0.0006533705163747,0.0014943247660994,-0.0006752137560397
8.381673583984375,-0.0027486411210149,-0.0053068742364645,0.0443529364675283,-0.0014204329345375,-0.0002223495393991,0.0001224029983859
8.391652099609376,-0.0007154913255944,0.0019495266325771,0.0479413163483142,0.0005615135305561,-0.0005644187331199,-0.0003266596468165
8.40163134765625,0.0010595920555293,-1.99102768674e-05,0.0440524922162294,-0.0011865854030475,0.0019413493573665,0.0002179567818529
8.411610107421875,0.0009639131287112,-0.0065584086675196,0.0492880547821521,-0.000688080326654,0.0001921085640788,-9.17176075745e-05
8.42158935546875,-0.0016371544814668,-0.001263279667776,0.0341717341929674,0.0031223704572767,0.0028824340552091,-0.000178802962182
8.431568115234375,0.0013719642066396,0.00049768385645,0.0401566538214683,-0.0007160527748055,0.0003542667254805,-0.0004705358878709
8.44154736328125,-0.0011758571126498,-0.0083732030045241,0.0456920761168003,-0.0020116807427257,-4.7273933887e-06,-0.0003301873221062
8.451526123046875,-0.002073883664608,-0.0088224994082935,0.0404524218976497,-0.0001964707626029,-9.86196100711e-05,-0.0016398415900766
8.46150537109375,0.0066282772996462,0.0003941686830483,0.0468885924249887,0.0024885283783078,-0.0003968942910432,-0.0003625896060839
8.471484130859375,-0.0005465279668569,-0.0027882242127321,0.0459901822805404,-0.0032625324092805,0.0015773391351103,-0.0015215430175885
8.48146337890625,-0.0073945124317891,-0.0002560388539917,0.042249826708436,0.000742329226341,0.0008638789877295,-0.0023250186350196
8.491443359375,-0.0053310222970321,-0.0027029570820741,0.0557183800905942,0.0018722382374107,0.0018385471776127,0.0016238341340795
8.50142236328125,0.0001555010889656,-0.0075768832613714,0.0467372012555599,-0.0025251731276512,-0.0002696113660931,0.0005471181939356
8.5114013671875,-0.0025619777088053,-0.0031082316810265,0.0537730912417173,0.0009250059956684,0.0014615217223763,0.0001478592748753
8.52138037109375,0.0037028183070011,-0.0026609080386348,0.0477834954380989,-0.0033307252451777,-3.91695648431e-05,-0.000114728405606
8.531359375,0.0005586019971407,0.0057425622399896,0.0458387911111116,0.0024620690383017,-0.0028796810656785,-0.000301408173982
8.54133837890625,0.0036820495136082,-0.0021394231814891,0.0422474886208772,0.00020663801115,-0.0009281169623136,0.0013052769936621
8.5513173828125,-0.0001178724923171,-0.0050377019062638,0.0477817418724298,-0.0025745120365172,0.0012079458683729,0.0025726649910211
8.56129638671875,-0.0115820089831948,0.0044357356914319,0.0527162756651639,-0.0013284189626574,0.0038655139505863,0.0027183399070054
8.571275390625,0.0003301087372004,0.0003875928117893,0.0431342083275318,-6.98926742188e-05,0.0024023065343499,0.0012146449880674
8.58125439453125,0.0015730214703828,-0.005265829840023,0.0482172106802463,-0.0010379516752436,0.0010028146207332,-0.0004303896275814
8.5912333984375,0.0055366461380384,-0.002857161263097,0.0378945541083812,0.0001992342877201,-0.0009909756481647,0.0020094807259738
8.60121240234375,0.007352189393714,0.0006991977779194,0.0586941810309886,0.000548108422663,-0.0005355747416615,0.0016424972563982
8.61119140625,-0.0056042314815334,0.0015921462959609,0.0533048892080783,0.0009950813837349,0.000756112858653,-0.0003704775590449
8.62117041015625,0.003403360436391,0.0027189401024952,0.0468663805931806,0.0010629921453073,0.0010613119229674,-0.0014458619989454
8.6311494140625,0.0045872729913331,-0.0003944609439931,0.0489577999144792,0.0008334704325534,-0.000336529687047,0.0013067243853583
8.64112841796875,0.0065853332070633,-0.0069569429984316,0.0571931288182735,0.0009344042628072,-0.0018982077017426,0.001526701496914
8.651107421875,-0.0042962176228873,-0.0047794710951857,0.046418052303791,0.0012594340369105,0.0006417222321033,0.0002373239403823
8.66108642578125,-0.0059363860453478,-0.0049831769737415,0.0440256042093038,0.0005646154168061,0.000551707111299,0.0004538389039225
8.6710654296875,-0.0050465975987724,-0.0026755941511131,0.0464209749132394,0.0015115323476493,0.0019386764615774,-0.0005407814751379
8.68104443359375,0.002922993040923,-0.0027452435875311,0.0531534980386495,-7.91738275438e-05,0.0008507743477821,0.0012302205432206
8.691023193359374,-0.000577416295465,-0.0040418410030193,0.0468681341588497,-0.0003424792084842,-0.0020090481266379,0.0020920056849718
8.701002197265625,0.0025037447155453,-0.0024075725983828,0.0497130021959543,-0.0021563582122325,-8.9175067842e-05,0.0014014481566846
8.710981201171874,0.0145781220592558,-0.0013552140012383,0.0435772759199142,-0.0012495465343818,-7.7829696238e-05,-0.0008978987461887
8.720960205078125,0.0004116130081936,-0.0080345456346869,0.049411388900876,-0.0003198370104655,0.0019903816282749,-0.0006435668328776
8.730939208984376,-0.0066517860393971,-0.0167318842933513,0.0459691394925117,-0.0008833452593535,-0.0002825232222676,-0.0009655287140049
8.74091845703125,-0.0093271609948016,-0.0044295251463539,0.051955228164792,-4.60474402643e-05,-0.0002790614962577,0.0021048295311629
8.750897216796876,0.0023735059319995,-0.0015808211843483,0.0431277785867452,0.0004293610109016,-0.0014485046267509,0.001151482341811
8.76087646484375,-0.0046365372268483,-0.0027443302720785,0.0456698642849922,-0.0010766566265374,0.0006599193438887,-0.0002240402973257
8.770855224609376,-0.0019282098499126,-0.0009869104118086,0.04925473703444,-0.0012941884342581,-0.000854056328535,-0.0004377109871711
8.78083447265625,-0.0027564225686714,-0.0011107377208769,0.0446148022741079,0.0005066411104053,-8.28048214316e-05,-0.0010092252632603
8.790813232421876,-0.0066944378710351,-0.004551178764645,0.0449164155691862,-0.0001574713387526,-0.0010516215115785,-0.0016640826361253
8.80079248046875,0.0043980522958561,-0.0004625029452145,0.0383335300475358,0.000905129883904,-0.0010023536160588,0.00024220807245
8.810771484375,0.0040664274550043,-0.0104932273657992,0.0380395155370235,0.0010936498874798,0.0005730390548706,-0.0013329793000593
8.82075048828125,-0.0089954265560954,-0.010460932531394,0.0724433049201965,0.0117521528154611,0.0337991677224636,0.0008673244155943
8.8307294921875,-0.0330801943629048,-0.0047933717563748,0.1631745462030172,-0.0005194109398871,0.029330663383007,0.001948932884261
8.84070849609375,0.0345764242700301,-0.0106741003580391,-0.103645667913556,0.0002390573499724,0.0103369988501071,0.0007763431640341
8.8506875,0.0044256161562167,-0.0134023380118422,0.0613771365046501,-0.0021045177709311,-0.0052332822233438,0.0024221572093665
8.86066650390625,0.0268028311264701,-0.00714806339005,-0.040647652208805,-0.005632939748466,-0.018047347664833,0.000791237282101
8.8706455078125,-0.0081844572330825,0.0063387745674699,0.0749035575538873,-0.0001596331712789,-0.0106003601104021,0.0011353223817422
8.88062451171875,-0.0019446495280601,0.0096409579180181,0.0454459924012422,-0.0008584466413594,-0.0081667639315128,0.0006106796790845
8.890603515625,-0.00278055236293,0.0047804209432564,0.0478542225867509,-0.0033550488296896,-0.0068917572498321,-0.0015783456619828
8.90058251953125,-0.0035932204526849,-0.0013396145733073,0.0384381594657897,-0.0034354762174189,-0.0081253331154584,0.0009998605819419
8.9105615234375,-0.0069665328106842,-0.0002345394082367,0.0397965883374214,-0.0005987664917483,-0.0074202697724103,-0.0007702447474002
8.92054052734375,0.0008084303060546,-0.0098057748246006,0.0389127912402153,-0.0008789310231804,-0.0044958526268601,0.001036177505739
8.93051953125,0.0080757909605279,-0.0127267768378369,0.0630085370987653,0.002300773281604,0.0008913036435842,-0.0014073157217353
8.940498291015626,0.0010611446917988,-0.004313789812196,0.046399347603321,-0.0007442852365784,-0.002459218725562,0.0014750234549865
