seconds_elapsed,ax,ay,az,gx,gy,gz
0.08199169921875,-0.0052902701615355,-0.0083259480630047,0.0527618683725595,-0.0021435352973639,-0.0020478190854191,-0.0008275395375676
0.091970947265625,-1.92709560506e-05,-0.0089069445550441,0.0488759668499231,0.0020922222174704,0.0009690104052424,0.002033494412899
0.10194970703125,-0.0104430680811405,-0.0012449585597962,0.0427425786614418,0.0015215415041893,-0.0042379600927233,-0.0003723555710166
0.111928955078125,0.0076600497664883,0.0087288845743983,0.0466354944467544,0.0011819882784038,-0.0006727864965796,-0.0004208250902593
0.12190771484375,-0.0050961175626143,-0.0042285592141561,0.0375076006174087,0.0014481841353699,-0.0003819447010755,0.0008704705396667
0.131886962890625,-0.0038093474213965,0.0025672384058125,0.0611503420114517,-0.0019361610757187,-0.0002589058130979,-0.0019258486572653
0.14186572265625,0.0055081506959162,-0.0004465381911024,0.0417015451759099,-0.0016839692834764,-0.0018945001065731,0.0022881112527102
0.151844970703125,0.007439520617295,-0.0038572416837327,0.0472357984274625,-0.0010538654169067,0.0003870297223329,0.0001858118339441
0.16182373046875,0.0077187028848566,2.26867558434e-05,0.0500783283770084,-0.0035687512718141,0.0001904889941215,0.0025260227266699
0.171802978515625,0.0090841460191644,0.0009186309485696,0.0379553443849086,-0.001458196202293,0.0011529559269547,0.0015704804100096
0.18178173828125,0.0056281420800834,-0.0117060372216627,0.0523246459990739,0.0013595366617664,-4.5010820031e-06,-0.0018722494132816
0.191760986328125,0.0014936726238578,-0.0090751955277286,0.046485272321105,-0.0019683493301272,0.0003539603203535,-0.0023287150543183
0.20173974609375,0.0006978643373586,0.0047174569759517,0.0436415733277797,0.001188010093756,0.0006820410490036,-0.0014180429279804
0.21171875,-0.0053966348791494,-0.0042270613768137,0.0340688583403825,0.0004622986307367,-0.0015933634713292,-0.0003434574464336
0.221697509765625,-0.0057637328921817,-0.0005868599772453,0.0505319173634052,0.0009061250602826,0.001621214672923,0.0009545166394673
0.2316767578125,-0.0081648392171598,-0.0085807082753628,0.0466401706218719,-0.0016190842725336,-0.0018353024497628,-9.68994136201e-05
0.241655029296875,-0.0146808517813682,-0.0142822626515291,0.0449953260242938,2.9939692467e-06,0.0020398879423737,-0.0011931316694244
0.25163427734375,-0.0100794771994464,-0.0124193548564799,0.043795887106657,-0.0006103320047259,-0.0003207381814718,0.0002457742521073
0.261613037109375,-0.0074503525385633,-0.0014846855998039,0.0418494292140007,0.0005471821641549,-0.0001441007480025,-0.000805880408734
0.27159228515625,0.0065729303832165,-0.0055298145384527,0.0373591320574283,-0.0006805351004004,0.001667114906013,0.0013230505865067
0.281571044921875,0.0052499746837653,0.00213072841838,0.0452910941004753,0.0019781873561441,-0.0004498986527323,-0.0002864849229808
0.29155029296875,-0.0025674941341392,-0.0058093073332682,0.0436474185466766,-0.0018972447142004,-0.0024270294234156,0.000714064692147
0.30152880859375,-0.0048091355810873,-0.0030663287680596,0.0463391418486833,0.0009639849886298,0.001696047373116,-0.0014273377601057
0.311508056640625,0.0017502229345031,-0.0040640345685184,0.0523211388677358,-0.0016914529260247,-0.0011428818106651,0.0009082544711418
0.32148681640625,-0.0023359504005871,-0.0080992814339697,0.0482826771318912,0.003202702384442,0.001413750462234,-0.0011566906468942
0.331466064453125,-0.0054722025997005,-0.0181393034058623,0.0433475588172674,-0.0009198710904456,-0.0015508802607655,0.0028122181538492
0.34144482421875,-0.0126801794834434,-0.0215768766391091,0.0427484238803386,0.0012202714569866,0.0003938116133213,-0.0012662111548706
0.351424072265625,-0.0093577205298468,-0.0054088915725238,0.0503834488034248,0.0010309206554666,-5.35994768142e-05,0.0003039886360056
0.36140283203125,-0.003736738842912,-0.0098035280685871,0.0375204600989818,0.0014675158308818,0.000492419116199,0.0003156250168103
0.371382080078125,0.001047700688336,-0.0020821400362998,0.0473982955127954,0.0020877663046121,0.0001765685155987,0.0002889934112317
0.381361328125,0.0010518836731091,-0.0055644474604167,0.0488964251160621,0.0023173852823674,-0.0019044503569602,0.0003358403046149
0.391340087890625,0.0072694247473962,0.0001245579614304,0.0493500141024589,0.000148240593262,0.0020295716822147,-0.0012508711079135
0.4013193359375,0.0058594118189997,0.0024513934738002,0.0421674091219902,0.0008093193173408,-0.0020795175805687,9.24269043025e-05
0.411298095703125,0.0062221076515503,-0.0001858779609203,0.042915597140789,-0.0002098723780363,-0.0013471478596329,0.0014652864774689
0.42127734375,0.0062128648991696,0.0090197024808265,0.043219548523426,0.0014854152686893,-0.0011495603248476,0.0020223036408424
0.431256103515625,-0.0079305555372498,-0.0058580053132027,0.0396317531645298,0.0011232255492359,-0.0010757911950349,0.001057706773281
0.4412353515625,-0.0060314439176581,-0.0097704295165836,0.0529506689429283,0.0001228539040312,0.0015716068446636,0.0021353180054575
0.451213134765625,-0.0033682343240827,-0.0118958789716474,0.0468137736231088,-0.0014715805882588,0.001696509309113,0.0014255855930969
0.461192138671875,-0.0015800174667499,-0.0071980400116182,0.0429208578377962,-4.23877499997e-05,0.0025982819497585,8.08813492767e-05
0.471171142578125,-0.003045669572521,-0.0032330453707836,0.0492038836300373,0.0013179548550397,0.0009836070239543,0.0024337843060493
0.481150390625,-0.0015327442589215,-0.009786850928422,0.0495043278813362,-0.0013577769277617,-0.0030749095603823,-0.0002770455903373
0.491129150390625,-0.00831427589152,0.0013725304622203,0.0590823035657405,0.0002529028570279,-0.0026469398289918,-0.0004874352889601
0.50110791015625,-0.007212872254569,0.0043125111705623,0.0528004468172788,0.0016643052222207,0.001447525806725,-0.0002348662383155
0.5110869140625,0.008428988312371,0.0002387589256279,0.0445709631323814,-0.0021285689435899,0.0012709582224488,-0.000651650945656
0.521066162109375,-0.0006691679658368,0.0107331188025884,0.0486088403463363,-0.0013080802746117,0.0015266966074705,-0.0004822215996682
0.531044921875,-0.0095191581692546,0.0084049133170396,0.0513029017359018,-0.0014633424580097,-0.0006698789075016,-0.0026681441813707
0.541024169921875,0.0009360204747878,0.0034758411507122,0.0415758729696273,-0.0009623759542591,-0.0001247553154826,-0.000259998749243
0.5510029296875,0.0041771760867908,-0.0023849223751574,0.0381353771269321,-0.0003437236300669,-0.0015450185164809,0.0015067423228174
0.560982177734375,-0.0036950368593446,-0.010266505937837,0.0382838456869125,0.0036874166689813,0.0015006074681878,-0.0013631954789161
0.5709609375,0.0016676774838939,-0.0134939435517415,0.0445692095667123,-0.0008354298188351,-0.0012272680178284,-0.0012995458673685
0.580940185546875,0.0069883062510751,-0.0071652702531777,0.0397778836369514,-0.0032444351818412,0.001481095328927,-0.0001489762944402
0.5909189453125,0.0038933359104208,-0.0025837328828871,0.0348339974939823,0.0009284717962145,8.69305804371e-05,0.0003916453861165
0.600898193359375,-0.0175577771908603,-0.0037169564302079,0.0575789132654666,0.0027047377079725,-0.0007244599983096,0.0024804982822388
0.610876953125,-0.0022025332792662,-0.0049170346686616,0.0447124174296855,0.0010778126306831,-0.0008783908560872,-0.0023203820455819
0.620856201171875,-0.0012748787740245,-0.009057659871038,0.0301893865585327,-0.0004687524633482,0.0036646099761128,1.16807932499e-05
0.630835205078125,-0.0031179493574425,-0.0002980330985039,0.0500911878585815,-0.0016336190747097,-0.0011844737455248,0.0015760215464979
0.640814208984375,-0.0016713672783225,0.0026178178155794,0.0511386510848999,0.0005370145663619,0.0007528001442551,0.0009090601815842
0.650793212890625,-0.0091958627653308,-0.0040097653643228,0.0491916086703538,-0.0023996531963348,-0.0006813127547502,0.0001572498440509
0.660772216796875,0.0051079541308805,-0.0148821647734381,0.0432066890418529,-0.0014186254702508,-7.90329650044e-05,0.0006257288623601
0.670751220703125,-0.0015695691379718,-0.0049469548828899,0.0447018960356712,-0.0009722796385176,1.9278377294e-06,0.0005716667510569
0.680730224609375,0.0006402523986063,-0.0089036931520327,0.0417073903948068,-0.0016731137875467,-0.0009260158985853,0.0023241366725414
0.690709228515625,0.003705905313231,-0.0031918548438698,0.0461982720732688,0.0015937859425321,0.0007336661219596,0.0001906782272271
0.700688232421875,-0.0029609686974436,-0.006921743820887,0.0450058474183082,0.0007351541426032,0.0008656652644276,-5.4975462262e-06
0.710667236328125,-0.0027364026939496,-0.0065041029307059,0.0467991605758666,0.000648867804557,0.0012145387008786,0.0001636131783016
0.720646240234375,0.0053208114302717,-0.008437281216681,0.0550286442607641,-0.0023970056790858,0.0007513565942645,-0.0005692553240805
0.730625244140625,-0.0003678286653943,-0.0076292893020436,0.052932548764348,-0.0016398689476773,-0.0012420192360877,0.0026217442937195
0.740604248046875,-0.0064874440568499,-0.0075358023323118,0.0441062682300806,-0.0014773245202377,-0.0020215567201375,-0.0005000791861675
0.7505830078125,-0.0036053675482049,-0.0026026750453747,0.0441074372738599,-0.0007777120918035,9.3700364232e-06,0.0014264514902606
0.76056201171875,-0.0021004246116615,-0.0025364596750587,0.0514373417705297,0.0010227184975519,0.0007555913180112,0.0008661278989166
0.770541015625,-0.0116722810825333,-0.0005135390127077,0.0454255341351032,-0.0028279460966587,0.0376614108681678,0.0005862296675331
0.78052001953125,-0.0142216733044013,-0.0016063940170221,0.11410101095438,0.004092754330486,-0.040530327707529,0.0007389346137642
0.7904990234375,0.0437266943279653,-0.0132420694162137,-0.1204950959056615,0.0003526110667735,0.0171414911746978,0.0001200159895233
0.80047802734375,-0.0178822599048726,-0.0079506302108988,0.1507937880575657,0.0005183179164305,-0.0155891766771674,-0.0007762653985992
0.81045703125,0.0142144946449436,-0.0011584493201225,-0.0166442608088254,0.0009806426241993,0.0088767521083354,-0.000149889892782
0.82043505859375,-0.0146942044532857,0.0028602482693269,0.0900491042375564,0.001026896177791,-0.005832374561578,-0.0011192205129191
0.8304140625,0.0208125594694167,-0.0028624036937952,0.0276496389478445,0.0009411423234269,0.0036173202097415,-0.0020294890273362
0.84039306640625,0.0101014150366187,0.0044894386400468,0.0572796380579471,0.0018034211825579,-1.25346705317e-05,-0.0008612156962044
0.8503720703125,0.0043827816614881,0.0043421025912277,0.0408189171224832,-0.0012576163280755,0.0008513946086168,0.001555336639285
0.86035107421875,0.003927713104058,-0.0013171104805544,0.0421668246001005,-0.0028326646424829,0.0007363706827163,-3.263245162e-06
0.870330078125,-0.0038268282791599,-0.0050244953648187,0.0482996282666921,0.0008776513859629,0.0004000132903456,0.0004633225616998
0.880309326171875,-0.0097802933234721,-0.0044648521880619,0.0454565137952566,-0.0006727060535922,3.68170440196e-05,-0.0017988372128456
0.8902880859375,-0.0056725109447725,-0.003086914898362,0.036928923946619,-0.0023928417358547,-0.0004617264494299,0.0023860540241003
0.900267333984375,-0.0136459923082962,-0.0096910441374406,0.0457563735246658,0.0006498647853732,0.0004609804600477,0.0008516660891473
0.91024609375,-0.0197443639823235,-0.0075176090884953,0.0432113652169704,-0.0003064763732254,0.0002990597859025,0.0004005265654996
0.920225341796875,-0.0137532886076718,-0.0060590443106368,0.0397691158086061,0.001237427117303,-0.0005647223442792,0.0016963268863037
0.930204345703125,-0.0074964932352304,0.0004812624446116,0.0444102196127176,-0.0014755351003259,-0.0023357244208455,0.0003274620976299
0.940183349609375,0.0108513383547775,-0.0066105772461742,0.0493494295805692,0.001689298194833,0.0023735137656331,0.001573787536472
0.950161865234375,0.0120320543056353,0.0009198913238942,0.0469493827015161,0.0002719638869166,0.001311445608735,0.0002158416900783
0.96014111328125,0.0063947242720983,-0.0030025610831566,0.0482931985259056,5.69702824577e-05,0.0020534507930278,0.0012847537873312
0.9701201171875,0.0071332311470992,0.006288889277447,0.0523334138274192,0.0021435569506138,-0.0027535548433661,0.0002988515188917
0.98009912109375,0.0120280905165709,0.0037088279226794,0.0523380900025367,0.0025770440697669,0.0015308894217014,0.0007569954614154
0.990078125,0.0116394017262384,-0.0007753500203602,0.049196869367361,-0.000545512244571,0.0003684200346469,0.0016161311650648
1.00005712890625,0.0110047753508202,0.003671235858649,0.0575748216122388,-0.0004035186721011,0.0005921749398112,0.0015386000741273
1.0100361328125,0.0016368987531401,0.0001565970675088,0.0403694197893142,0.0018854682566598,-0.0003250176087021,-0.0013993992470204
1.02001513671875,0.0029734263202175,-0.0038991993956267,0.0420142643868923,0.0015793337952345,0.0015002638101577,-0.0003370390040799
1.029994140625,0.0008092340236529,-0.0013014927863143,0.0593716419011354,0.0003609376726672,0.0007252832874655,0.0012049312936142
1.03997314453125,-0.0031158669982105,0.0001966916158795,0.049195115801692,0.0005281969206407,-0.0010204659774899,-0.0003174573357682
1.0499521484375,-0.0029503377055749,-0.0031568383294157,0.0500946949899196,0.0015380677068606,0.0021726638078689,-0.0017020347295328
1.05993115234375,-0.0219797766178846,-0.0080303443836048,0.0512888732105493,5.53699210286e-05,0.0010553486645221,0.0001654588559176
1.06991015625,-0.0055715530546382,0.0005889240701682,0.0480009375810623,-0.0011491779005154,-0.0015508206561207,-0.0010497415205463
1.07988916015625,0.0072948149169795,0.0008024754893034,0.0457546199589967,-0.0017692514229565,-5.08846715092e-05,-0.0006872015073895
1.0898681640625,0.0092581326128914,0.00420842974158,0.0381231021672487,0.0004006922245025,-0.000166199170053,-0.0015372824855148
1.09984716796875,-0.0002748714186251,0.0045643853060901,0.0488952560722827,0.0009908328065648,0.0004223408177495,-0.0009007902117446
1.109826171875,0.0013523644570261,-0.008565876032412,0.0541331567257642,-0.0002781634102575,-0.0001060301437973,1.80003335117e-05
1.11980517578125,0.0080783117111772,-0.0068697761716321,0.0485971499085426,0.001167299109511,-0.000113152898848,0.0011939596151933
1.1297841796875,-0.0042940621984191,-0.0129809707946144,0.0456061513990163,-0.001614905311726,0.0019177738577127,0.0007342981407418
1.13976318359375,-0.0047416415691375,-0.0142567628840915,0.0372246920228004,0.002565675182268,-0.0005247313529253,-0.0005997549160383
1.1497421875,-0.0049077371173538,-0.0157219400658272,0.0457546199589967,-0.0001704564783722,0.0004542460665106,-0.0001824375794967
1.159719970703125,-0.0083755045594647,-0.0092386241948232,0.050692660883069,0.0015302371466532,-0.0016305465251207,0.0004758305731229
1.16969921875,-0.0046351855199784,-0.0010427505185827,0.0482978747010231,0.0005973319057375,-0.0002899104729294,9.4199560408e-05
1.179677978515625,0.0006701543465256,0.0024043759942986,0.0457557890027761,-0.0017766301752999,0.0011967597529292,0.0015984344063326
1.1896572265625,0.0006888225143775,0.0038631417015567,0.0447018960356712,0.0006210136925801,-9.30093228816e-05,0.0006460879230871
1.199635986328125,0.0119968368617817,0.0064935632703825,0.0559253008395433,-0.0008073585340753,-0.0001736273989081,0.0004521693626884
1.209615234375,-0.0017664251506328,0.0045133127059787,0.0523339983493089,-0.0014611645601689,0.0018810015171766,0.000245508068474
1.219593994140625,-0.0053837023323401,-0.0012002974341623,0.0429021531373262,-0.0003939439775422,0.0015111351385712,0.0009506496135145
1.2295732421875,-0.0027974669651128,-0.005432856970001,0.0550227990418672,-0.0020914427004754,1.52373686432e-05,0.000222541304538
1.239552001953125,-0.0022155571576207,-0.0134827280379831,0.042604046973586,-0.0010558997746556,-0.0018828911706805,-0.0005381608498282
1.249531982421875,-0.0010706797051243,-0.0090634320246987,0.0388642759233713,-0.0033970847725868,-0.0002330625429749,-0.0011677320580929
1.259510986328125,0.0041939445585012,-0.0040540976963937,0.0373702379733324,-0.0006738514639437,-0.0006006751209497,-0.0007275065290741
1.269489990234375,0.0036365481377579,-0.0114556426571682,0.048443420651555,0.0003573244903236,0.00022863317281,-0.0023781338240951
1.27946923828125,0.0029012743994593,-0.0041114356405101,0.0427577762305736,-0.001117046107538,0.0006378348916769,-0.0006856282707303
1.289447998046875,0.0041697964979335,-0.0081925309416837,0.0450035093307495,-0.000839544693008,-0.0002585854381322,0.0005407574353739
1.29942724609375,-0.005997779110074,0.0031536965242587,0.0473947883814573,0.0003468843642622,0.0014735143631696,0.0010151634924113
1.309406005859375,-0.0074067325925454,-0.0013542824194766,0.0553267504245042,0.001094700070098,0.0003315508365631,0.0004593617632053
1.31938525390625,0.0016737966974265,0.0034653380230069,0.0400607922315597,-0.0005142925074324,0.0009428430348634,0.0002036672376561
1.329364013671875,0.0025031784599646,0.0098552217232063,0.0399058939307928,-0.0003438502317294,0.0003500236198306,-0.0005689157987944
1.33934326171875,-0.002646441121865,-0.0001198269873857,0.0508300235271453,0.0003024071920663,3.1339004635e-06,0.0001943093375302
1.349322021484375,0.0075331902501173,-0.0027058431589044,0.0440957468360662,-0.0014379685744643,-0.0005342923104763,0.0024497404228895
1.359301025390625,0.0049150253746658,-0.0093704521472565,0.0460410356849431,0.0003473893739283,-0.0013421960175037,-0.0021129476372152
1.369280029296875,0.0104068277239799,-0.0104919121915474,0.0452940167099237,-0.0023248265497386,0.0002506412565708,-0.0013302447041496
1.379259033203125,-0.0034614472991786,-0.0162465301955118,0.0500765748113393,-0.00200777198188,0.0014564953744411,-0.0021958181168884
1.389238037109375,-0.0072228091266937,-0.0111103728834539,0.0339133755177259,0.0005563194863498,0.0007590129971504,-0.0014314907602965
1.399217041015625,-0.007843607906159,-0.0075591649415902,0.0463321275860071,-0.0012424128362908,0.0010224226862192,0.0011790239950641
1.409196044921875,-0.0094041717537678,-0.0006392660179175,0.0512666613787412,-0.0002120358403772,0.0012200297787785,-0.0009557660087011
1.419175048828125,-0.0049719979926012,-0.011812895129621,0.0424339511036872,-8.90881638042e-05,0.0038614682853221,-0.0003778465325012
1.429154052734375,-0.0036139892460778,-0.0093460483583621,0.0452723894000053,-0.0030270875431597,-0.0001274142414331,0.0025399127043783
1.439133056640625,-0.0078019789878278,-0.0077992390414699,0.0347960035711526,-0.0002743277582339,-2.7947127819e-05,-0.0023847019765526
1.449112060546875,0.0011338994007557,-0.0025011508996598,0.052453240814805,0.0015613893046975,-0.0004599122330546,0.0003250644076615
1.459091064453125,-0.0001183839489705,-0.0089042228749953,0.0542483075380325,0.0010049102129414,-0.0003080982714891,0.0020576026290655
1.469069091796875,-0.0071256140962243,-0.0050414464996196,0.0493131892234086,0.0020344881340861,0.0021207043901085,0.0019878277089446
1.479048095703125,-0.0018038528178818,-0.0052596375612542,0.0551484712481498,0.0001965097617357,-0.0002594962716102,-0.0001169553725048
1.489027099609375,-0.004509933438804,-0.0112023802821524,0.0394406145066022,0.0007344683399423,-0.0018792310729622,-0.0021694535389542
1.499006103515625,0.0035053229735232,-0.0101979342136532,0.0493178653985261,-0.0020481715910136,-0.0009058117866516,-6.36475670034e-05
1.508985107421875,-0.0006435038016177,-0.0022547018579207,0.0407873529404401,-0.0016028911340981,0.0010382961481809,0.0014884427655488
1.518964111328125,0.0056635239207185,-0.0049159386901184,0.0502127684116363,-0.0013646056177094,0.0003218548372387,0.0011916793882846
1.528943115234375,-0.003569693446625,-0.0091751853034831,0.0532055204868316,0.0014397029299288,0.0008970974013209,0.000293927732855
1.538922119140625,-0.0023267807134427,-0.010922924019955,0.0493131892234086,0.0028076139278709,-0.0007801642641425,0.001150342170149
1.548901123046875,-0.009047266341187,-0.0040118294572457,0.0469224946945905,-0.0005013637128286,-0.0009034685790538,-0.0005354387685656
1.5588798828125,0.0022838183545507,-0.006865264393296,0.0445300466001033,0.0024635714944452,0.0018788250163197,0.0003482879255898
1.56885888671875,-0.0088932813558727,0.0008805822268128,0.0365992536008357,-0.0022563487291336,-0.0008943248540163,0.0010055560851469
1.578838134765625,-0.0083976250597275,0.0002307765485718,0.0355494522869586,-0.0007250671042129,-0.0009648296982049,0.0019108573906123
1.58881689453125,-0.0025485885042697,0.0028752449090592,0.0494686720460653,0.0017476778011769,-0.0015898738056421,0.0007246852619573
1.598796142578125,0.0096876100713387,-0.0047944494686089,0.0467763642221689,0.0006010809447616,0.0015362696722149,-0.0004632443306036
1.60877490234375,0.0058069692457094,0.0010513722164556,0.0419885454237461,-0.0019744620658457,0.0014779465273022,0.0021176249720156
1.618754150390625,0.0015953794326633,-0.0028792452307417,0.0397428123235702,-0.0010103612439706,-0.0008954424411058,-0.0005024338606745
1.62873291015625,-0.0050070145070552,-0.0026300379763357,0.0431856462538242,-0.0014396628830581,-0.0007617520168423,-0.0002875167701859
1.638712158203125,-0.005363207533583,-0.0024351912576705,0.0279220261484384,-0.000491066777613,-0.0006868112832307,0.0016691853525117
1.64869091796875,-0.0037986616306006,-0.0053845060499384,0.0370499199777841,-0.001578701660037,0.0002170652151107,-0.0005335151217877
1.658670166015625,-0.0040173458825796,-0.0031380422974005,0.038092707028985,-0.0010260321432724,-0.0004261415451765,-0.0011040746467188
1.66864892578125,0.0014815072620287,-0.0049288529706187,0.0410825364947319,0.0001324429176747,2.71284952759e-05,-0.0026841280050575
1.678628173828125,-0.0007238390288315,-0.0107336485255509,0.036744215029478,-0.0001752006937749,-6.67832791805e-05,0.0005847489228472
1.68860693359375,-0.0092738964376039,-0.0044758850387297,0.0481184264808893,0.0024067340418696,0.0013207234442234,0.001194612821564
1.698586181640625,-0.0075925009556114,-0.0045446394260041,0.0520078351348638,0.0035571977496147,-0.0010465700179338,-0.0005205557099543
1.70856494140625,-0.0011502477473579,0.0009754574360325,0.0412339276641607,-0.0032586301676928,0.0005678376182913,-0.0003469176299404
1.718544189453125,0.0008268244792707,0.0066994793723337,0.0436269602805376,0.0015709067229181,0.00016959477216,-0.0004890841664746
1.728523193359375,0.0033535664779134,0.0010787351474165,0.054997080078721,-0.0023772295098751,0.000276387669146,0.0001703145244391
1.738502197265625,0.0139197677483782,-0.0044579475232399,0.0485614940732717,-0.0006094146519899,-0.0004484551027417,-0.0004657656827475
1.748481201171875,0.0103440098871476,0.0022744112053886,0.0518541058778762,-0.0007633453933522,-0.00028573628515,0.0007832568371668
1.758460205078125,-0.0009712013860233,-0.0058215457603335,0.0315039762884378,0.0007381344912573,-0.0010917503386735,0.0004675279196817
1.768439208984375,-0.0092485062680207,-0.0092370350259356,0.0419850382924079,0.0012979308376088,-0.0029618218541145,0.0021748803555965
1.7784169921875,0.0014941658142022,-0.0111524401932023,0.0527589457631111,-0.0032052514143288,0.0029817968606948,0.0001527784916106
1.788395751953125,-0.0040109526744112,-0.0115061672680079,0.0515583378016948,-0.0022691504564136,0.0005798917263746,0.0019482816569507
1.798375,-0.012120992964413,-0.010882701607421,0.0569482141464948,-0.0021973350085318,-9.69301909208e-05,-0.0013156208442524
1.808353759765625,-0.0108903003919869,-0.011060834653303,0.0449783748894929,-0.0030673898290842,-0.0034575732424855,-0.0009134834981523
1.8183330078125,-0.0029868337910622,-0.0058213448309339,0.0494698410898447,0.0015741004608571,0.0024939263239502,-0.0003911774256266
1.82831201171875,0.0101974775559268,0.0022979930103756,0.0380973832041025,0.0017565269954502,0.0007120044901967,-0.0003432405355852
1.838291015625,-0.001521108620055,-0.0063902124937623,0.0499199229449033,0.0006837613182142,0.0002398118376731,0.0004566443094518
1.848270263671875,-0.0057375572713091,0.0074234279990196,0.0578513004660606,-0.0024102991446852,0.0005039973184466,0.0015269687864929
1.8582490234375,-0.0066489547614939,0.0076077533236704,0.0431844772100448,0.0003416481777094,-0.0005755079910159,0.0005948962643742
1.868228271484375,0.0027078341865912,0.004372351599019,0.0328588980287313,0.0020122490823268,0.0001411484554409,-0.0001755562261678
1.87820703125,-0.0031227899293415,0.001315941436775,0.0574006340891122,0.0035624420270323,-0.0007200958207249,0.0010661247652024
1.888186279296875,-0.0037862770730629,-0.000902501797676,0.0548620555222034,0.002918223850429,-0.000256972387433,-0.0010457620956003
1.8981650390625,-0.004620846467372,-0.0089090817132033,0.039452304944396,-0.0012586069060489,-0.0008353749290108,0.0005483967834152
1.908144287109375,0.0008365604219958,-0.0175046222315169,0.0520189410507678,0.0017720703035593,0.0006469404324889,0.001245878636837
1.918123046875,0.0129782673808746,-0.0132586186922155,0.0521662405669689,-0.0010378786828368,-0.0005126418545842,-0.0018480903236195
1.928102294921875,0.0146667136581614,-0.005608231803216,0.0463321275860071,5.5477721616e-06,0.0013281349092721,-0.0004579203086905
1.9380810546875,0.0031715792408213,-0.0071339617994613,0.0544090510576963,-0.0024007190950214,-0.0005690092220902,-0.0014034628402441
1.948060302734375,-0.0054187736457213,0.0054804407050833,0.0403460389137268,0.0038523830007761,-0.003243887796998,-0.0028508908580988
1.9580390625,0.0001057984620332,0.0089473313643597,0.0412473716676235,-0.0016859390307217,-0.000225406140089,-0.0012817026581615
1.968018310546875,-0.0126709915299899,0.0013661555203609,0.052766544547677,-0.0012494469992816,0.00041348580271,0.0001068694837158
1.9779970703125,-0.0110366500601172,0.0030378333259373,0.0473801753342151,-0.0018321927636861,-0.0032693715766072,0.0009403567528352
1.987976318359375,-0.0139042413856834,-0.0037558454021811,0.0401969858318567,-0.0017357863252982,0.0003543915227055,0.0017169344937428
1.997955078125,-0.0105220698677934,-0.0055542731262743,0.0487257447242736,-0.0003825874300673,-0.0019514542073011,-0.0005705810617655
2.00793408203125,0.0009472907874733,-0.0098961382554844,0.0527706362009048,0.0008339445339515,0.0008248919621109,0.0002494062355253
2.017912841796875,0.0071442639977671,-0.0127060445770621,0.0506745407044887,0.0013425457291305,0.0016773929819464,0.0014291743282228
2.02789208984375,0.0017884725856594,-0.0074340407245792,0.0464887794524431,0.0011558581609278,-0.0020411787554621,0.0010779034346342
2.037870849609375,-0.0021731427880004,-0.007285298169963,0.041555999225378,0.0011889761080965,-0.0007684361189603,-0.0002538030967116
2.04785009765625,0.0014927410420961,0.0018576653643511,0.040207507225871,0.0002576687838882,0.0006281258538365,0.0009499457082711
2.057828857421875,-0.0027473442130722,-0.0051688174726441,0.0397574253708124,0.0025669890455901,-0.0001506432890892,0.0007076436886563
2.06780810546875,0.0122718361445702,-0.0024473383531905,0.0473912812501192,0.0006311374017968,-0.0009397380053997,0.0023281772155314
2.077786865234375,0.0059701604507863,-0.0047245625701732,0.0494873767465353,0.0026587769389152,0.0015639336779713,-0.0015083361649885
2.08776513671875,0.0121956656358204,-0.0057868763057515,0.0443985291749238,0.0023072399199008,6.13778829574e-05,-0.0010771703673526
2.097744140625,0.0082340685284696,-0.002233677336201,0.0476940635889768,0.0011617541313171,-0.0011309217661619,-0.0005078718531876
2.10772314453125,0.0093102829252369,0.0015663542675785,0.0568237109839916,0.0013654858339577,0.0004576537758111,-0.0010743262246251
2.1177021484375,0.0050047129521146,-0.0027341559379361,0.0456061513990163,0.0001341799506917,-0.0013151681050658,-0.0016746287001296
2.12768115234375,-0.0104788335142657,-0.0031543358450755,0.0421703317314386,-0.0011068531312048,-0.0010453900322318,-0.0017100486438721
2.13766015625,-0.0045062253780663,-0.0072591590817086,0.0382780004680156,3.33831994794e-05,0.0003082463517785,-0.0002113943046424
2.14763916015625,-0.0121417800241149,-0.0005121873058378,0.0607236410319805,-0.0019570633303374,0.0008331555873155,-0.0006657296326011
2.1576181640625,-0.000485207967367,-0.0057381600595079,0.0481517442286014,-0.001584249199368,-9.63741913437e-05,-0.0004832257691305
2.16759716796875,0.0118231607953086,-0.001108016040828,0.0489005167692899,-0.0006643933593295,-0.0013491250574588,0.0046316413208842
2.177576171875,0.0019066738715395,-0.0012192030640318,0.039620062726736,-0.0015126779908314,0.0025963885709643,0.000217325927224
2.18755517578125,0.0058494749468751,-0.0086907445210963,0.0402162750542163,-0.0003542029298841,-0.0001930063590407,-0.0004828191304113
2.197533935546875,0.0062618003411218,1.60012867301e-05,0.0488987632036209,4.33775712735e-05,3.52170318365e-05,0.0003011448716279
2.207512939453125,0.0036245106400921,-0.0119894390066154,0.0495014052718877,0.000120076641906,-0.0031003896147012,0.0003536091535352
2.217491943359375,0.0011959500526078,-0.0140914345208555,0.0532446834534406,-0.0020913062617182,-0.0011157253757119,-0.0031176863703876
2.227470947265625,-0.0070663216570392,-0.0126917055244557,0.0533919829696416,-0.0011141924187541,-0.0002600513398647,-0.0024367161095142
2.237449951171875,-0.012011486441642,-0.0119579296234995,0.0468108510136604,0.0003431327058933,-0.0002969214692711,-0.0014735508011654
2.2474287109375,0.0012106544313952,-0.0118244394369423,0.0481587584912776,0.0033921857830137,-0.0020349007099866,0.0025574096944183
2.25740771484375,0.004246569794882,-0.0012794270849786,0.0515998388558626,-0.0013349775690585,-0.0010029571130871,-0.0005368322599679
2.26738671875,0.0011198891417123,-0.0024866109176538,0.0465098222404718,0.0002541306894272,-0.000860477797687,0.0014962248969823
2.27736572265625,0.0035438466193154,0.0012908069955185,0.0420253703027963,0.0015261557418853,-0.0006922809407114,-7.3960130976e-05
2.2873447265625,0.003241502671875,0.0021816000890918,0.0441238038867712,-0.0001686798641458,-0.0016717920079827,-0.0001139075466198
2.29732373046875,0.0030421259085647,-0.004149173835013,0.0460696772575378,0.0004783333279192,0.0022214008495211,-0.001239766832441
2.307302734375,0.0086989095612429,-0.0072823207615874,0.0559416674524545,-5.0304224714e-06,0.0028722770512104,0.0009424272575415
2.31728173828125,-0.0016044029893353,-0.0052827809748239,0.0481622656226158,0.0014723383355885,-0.0011229841038584,-0.0006630992284044
2.3272607421875,0.0056637431164272,-0.0013312668700702,0.0498112018734216,-0.0009902867022901,-0.0008199159055948,0.0011076366063207
2.337239990234375,-0.0009085479459725,0.0025315460379235,0.0426285968929529,0.0006844605086371,0.0001741237938404,0.0005595865077339
2.34721875,-0.0087887798017822,-0.0059193983779288,0.0483136567920446,-0.0007200906402431,-0.0011638486757874,8.68754432303e-05
2.357197998046875,-0.0034098449761047,0.004440284002386,0.0454746339738368,-0.000287190079689,-0.000942981801927,-0.0005870580789633
2.3671767578125,-0.0109328791583888,-0.0058565805410966,0.0581938302934169,0.0015400046249851,-0.0009962441399693,0.0006976508302614
2.377156005859375,-0.005534417648334,-0.0019607421463355,0.0397919121623039,0.0007125209085643,-0.0006060609593987,-4.65339908259e-05
2.387134765625,0.0020346841653808,-0.0002623224643059,0.049215574067831,-0.0010670032352209,0.0003984831273555,0.0009897019481286
2.397112548828125,-0.002644340496324,-0.0079399078874848,0.0436772291630506,0.0004155986243858,0.0002665789797902,-0.0010960750514641
2.407091796875,-0.0004469400499016,-0.0067347881477326,0.0463724595963954,0.0011700721224769,0.0005869576707482,0.0003486898785922
2.417070556640625,0.0024200302211567,-0.0059178274753503,0.0441273110181093,0.001252134446986,-0.0001293858513236,0.0001064667594619
2.4270498046875,-0.0002124006416648,0.0038289106383919,0.043680151772499,0.0002390679437667,0.0004447912797331,-0.000212313621887
2.437028564453125,0.0065108797313645,0.0025193076108582,0.0489174679040908,0.0009154045255854,-0.000454687513411,-0.0021367180161178
2.4470078125,0.0090863745088689,-0.0033579869247041,0.037544425496459,0.0027860088739544,0.0007479963824152,-0.0014877057401463
2.456986572265625,-0.0020332228606566,-0.0030703473560512,0.0487684148222208,-0.0001834677532315,0.0017934618517756,-0.0036702330689877
2.4669658203125,0.0041085860962979,-0.0002856302746571,0.0439759198486804,-0.0013874828582629,0.0007361872121691,-0.0017200004076585
2.47694482421875,-0.0033067316615022,-0.0098840642252005,0.0462181458175182,-0.0018303736578673,0.0002293260768055,0.0014759612968191
2.486923828125,-3.9510026481e-05,-0.0130140145476907,0.0438268667668104,0.0014857945498079,-0.0025603352114558,-0.0006002390291541
2.49690283203125,0.0009773205995559,-0.0036704686736688,0.0388864877551794,-0.00129558541812,0.0002213371917605,-0.0004415603470988
2.5068818359375,-0.0057155098362825,-0.0084327511720359,0.0495125111877918,0.0020887595601379,0.0004077581688761,-0.001607758575119
2.51686083984375,0.0020732443437911,-0.0086902695970609,0.0326040464848279,-0.0010147704742848,-0.0006931638345122,0.0020005337428301
2.52683984375,0.0011124364876188,-0.007603460741043,0.0534030888855457,0.0027163182385265,0.0002719657495617,0.0008087692549452
2.53681884765625,-0.0031408187763765,-0.010485190189816,0.0427852487593889,0.0006667271372862,-0.0001819767057895,0.0007274855161085
2.5467978515625,0.007616612483561,0.0028340543821454,0.0477232896834611,-0.0032001826912164,0.0008574547246098,0.0006121706683188
2.55677685546875,0.0078553531428799,-6.26717063598e-05,0.0444289243131875,-0.0006372499628923,6.42156228423e-05,0.0009434795938432
2.566755859375,0.0018911840414628,0.000590568037983,0.0397889895528554,0.0003766153822652,0.0007909918203949,0.0012686515692621
2.57673486328125,0.0068323485043831,-0.0062177420036867,0.0492173276335001,-0.0021123150363564,-0.0007476825267076,-0.0003136617597192
2.5867138671875,0.0029178967406973,0.001391490891017,0.0441261419743299,-0.0020345505326986,0.0005815010517835,0.0011982147116214
2.596692626953125,0.003974840181414,-0.0034853213651105,0.0481651882320642,0.0004562872927635,-0.0002266420051455,-0.0026683122850954
2.606671630859375,-0.0018398739793337,-0.009497476060409,0.0496615642696619,-4.49196668341e-05,-0.0014282595366239,0.0012153756106272
2.616650634765625,-0.0042194443259388,-0.0070180620685219,0.0429296256661415,0.0023573394864797,-7.5614079833e-05,-0.0005941198905929
2.626629638671875,-0.0058702985391952,-0.0081321425239555,0.0406897377848625,-0.0013521774671971,-0.0016263732686638,0.0012764844577759
2.636608642578125,-9.29207141511e-05,0.0012409217054955,0.045332595154643,-0.0003212702577002,-0.0010452084243297,0.0019850945100188
2.646587646484375,-0.0013700827768072,-0.0081979012365452,0.0478776034623384,0.002513931132853,-0.000384478829801,-0.0002879133098758
2.656566650390625,0.0061791087600402,0.0100414102113805,0.0477250432491302,-0.0010706472676247,0.0026625841856002,-0.0008634831756353
2.666545654296875,0.0024360315078869,0.0024873050373978,0.0444283397912979,0.0010478973854333,0.0003589503467082,0.0003605056554079
2.676524658203125,0.0020320903494954,0.0027639482880011,0.046526188853383,0.0032830582931637,-0.0011342726647853,-3.93088557757e-05
2.686502685546875,-0.0002952200869098,-0.0037417986105196,0.0517664275944232,-0.000498364213854,-0.0016304198652505,-0.0034375023096799
2.69648193359375,0.0046238786746747,-0.0093759868388995,0.0417447997957468,-0.0006970286485739,0.0002463217824697,-0.0026231643278151
2.706460693359375,0.0021883220908232,-0.0032110344683751,0.0517675966382026,-0.0022826748900115,0.0002377992495894,-0.0020186267793178
2.71643994140625,-0.0039642091895453,-0.0173640081844292,0.0468307247579097,-0.0012820538831874,-0.0030221855267882,-0.0008406360866501
2.726418701171875,-0.0049617688595317,-0.0030722287858836,0.0459393288761377,0.0004386145155876,-0.0029670586809515,-0.0002366311964578
2.73639794921875,0.0047132922574877,-0.008895473312959,0.0416021764546632,-0.0025133341550827,0.0002473378553986,0.001249941647984
2.746376708984375,-0.0019270773387514,-0.0021113661307841,0.0480336708068847,-0.0004941253573633,0.0002550603821873,0.0005274260765872
2.75635595703125,0.0046046990501694,0.0062588777316734,0.0420475821346044,0.0020511820912361,-0.00215161498636,0.001331741688773
2.766334716796875,0.0034167313746176,-0.0017135076533071,0.0453448701143264,0.0010261313291266,-0.0016054008156061,-0.0008621704764664
2.77631396484375,-0.0006234108616597,0.0002331511687487,0.0314285729646682,0.0025968770496547,0.0009443210437893,-0.0002278535539517
2.786292724609375,0.0054209838691167,0.0035075149306096,0.0492296025931835,0.0001726017799228,0.0005509722977876,-0.0009146828087978
2.796271728515625,-0.0009463044067844,-0.0017449805038049,0.0441401704996824,0.0012678506318479,-0.000517738983035,0.0008347103139385
2.80625048828125,-0.0019824973204173,-0.0110553364942781,0.0351642523616552,0.0012486758641898,0.0003147646784782,0.0017268692608922
2.816229736328125,-9.1148882173e-06,-0.0024562157793901,0.0410018724739551,0.0023714818526059,0.0014971569180488,0.0010990581940859
2.82620849609375,-0.0049959816563874,-0.0056230823124758,0.0478863712906837,0.0014383101370185,0.0001296233385801,-0.0015212260186672
2.836187744140625,-0.0040946123698726,-0.0016685542667284,0.046986792102456,4.36501577496e-05,-0.0001904424279928,-0.0002217449364252
2.84616650390625,0.0007999730049632,-0.0108299302405677,0.0426449635058641,0.0014575223904103,0.0022538062185049,-0.0003253419126849
2.856145751953125,0.0131116114369593,-0.0135561951329931,0.0480289946317672,-0.0033857319504022,0.000197903253138,-0.0014928028685972
2.86612451171875,-0.003872950709518,-0.0079415701216086,0.0532604655444622,-0.0021697324700653,0.0008519757539033,0.0010976538760587
2.876103759765625,-0.0011483663175255,-0.0069179078959859,0.052063364714384,-0.0016210284084081,-0.0004602158442139,-0.0013195729115977
2.88608251953125,-0.0029544476251117,-0.0120876934830099,0.0462263291239738,-0.0027952161617577,0.0035172151401638,0.0004170744505245
2.896061767578125,-0.0047329650723375,-0.0022969883633777,0.052805707514286,0.0014863703399896,0.0015884628519415,-0.0004668678739108
2.90604052734375,-0.0028437537922523,-0.0082377583228982,0.0456195954024791,-0.0018460431601852,-0.0002102358266711,0.0012644531670957
2.916019775390625,-0.0056863933396525,-0.0066108147081919,0.0408311920821666,0.0011151812504976,-0.0008280705660581,0.0004546314303297
2.92599853515625,0.0024216011237353,-0.0021800657191313,0.046819034320116,-0.0009647475671954,-0.0038739279843866,-0.0007168931188061
2.935977783203125,0.0102187212733551,-0.00729326228071,0.055946343627572,0.0010111386654898,-6.42035156488e-05,-0.001531398971565
2.945956787109375,-0.0002453165305778,-0.0038377515319734,0.0463701215088367,0.0006129960529506,-0.0004386436194181,-0.0009079530136659
2.955935791015625,0.0036122904793359,-0.0061155420045368,0.0462228219926357,-0.0001215343945659,-0.0018667299300432,-0.0011222440516576
2.965914794921875,0.0049122671619988,-0.0067392633934505,0.0433843836963176,0.0021709145512431,-1.663248986e-05,-0.0016964215319603
2.975893798828125,-0.0014730682272464,-0.0131340059318579,0.046378889337182,0.0022058081813156,0.000387217849493,-0.0001532116148155
2.985871826171875,-0.0066220119556412,-0.0053115869442,0.0426373647212982,0.0005378703936003,-0.0009662006050348,0.0008412127499468
2.9958505859375,-0.0002008198017254,0.0011165281408466,0.0403951387524604,-0.0005441025132313,-0.0001708017662167,-0.0011203028261661
3.00582958984375,-0.0020076865606009,-0.0055249557002447,0.0475794972985982,-3.06450529024e-05,-0.0031740479171276,0.0010166176361963
3.01580859375,0.0038780287434346,-0.0088218966200947,0.0469856230586767,-0.0012837660033255,-0.0016838004812598,-0.0013249877374619
3.02578759765625,-0.0001604329924099,0.0027426315053366,0.0362128846317529,0.0014145488385111,0.0001258179545402,0.0002529351622797
3.0357666015625,-0.0025388160289265,-0.0061109754272736,0.0421978042602539,0.0016266647726297,-0.0007475055754184,-0.0010848521487787
3.045745849609375,-0.0079730247057974,-0.0014865304970182,0.0480360088944435,0.0002652568509802,0.000973961316049,0.0010438124882057
3.055724609375,0.0009713840491138,-0.0019192776247859,0.051181321182847,0.000633888063021,7.25947320461e-05,0.0016312779625877
3.065703857421875,0.0008505706810392,-0.00455223821057,0.0472924970507621,-0.0008175346883945,0.0005660783499479,-0.0023954214993864
3.0756826171875,-0.0032924656741321,-0.0034024836535565,0.0466910240262746,0.0011635280679911,0.0007107704877853,0.0011083692079409
3.085661865234375,-0.0052473078026436,-0.0058918527838774,0.0404056601464748,0.0016381035093218,0.0002242112532258,0.0001062216470018
3.095640625,-0.0010146752015687,-0.0044565227511338,0.0429489148885011,-0.0010890596313402,0.0019164951518177,0.0004728687927126
3.105619873046875,0.0001692921523004,-0.0097236677654087,0.0411520945996046,-0.0001071521546691,0.0013298010453581,-7.36118527129e-05
3.1155986328125,0.0017591368933208,-0.0097738635826855,0.0463876571655273,-0.0002436583745293,0.0008516842499375,-0.0009633039589971
3.125577880859375,0.0045296610525809,-0.0020144450949504,0.0579109216988086,-0.0018303696997463,-0.0013558100908994,0.0005152830854058
3.135556640625,0.0055967422948218,0.002246134958975,0.052971711730957,-0.0013946776743978,0.0006782338023185,-0.0014480341924354
3.145535888671875,-3.21669702418e-05,0.0065609294181689,0.0363625222355127,0.0031835623085498,-1.89812853932e-05,-0.0002682537888176
3.1555146484375,-0.0077496094797737,-0.0060440294045954,0.0326250892728567,0.0015026566106826,-0.0008853431791067,0.0010979822836816
3.165493896484375,0.0003512976557016,-0.0011069383285939,0.0513297897428274,-0.0023567962925881,-0.0007652342319488,0.0006415165262296
3.17547265625,-0.0009343399743549,-0.0035290509089827,0.0420534273535013,0.0022155970800668,-0.0010027894750237,0.0006013902602717
3.185451904296875,-0.0009614471769891,-0.0063296048803254,0.0508820459753274,-0.0002933669602498,0.0014356011524796,-0.0004505584074649
3.1954306640625,2.4970044475e-05,-0.0012089739309623,0.0459404979199171,0.0016320864669978,0.0009701624512672,0.0006063512410037
3.205409912109375,0.0054167278191074,-0.0004046535444445,0.0435474653035402,0.0022555324248969,-0.0002487665042281,-0.0004575815983116
3.215388671875,-0.0024726371912285,-0.0063940301523543,0.0471399368375539,0.0023429796565324,0.0005278782919049,0.0006114265997894
3.225367919921875,0.0048459239275194,0.0029221710570156,0.0549175851017236,0.001631649211049,0.0024208528921008,0.001018624054268
3.2353466796875,0.0049690753831528,-0.0020350129589438,0.0556675266861915,0.0001169655006378,-0.0005368823185563,0.0022013518027961
3.24532958984375,0.0011998773090541,-0.0068273618020117,0.0463929178625345,-0.0010521621443331,-0.0028274673968553,-0.0006700684316456
3.255308349609375,-0.0022669037523679,-0.0003974748849868,0.0431038131892681,-0.0018282649107277,-0.0010733166709542,-0.0022415143903344
3.2652861328125,-0.0031262422617524,0.0004975742585957,0.0465437245100736,-0.0009318449883721,-0.0016975617036223,0.0008687915396876
3.275265380859375,-0.0029966062664054,-0.0068573185488581,0.0472907434850931,-0.0005531232454814,0.0017737755551934,0.0015271336305886
3.285244140625,-0.0074421326994895,0.0006159582075662,0.0438502476423978,0.0008271931437775,-0.0004819212481379,-0.0012007422046735
3.295223388671875,-0.010126129352767,-0.0018976685811765,0.0525298131823539,-0.0010050893761217,-9.3337148427e-06,0.0022096384782344
3.3052021484375,0.0066510371207259,-0.0076350431893952,0.0618067600935697,-0.0006050826632417,-0.0003211898729205,-0.0021928329952061
3.315181396484375,0.0016227058310061,-0.0118992765051312,0.0511824902266263,-0.000278054154478,-0.0014952644705772,0.0010439882753416
3.32516015625,-0.0034579219015315,-0.0052708896076306,0.0389133757621049,-0.0005371797597035,0.0031367717310786,0.0012051095254719
3.335139404296875,-0.0024172902747988,0.001524926278647,0.0395101726114749,-0.0013449410907924,-0.0007387436926364,0.0004274226957932
3.3451181640625,0.014057660115417,-0.0093184662316925,0.0514800118684768,0.0008777331095188,-0.0016958834603428,-0.0011038949014618
3.355097412109375,-0.0047974816759116,-0.0042681423058733,0.0459457586169242,-0.0013431864790618,0.000774816609919,0.0002920441329479
3.365076171875,0.0018054237204603,-0.0047547567790374,0.041908465924859,-0.0022356119006872,-0.0026207137852907,0.0002427756553515
3.375055419921875,0.0054712710179388,-0.0031199221188202,0.0399684377729892,0.0002691264962777,-0.0008470546454191,0.0023237240966409
3.385034423828125,-0.0001682144400663,0.0039201143194921,0.0464005166471004,-0.0016371641540899,0.0006456468254327,0.0010294278617948
3.395013427734375,0.0084288787145167,0.0006844203338958,0.052833764564991,0.0014426410198211,-0.0031441915780305,-0.0003754228237085
3.404992431640625,0.0099678517848253,-0.0024926205333322,0.0553811109602451,0.0012184027582406,1.0322779417e-05,0.0020480537787079
3.414971435546875,0.0014049896934069,0.0021881759603507,0.0356254401326179,0.0018573889974504,0.0034743547439575,-0.0007921895012259
3.424950439453125,-0.0067579315613023,-0.0044705512764863,0.0556762945145368,-0.0002670146641321,-0.000496950931847,7.65337026678e-05
3.434929443359375,0.0018391250606626,-0.0110863344207406,0.052082069414854,-0.000690957182087,0.000135563313961,-0.0003668788122013
3.444908447265625,0.0043583413399755,-0.0132926305596716,0.0463970095157623,-0.0023623569868505,-0.001060196198523,-0.0013250842457637
3.454887451171875,0.000873367034737,-0.0047865584230981,0.0462462028682231,-0.0006617407198064,0.0025192694738507,0.0005441117100417
3.464866455078125,0.0089600264491513,-0.0050259566695429,0.0384627093851566,-0.0022710890043526,0.0001509208232164,7.75258813519e-05
3.474845458984375,0.0028401187967509,-0.0011916574699804,0.0475900186926126,0.000125920807477,-0.0009749913588166,-8.19791748654e-05
3.484824462890625,-0.0067746087014675,0.0008810388845391,0.0423509489953517,0.0009597565513104,0.0003925422206521,-0.000273726764135
3.49480322265625,0.0061154141403734,0.0073007332011125,0.0457967055350542,-0.0004567680880427,-0.0026979558169841,-0.001096797408536
3.504782470703125,0.0110824436969123,0.007187902210094,0.0408569110453128,-0.0028096709866076,-0.0011637089774012,-0.0001186182926176
3.51476123046875,-0.0001433539934456,-0.003215509714093,0.0375672218501567,0.0007912816363386,-0.0018150992691516,-0.0008204838377423
3.524740478515625,0.011573770877812,-0.0036593079588375,0.0254477449893951,0.0015377656091004,-0.0006481017917394,0.0022096608299762
3.53471923828125,0.0048900370638817,-0.0069846347229555,0.0369692559570074,-0.0003049083752557,0.0030781654641032,-0.0019169452134519
3.544698486328125,-0.0022356135649606,-0.0041484979815781,0.0448982953906059,0.0022234967909753,0.0002331100404262,0.0008045391296036
3.55467626953125,0.0009809921276755,-0.0051995231381617,0.0446036963582038,0.001383499475196,-0.0018859803676605,0.0004502775263972
3.564655517578125,0.0046462366369552,-0.0048022309162653,0.0431084893643856,-0.001380062662065,0.0008133994415402,-0.0003942108596675
3.57463427734375,0.0001786810351535,-0.0010795205987058,0.0386158541202545,0.0017248032381758,0.0030211228877305,-0.0002513900108169
3.584613525390625,0.0058003020429052,-0.0052939964885823,0.046544893553853,-0.0001660410780459,-0.0003634877502918,-0.0006615167949348
3.59459228515625,0.0009543415827676,-0.0027345760630443,0.0407049353539943,-0.0027302885428071,-0.0008143186569213,-0.0011324468068778
3.604571533203125,0.0074250171679072,0.0002449512043967,0.0447457351773977,-0.0010498339543119,0.0001625288277864,0.0011432243045419
3.61455029296875,0.0048522623367607,0.0037609234360978,0.0438490785986185,0.0016956245526671,0.0020563621073961,-0.0008972526993602
3.624529541015625,0.0063102973916567,0.0093452446407638,0.0513309587866067,-8.12365906313e-05,-0.0009596673771739,-0.0017329526599496
3.63450830078125,0.0003109108463861,0.0034745077101513,0.0444499671012163,-0.0013108294224366,-0.0007262211292982,0.0003280214150436
3.644487548828125,-0.0084468892952427,-0.0032204233512282,0.0374158306807279,0.0028064176440238,0.0005845865234732,-0.0003556120209395
3.65446630859375,-0.0066212813032791,-0.005076262084674,0.0447469042211771,0.0002543361624702,0.0022209100425243,0.0001511184818809
3.664445556640625,-0.0008645992063917,-0.0087286471123807,0.048786535000801,7.32411863282e-05,-0.0010222876444458,-3.23733111144e-05
3.67442431640625,0.0074572389370761,-0.014072894217167,0.0538771361380815,-0.0013438768219202,-0.0015594875440001,0.0009205694659613
3.6844033203125,0.0066166416607797,-0.0004036488974466,0.0466945311576127,-0.0008647742215543,-0.000631907954812,0.0003344077267684
3.69438232421875,0.0009001271774992,-0.0006975355437956,0.0447486577868461,0.0013104311656206,0.001371981576085,0.0022569235879927
3.704361328125,-0.00275837706374,-0.0037635537846013,0.0573141248494386,0.001170881325379,0.001696353778243,0.000256889645243
3.71434033203125,-0.002395516834408,-0.0077000895159319,0.0477408253401517,-0.0001210740301758,-0.001528600230813,0.0013451086124405
3.7243193359375,-0.0025007307745516,-0.0013071736084297,0.0443020830631256,0.0007614974747411,0.0007049925625324,-0.0005766284302808
3.73429833984375,0.0029627587957307,-0.0071382361157797,0.0426543158560991,0.0009972975822165,0.0006753196939826,0.0018621105700731
3.74427734375,-0.0023319866115227,-0.0027617015319876,0.0437011945605278,0.002612238517031,0.000777319073677,0.0011619654251262
3.75425634765625,0.0081290007187984,0.0006315393691882,0.0380167191833257,-0.0007921598153188,-0.0009302636608481,-0.00138984574005
3.7642353515625,0.0044159167461097,0.0019434622179716,0.0478928010314703,0.0012587406672537,-0.0004719337448477,4.58643917227e-05
3.77421435546875,0.0022431758169084,0.0008366700198501,0.0471475356221199,-0.0002646457869559,-0.0003420589491724,-0.0011880249949172
3.784193359375,0.0052684053895995,-0.0136848995465785,0.0419108040124177,-0.0003067237557843,0.0009493073448538,0.0012644800590351
3.79417236328125,0.0055456696947105,-0.0073387271239422,0.0435574021756649,-0.0006086932844482,-0.000378094613552,-0.0025205225683748
3.8041513671875,-0.0006991064463742,-0.0122117765204049,0.0505927076399326,0.0020760393235832,0.0029258234426379,-0.0017649837536737
3.814130615234375,0.003593275251612,-0.0070629971887916,0.052833764564991,-0.0023884638212621,0.0014984980225563,0.000428557395935
3.824109375,0.0031249818864278,0.0011115049058571,0.0449041406095027,-0.001569009036757,-0.001283973455429,0.0003305530990473
3.83408740234375,-0.0059137540884315,-0.0046942770297639,0.0407166257917881,-0.0005196675192564,-0.0015166075900197,-0.0005139288841746
3.84406640625,-0.0056651678885333,0.0028633535418659,0.0399696068167686,-0.0004283211019355,-0.0025541745126247,0.0011596014956012
3.85404541015625,-0.00111183369942,-0.0010863704646006,0.0441623823314905,0.0003754743374884,0.0011946875602006,0.0005478042876347
3.8640244140625,0.0056850051001645,-0.0038891711919568,0.0595797316938638,0.0016593842301517,-0.000279638916254,0.0034605034161359
3.87400341796875,-0.0010532901789061,-0.0012290303383022,0.0518009143859148,0.0005718867178075,0.0008591348305344,0.0013771292287856
3.883982177734375,0.0003031841976568,-0.0016154541063122,0.0356412222236394,0.0005132972146384,-0.0005395580083131,-2.31608719332e-05
3.893961181640625,0.0039090632025152,-0.0044105099186301,0.0516536148697137,-0.0024499590508639,-0.0007524229586124,0.0009124025236815
3.903940185546875,-0.003882650119625,-0.0024433928304351,0.0480623123794794,0.0024289519060403,-0.0004725251346826,-0.0004924149252474
3.913919189453125,-0.0029085261241532,-0.0019156243629753,0.0441752418130636,0.0011123303556814,0.00064233597368,-0.0004634518991224
3.923898193359375,-0.0083333824507892,0.0004108458232134,0.0344464594811201,6.4909167122e-05,-4.92865219712e-05,-2.9913790058e-06
3.933877197265625,4.84605179168e-05,0.0044062356023117,0.047915597385168,0.0009653223096393,0.0009681405499577,0.0002063254942186
3.9438564453125,-0.0037892179488204,-0.0045126003199256,0.0447720386624336,0.0023379155900329,-0.0009187087416648,0.0022684109862893
3.95383544921875,-0.0107443525826558,-0.0043963717954233,0.0459732311457395,0.0009832205250859,0.0008033933117985,-0.0016923102084547
3.963814453125,0.001738075838983,0.0049458406380377,0.046720250120759,-0.0008085542940534,0.0009205732494592,-0.0006960217142477
3.97379345703125,0.0023432569242082,0.0023835706682875,0.0428261652916669,-0.0011430075392127,0.0009472705423831,0.0001116150233428
3.9837724609375,-0.0070910359731875,-0.0025967019623145,0.0535994882404804,-0.0013773657847195,-0.0007302546873688,0.0020533255301415
3.99375146484375,-0.005370477524586,-0.0015098931062966,0.0440220970779657,-0.0018120561726391,-0.000446205958724,-0.0002058507670881
4.00373046875,-0.0039288638815283,0.0012234591140411,0.0444704253673553,0.0008859922527335,-0.0007892213761806,0.0003637993650045
4.01370947265625,-0.0018202376971021,-0.0028870997436344,0.0371375982612371,-0.0025117034092545,0.0009712558239698,0.0004942293744534
4.0236884765625,0.0037340719617903,-0.0007716784922406,0.0453659129023551,-0.0025047792587429,-0.0003083935007452,-0.0023489615414291
4.03366748046875,0.0133359582447446,-0.000856050573755,0.0492611667752265,0.0013266889145597,-0.000389595516026,-0.0008191276574507
4.043646484375,0.0018555282061919,0.0072025152573361,0.0429769719392061,-0.0011585730826482,-0.0008428655564785,0.0033748184796422
4.05362548828125,-0.0005358604423701,-0.0010914667648263,0.0375882646381855,0.0001342401956208,0.0029015345498919,0.0010440202895551
4.0636044921875,0.0006269910582341,-0.0013551592023111,0.0434206240534782,0.0011358549818396,0.0010778019204735,0.0007761062588542
4.07358349609375,-0.0023699074691161,-0.0041308709933422,0.0443166961103677,-0.0003398791304789,-0.0021155504509806,0.0004364078631624
4.0835625,-0.008041852158308,-0.0038052375018596,0.0444610730171203,0.0002265752991661,0.0013313787057995,-0.0013644216815009
4.09354150390625,-0.0036391784862615,-0.0072479070353321,0.032186113333702,-0.0002697936724871,-3.64230945706e-05,-0.0014388917479664
4.1035205078125,-0.0013952354843728,-0.0072938650689087,0.0371235697358846,0.0001206257147714,-0.00011898111552,-0.000613311829511
4.113498291015625,-0.0044190768175758,-0.0033674671391025,0.042956513673067,-5.68311079405e-05,-0.0004611583426594,-0.0003340552793815
4.123477294921875,-0.0020107918331399,-0.0111077425349503,0.0411626159936189,0.0004513000021688,-0.0015027206391096,0.0005373310414142
4.133456298828125,-0.0040684002163819,-0.0009752382403239,0.0460977343082427,-0.0001558052608743,0.0019158944487571,-0.0001805870997486
4.143435302734375,0.0027302469477988,-0.0036076325705274,0.0552244590938091,-0.0007688649347983,0.0006237290799617,-0.0002405082341283
4.153414306640625,0.0007390731305815,0.0056379876206628,0.0425070163398981,-0.0012480408186092,-0.0009165788069367,-0.0008605497423559
4.163393310546875,-0.0015371099067851,0.0020185367481783,0.0480401005476713,-0.0043942993506789,0.0006882417947053,0.0025419048033654
4.173372314453125,-0.0014822196480818,-0.0071949712716974,0.0429512529760599,-0.0002437792136333,0.0018779030069708,0.0017369689885526
4.183351318359375,-0.0027466500933282,-0.0035317725890316,0.0401052158951759,0.0013943311059847,0.0012483317404985,0.0002866115246433
4.19333056640625,0.0017604520675726,-0.0096316421004012,0.0410007034301757,-0.0008526608580723,0.0032100835815072,-0.0010429960675537
4.203309326171875,0.0054352681227959,-0.0104542653285898,0.0375584540218114,0.0009098192094825,0.0004470534622669,0.0013000530889257
4.21328857421875,0.0052707252108491,-0.0008996339871548,0.0408463896512985,-0.000513196340762,0.0005526738241314,-3.173190634697676e-07
4.223267333984375,-0.0002554908647201,-0.0042758141556754,0.0480243184566497,0.001518263015896,-0.0008217832073569,0.0024910699576139
4.23324658203125,-0.003352415700443,-0.005103277955763,0.0522135868400335,0.0001316043199039,-0.0012189000844955,0.0006168349646031
4.243225341796875,-0.0058341129809617,-0.0046011919188313,0.045332595154643,0.0003928604419343,-0.0008449926972389,0.0010847523808479
4.253200927734375,0.0016625994499772,-0.001102444816567,0.0427905094563961,0.0016931351274251,0.0009937128052115,0.00063814711757
4.263179931640625,-0.0024458953147754,0.0015677425070665,0.051916065198183,-5.12353726662e-05,0.0013772081583738,-0.0012180762132629
4.273158935546875,-0.0038250016482546,0.0025056809443049,0.0430874465763568,-0.0001655640662647,0.0001719007268548,-0.0001187998568639
4.2831376953125,-0.0073973802423104,-0.0048195839098654,0.0477267968147993,0.0005883768317289,-0.0009394362568855,-9.0776156866e-06
4.29311669921875,-0.0014714059931226,0.003462269283086,0.0510194086194038,-0.0034650966990739,0.0005242675542831,0.0013796044513583
4.303095703125,0.0007179390110075,0.0021732158532366,0.0525099394381046,-0.0017391021829098,0.0019879406318068,0.0025953373406082
4.31307470703125,-0.0057354018468409,-0.0017613288504071,0.0432312389612197,0.0001982200774364,-0.000943224877119,0.002459299750626
4.3230537109375,0.0008289251048117,-0.0033096542709507,0.0399415497660636,-0.0004364111518952,-0.0028652288019657,-0.0018140085740014
4.33303271484375,0.0006368183325044,-0.0169746070080436,0.0396405209928751,-0.0017562916036695,0.0030931308865547,-0.000433125620475
4.34301171875,-0.0019724873830564,-0.0039817448462359,0.0387368501514196,-0.0023776071611791,0.0008227862417697,0.0021424172446131
4.35299072265625,-0.001249415539205,-0.0052903614930808,0.0448725764274597,-0.0008556665270589,-0.000585782341659,-0.0010754913091659
4.3629697265625,0.0004740472525358,-0.0006675605306401,0.0385889661133289,-0.0006668483838438,-0.0004507601261138,-0.0002805377007462
4.37294873046875,-0.005167410966847,0.0012471870495006,0.0379910002201795,-0.0021366882137954,-0.0009831180796027,-0.0010722868610173
4.382927734375,0.0023190905973315,-0.0014891060465946,0.0400853421509265,0.0017765606753528,0.0016715209931135,0.0006281414534896
4.39290576171875,0.0068624513817019,-0.0043242381409741,0.0438239441573619,-0.0003753853379748,-0.0016767922788858,0.0008582037407904
4.402885009765625,-0.0004186455371789,0.0066142305079847,0.0457709865719079,-0.0006558161694556,0.000520315952599,-0.0004771052626892
4.41286376953125,0.0021167546919547,0.0029218787960708,0.0325970322221517,-0.0010375101119279,0.0029837433248758,0.0010000077309086
4.422843017578125,-0.0015764555364847,-0.0050373365800827,0.0475549473792314,-0.0007474918384104,0.0015520276501774,0.0006039957515895
4.43282177734375,0.0040194647744297,-0.0027957133994437,0.0509942741781473,0.0001523693790659,0.0019177682697772,0.0007265389431267
4.442801025390625,0.0021367197677493,-0.0008682524682022,0.0499468109518289,0.0015521267196163,0.0027177818119525,0.0007782042957842
4.45277978515625,-0.0052064095366746,-0.0081633048471994,0.040666356909275,0.000578002189286,0.0006006443873047,0.0004392442933749
4.462759033203125,-0.0055819283181801,-0.0063460080258548,0.043954292538762,-0.0009011173970066,0.0006978502497076,0.0003217988996766
4.47273779296875,0.0035045923211611,-0.0053432059251703,0.0399158308029174,0.0013028961839154,-0.0016645425930619,-0.0013271638890728
4.482716796875,0.0100837515157647,-0.0015859905498102,0.0484480968266725,0.0011343179503455,-0.0013026194646954,0.0002347801346331
4.492695556640625,0.0025557854300364,-0.0030847960065118,0.0514396798580884,0.0005496299127116,-1.20047479867e-05,-0.000863068155013
4.5026748046875,-0.0055605202039703,0.0007009330772794,0.0408124873816967,0.0005174055695533,-0.0002136062830686,-0.0001173830969491
4.512653564453125,-0.0022099494007416,-0.0018795484025962,0.0488964251160621,-0.0007953292224556,-0.0006095385178923,-0.0012452148366719
4.5226328125,-0.0098794793816283,-0.0023168255750089,0.0459036730408668,-0.001018502167426,0.0002706358209252,-0.0014478813391178
4.532611572265625,-0.0085687986418604,-0.0011603855488821,0.0337841961801052,0.0014488496817648,-0.0008195880800485,-0.0007026515668258
4.5425908203125,-0.0036142449744045,-0.0089857454122975,0.0456079049646854,-0.0001336006680503,0.0015705991536378,0.0021794212516397
4.552569580078125,0.0005697992445901,-0.0008573657480068,0.0441097753614187,-0.0001538162468932,-0.000775028951466,0.0034458909649401
4.562548828125,0.0089926866097375,-0.0039219592167064,0.0505430232793092,-0.0006691379239782,0.0003964956849813,-0.0001552352478029
4.572527587890625,0.0098257581667043,-0.0045664676653221,0.0432119497388601,-2.79121450148e-05,-0.000428332015872,-0.0018228329718112
4.5825068359375,0.0054259705714881,-0.0053498365953564,0.0442570748776197,-0.0010750670917332,0.0008659642189741,0.0024158542510122
4.592485595703125,-0.0034416100875474,-0.0073487918602302,0.0405143812179565,-0.0003795691300183,-0.0002056434750556,0.0026328801177442
4.60246484375,-0.0008457849080674,-0.0069220178155228,0.0463514168083667,0.0011173936072736,0.0008441740646958,5.81360654905e-05
4.612443603515625,-0.0057172634019516,-0.0045958764228969,0.0460521416008472,-0.0011204634793102,-0.000690440647304,-0.0013072460424154
4.6224228515625,-0.0017429529435001,-0.0005459069123491,0.0367705185145139,0.0001187053858302,0.0013005388900637,-0.0035067507997155
4.632401611328125,-0.004807984803617,-0.0044297626083716,0.0421563032060861,0.0014477605000138,-0.0002333857119083,-0.0001342392060905
4.642380859375,0.0060123190920799,-0.0084718593397177,0.0473942038595676,4.42746677435e-05,0.0015107179060578,0.0033483763691037
4.65235986328125,0.006733217245154,-0.0010245390084572,0.0415571682691574,0.0008671814575791,-0.0002904580906033,1.0003321222e-05
4.6623388671875,-0.0015798713362775,-0.0023405169778503,0.0451473017156124,0.0007044622907415,0.0017202282324433,0.0036521423608064
4.67231689453125,-0.0084364592327736,-0.0033916699985973,0.0487391887277364,-0.0007862888742238,-0.000733645632863,0.0003955805150326
4.682295654296875,-0.0069086651436053,0.0076829922506585,0.0488958405941724,0.0035743713378906,-0.0019613625481724,0.0025727148167788
4.692274658203125,-0.0003665500237606,0.0037059783784672,0.044110944405198,0.0003034378169104,0.001514246687293,-0.0003583174548111
4.702253662109375,0.0003585128477774,-0.006203658679407,0.0484492658704519,-0.0015365402214229,0.0007837414741516,-0.0008012010948732
4.712232666015625,0.003287259776052,-0.0030350568469613,0.0479968459278345,0.0001110124285332,-0.0019360613077878,-0.0011764595983549
4.722211669921875,0.0075354735387489,-0.0001202471124939,0.0388712901860475,-0.0006959253223612,-0.0004388317465782,-0.000133565699798
4.732190673828125,0.0050612837112508,-0.0062534526378847,0.0493476760149002,0.0016260431148111,0.0007291352376341,-0.0012820020783692
4.742169677734375,0.0003686871819198,-0.0075026307150721,0.0354354705184698,-5.28136733919e-05,7.4189156293e-06,0.0009521236643195
4.752148681640625,0.0047929698975756,0.0001782061111181,0.040373511442542,-0.0028513625729829,-0.0024467892944812,-0.0012665316462516
4.762127685546875,-0.0002341192831285,-0.0121234771824441,0.0465098222404718,-0.0006997948512434,0.0008336920291185,0.0003654534521047
4.77210693359375,-0.0053245560236275,0.0006728212276473,0.0445621953040361,0.0003092621336691,0.0013768346980214,-0.0003032108943443
4.782085693359375,-0.0080465283334255,0.0039379970360547,0.0469604886174201,0.0020903842523694,-0.0005789911374449,-0.0012102836044505
4.79206494140625,-0.004799344839435,0.0017267507273703,0.0563899957418441,0.0014005075208842,0.0024256911128759,0.0016498765908181
4.802043701171875,0.0030418153813108,0.000490779191628,0.0487578934282064,0.0028695070650428,0.0007116803899407,-0.0002827792777679
4.81202294921875,0.0062640470971353,-0.0016849026133306,0.0505535446733236,-0.0001776216086,-0.0010510487481951,-0.0005387512501329
4.822001708984375,0.0001546791050583,0.002801010629069,0.0421744233846664,0.0033731707371771,0.0011801468208432,-0.0003770973999053
4.83198095703125,0.0048935807278379,-0.0001957965667359,0.04666238245368,0.000689479522407,0.001226907595992,-0.0001203283973154
4.841959716796875,0.0054981407585553,-0.0053297253890894,0.0406786318689584,0.0013874940341338,0.0001981286332011,0.0008645085617899
4.85193896484375,-0.0038006526582874,-0.0039755891000851,0.0486117629557847,0.0018482448067516,0.0014917040243744,-0.0010918756015598
4.861917724609375,-0.002552168700844,-0.0063324544245377,0.0566939471244812,0.0004727219929918,-0.0010569412261247,-0.0005065128207206
4.87189697265625,-0.0004656264840625,-0.0015871595935896,0.0360462958931922,-0.0014684945344924,-0.0002669757232069,0.0007183965062722
4.881875732421875,-0.0021606668989174,-0.0031142047640867,0.0378437007039785,0.000311029725708,-0.0005833590403199,0.0001442189968656
4.89185498046875,-0.003466781061422,-0.0047526378871873,0.0361965180188417,-0.0014534543734043,-2.21952795982e-05,-0.0002574079262558
4.901833740234375,0.0040598150511272,-0.0015677059744484,0.048169279885292,0.0004448468680493,-0.0006088903173804,0.0028417124412953
4.91181298828125,-0.0169062544795684,0.0003915200682356,0.0442810402750968,0.0013786773197352,0.0005354657769203,2.9808870749e-06
4.921791748046875,-0.0104038685819134,0.0045228111866861,0.037850130444765,0.00152781419456,-0.0016688331961631,0.0005904742283746
4.931770751953125,-0.0068149772444739,-0.0064224159966222,0.0371036959916353,0.0007957775960676,0.001695885322988,-0.0007182052941061
4.941748779296875,-0.0014469108726829,-0.0062620926020666,0.0397971728593111,-0.0005232861149124,0.0010319594293832,0.0002831432502716
4.951727783203125,0.0095696827800944,-0.0110908827316947,0.0451817885071039,-0.0003838795528281,-0.0006759250536561,0.0004707184561993
4.961706787109375,-0.0035958142685703,-0.0033076632432639,0.0447369673490524,-0.0013556670164689,0.0004588477313518,-0.0011178571730852
4.971685791015625,0.0043454087931662,-0.0057637146258726,0.0484767383992671,-0.0001196419470943,0.0009165564551949,-0.0011863959953188
4.981664794921875,0.0105083518696948,-0.0027185565100051,0.0513180993050336,-0.0002671810798346,0.0001439731568098,0.0009667697013355
4.991643798828125,0.0030989889286458,0.0026667532575316,0.0502723896443843,0.000140062184073,-0.0003424156457185,-0.0024340315721929
5.001622802734375,0.0086153777299448,-0.0008792122536338,0.0330617271244525,0.0016061324859037,0.000490354374051,-0.0001325277262367
5.011601806640625,-0.0008578041394241,-0.0052418461762368,0.0436842434257268,0.0002272186102345,0.0013772593811154,-0.0018806357402354
5.021580810546875,-0.0112511878599412,-0.0090732958315871,0.0402419940173625,-0.0006937024299986,0.0011666025966405,-0.0001756799174472
5.031559814453125,-0.0052284752380102,-0.0087617456643842,0.0363490782320499,0.0005313659203238,1.59246847033e-05,-0.0004196730442345
5.041538818359375,-0.0061432154627516,-0.0120339357354678,0.0382943670809268,-0.0002465434372425,-0.0016325721517205,-0.0024977377615869
5.051517822265625,-0.0042976241286844,-0.0029007629428058,0.0538578469157218,0.0007776155835017,-0.0019253781065344,-0.0014724228531122
5.061496826171875,0.0015929682798683,0.0025282033033668,0.0381447294771671,-0.0016370725352317,0.0010738745331764,-0.0002098181139444
5.071475830078125,-0.0010082271944731,-0.0107432931367307,0.0421843602567911,0.0018023636657744,0.0006821621209383,-0.0002279462496517
5.081454833984375,-0.0045350496137514,-0.0025750746523961,0.0376946476221084,-0.0002269649994559,0.0008872263133525,-0.0001709546049823
5.091433837890625,-0.0058784818456508,-0.0122479803449474,0.0388864877551794,-0.0025306702591478,0.0011263191699981,-0.0009771269978955
5.101412841796875,0.0005649769390001,-0.0083708466506563,0.0489122072070837,-0.0018901799339801,-6.59776851534e-05,0.001792826806195
5.111391845703125,-0.0077879869950935,-0.0010125197771005,0.046516836503148,3.00289830192e-05,-0.0010354807600378,-0.0002485055010765
5.121370849609375,-0.0064098122433759,-0.0044499651461839,0.0357458516418933,0.0014348464319482,0.001980016939342,5.00348396599e-05
5.131349609375,-0.0058725818278267,0.0077775021336972,0.040235564276576,0.0005762218497693,0.0014044372364878,-0.0019420807948336
5.14132861328125,-0.0056905763244256,0.0122677079587243,0.0490612602889537,0.0005453291814774,0.002947206608951,0.0003493030380923
5.1513076171875,0.0012773081931285,-4.83143874444e-05,0.0475654687732458,-0.0005439488450065,0.0004188604652881,-0.002233128529042
5.16128662109375,0.00746931296736,0.0029008908069692,0.0531026446342468,0.0016217338852584,-0.0011420175433158,0.001258808420971
5.171265625,-0.003567976413574,-0.009118322283402,0.0483107341825962,0.002105290768668,0.0010406328365206,0.0001838312600739
5.18124462890625,0.0018994952120818,-0.0058564709432423,0.0578881253451108,0.0007915533496998,-3.60831618309e-05,0.0011356450850144
5.1912236328125,-0.0073316945949569,-0.0129788519027642,0.0490624293327331,-0.0008639040170237,-0.0012558065354824,-0.0002455191570334
5.20120263671875,-0.0089992442146874,-0.0070406940254382,0.0444248326599597,0.0021638439502567,0.0004310393705964,-6.0695776483e-05
5.211180908203125,-0.0049993426572531,-0.004060454371944,0.0475660532951354,-0.001327114063315,0.0009878315031528,0.0019886502996087
5.22115966796875,0.0051613465522415,0.0014748400592245,0.0337964711397886,-0.0013292445801198,-0.0001610564067959,0.0003755738434847
5.231138916015625,0.0075476754331961,0.0016177556612528,0.0483107341825962,-0.0017668763175606,-0.0006836503744125,0.0010278342524543
5.24111767578125,0.0021493600536137,0.0027752916659228,0.0525000025659799,0.0001897480688057,-0.0004394389688968,-0.0003727221046574
5.2511005859375,-0.0066863641624338,0.0053094132534228,0.0436672922909259,0.0006411437061615,0.0031903674826025,-0.0009389035985805
5.261079345703125,-0.0023872604627162,0.0033685996502637,0.042917350706458,0.0017298439051955,0.0019895480945706,-3.07656664517e-05
5.27105859375,-0.0035588249927386,0.0031320509480312,0.048754970818758,0.0006679755169898,-0.0016367761418223,-0.0020342217758297
5.281037353515625,-0.0084702519045211,-0.0069007558317855,0.0456155037492513,-0.0003384330775588,0.0031103082001209,0.001100318855606
5.2910166015625,-0.0099434662622399,-0.0113919115048833,0.0481564204037189,-0.0013706913450732,0.0012137694284319,-0.0005369352875277
5.300995361328125,-0.0013158866378478,-0.0107531204110011,0.0530915387183427,0.0019361558370292,-0.0004294011741876,0.0001216644595842
5.310974609375,0.0048413025513291,0.0031881467831321,0.0471072036117315,0.0003008423373103,-0.0012790476903319,0.0008508452447131
5.320953369140625,-0.0027401472873054,-0.0058808016669005,0.0382838456869125,-0.0002805257681757,-0.0016162041574716,-0.0004668868787121
5.3309326171875,0.0020115407518111,-0.0026268961711786,0.0498047721326351,0.0003930638195015,0.0023265546187758,0.0002432604669593
5.340911376953125,0.0036326939465478,0.0081949968934059,0.0316951149463653,0.0011390151921659,0.0013281358405947,-0.000607885827776
5.350890625,0.0011554536454379,0.0004804221943952,0.0394791929513216,-0.0011573836673051,-0.0019140187650918,0.0004435715964064
5.360869384765625,-0.004390033386182,-0.0063549950499087,0.0414297424972057,0.0004796613357029,-0.0026658298447728,-0.0024480887223035
5.3708486328125,-0.0072800192066468,-0.0014233473340049,0.0429278721004724,0.0017220504814758,0.0008259620517492,0.0004774275585077
5.380827392578125,-0.0090907036241143,0.0026913579758256,0.0508610031872987,-0.0008289915858767,-0.0031559960916638,0.0015301750972867
5.390806640625,-0.0120169115354307,-0.0038464280287735,0.056250295010209,-7.11800530552e-05,-0.0006815278902649,-0.0019343671156093
5.400785400390625,-0.0042449806259945,-0.0038310660628601,0.0601443798393011,-0.0020147550385445,-0.0039151380769908,0.0001490237918915
5.4107646484375,0.0025324410870671,-0.0158518865884281,0.0465273578971624,0.0004047352122142,0.0009780786931514,-0.001152828335762
5.4207431640625,0.0111613176194019,-0.0074247066406533,0.0390425550997257,-0.0013726584147661,-0.0021247705444693,0.0019028825918212
5.430722412109375,-0.0029275778844952,0.0033724173088558,0.038297874212265,-0.0004349336959421,-0.0018758624792099,0.0017781571950763
5.440701171875,-0.0086878949768841,-0.0089514047512784,0.0435386974751949,0.0009424532181583,-0.0012588072568178,0.0004950460861437
5.450680419921875,-0.004396262197569,-0.0078698017933405,0.0531149195939302,0.0002611838281154,0.0031412271782755,-6.63326500216e-05
5.4606591796875,-0.0005370294861495,0.0017744440603069,0.0403963077962398,0.0013687926111742,9.03103500604e-05,-0.0004935036413371
5.470638427734375,-0.0048615233554504,0.0114235122195445,0.0526712674796581,0.0003661348600871,-0.0030930768698453,0.0001364495692541
5.4806171875,-0.0009339015829376,-0.0013157770399935,0.0481862310200929,-0.0001348057412542,0.0006824862211942,-0.0014262932818382
5.490596435546875,0.0026432445177808,0.0033346425817348,0.0528249967366456,-0.0024020709097385,0.0001212647184729,-0.0013611308531835
5.5005751953125,-0.0002319273260422,-0.0025470724006183,0.0556640195548534,-0.0024513395037502,-0.0006220238283276,-0.0001770893577486
5.510554443359375,-0.0011886983279138,-0.001052559526544,0.0492278490275144,0.0001179029932245,0.0017615929245948,0.0015226847026497
5.520533203125,0.0008520502520725,0.0021360621806234,0.0447387209147214,-0.0011604143073782,-0.0012224791571497,-0.0002951890055555
5.530512451171875,0.0005418335254304,-0.0026635931860655,0.0460848748266696,0.0012764441780745,0.0005907798185944,-0.0002172754902858
5.5404912109375,0.0002743599619716,-0.003859780700691,0.0514724130839109,6.60373480059e-05,-0.0029163369908928,-0.0004785315832123
5.550470458984375,-0.0003605404080823,0.0003356068962253,0.0537198997497558,0.0009114324930123,-0.0008664922788739,-0.0001727628696244
5.560449462890625,0.0162648695698007,-0.0043666159779764,0.0466898549824953,0.0027924231253564,-0.0004816660657525,0.0008171341032721
5.570427490234375,0.0066454476301558,0.0010582586149685,0.059262336307764,-0.0018626940436661,-0.0004791868850588,0.0003336267545819
5.580406494140625,-0.0055449938412755,-0.0040332741040736,0.0441506918936967,0.00360211241059,0.0006542550399899,-0.0012624056544154
5.590385498046875,-0.0088672701317816,-0.0021628588560037,0.0387643226802349,0.0020632576197385,0.000516714528203,-0.0016080120112746
5.600364501953125,0.0029424466600641,0.0065914158879779,0.0419078814029693,-0.0013594368938356,0.0003739688545465,0.000928116205614
5.610343505859375,-0.0080984959826804,-0.0029585940772667,0.0472924970507621,-0.0003550462424755,0.002945203334093,0.0005065727746114
5.620322265625,-0.0074855699824169,-0.0051056525759398,0.0505827707678079,0.0004960999940522,0.0003169300034642,0.0001499754725955
5.63030126953125,0.0002124189079739,-0.0048883565634489,0.0402583606302738,-0.0023446858394891,-0.0035146698355674,0.0007214624783955
5.6402802734375,-0.0005910977609455,-0.0019046097786165,0.0495376456290483,0.0003024962497875,-0.0002139480784535,-0.0003704335249494
5.65025927734375,-0.0003732537591829,-0.00678555022059,0.0451975705981254,0.0017384784296154,-0.0001548090949654,-0.0001753155083861
5.66023828125,0.0057310909979045,-0.007264164050389,0.0291851779520511,0.0001483048545196,-0.0001939581707119,-0.0002482861164025
5.67021728515625,-0.0002556187288835,-0.0054777190250344,0.0532762476354837,-0.0002415557391941,-0.0021333880722522,0.0016501182690262
5.680196533203125,0.0051960160068236,-0.0023111812855117,0.0501356115221977,0.0002881470136344,0.0021079620346426,-7.88058750913e-05
5.69017529296875,0.0018733743901364,0.000414846144896,0.0413046548128128,0.0005723364884033,0.0001923413947224,3.5353230487e-05
5.700154541015625,0.0056444356277585,-0.0102339736414141,0.0559691399812698,-0.0001435211743228,-0.0005725184455513,0.001555485650897
5.71013330078125,-0.0048437685030512,-0.0023088979968801,0.0405570513159036,-0.0005047019803896,-0.0016076834872364,0.0007633215864188
5.720112548828125,0.0083446892960928,-0.0059444780202582,0.0472930815726518,0.001931557781063,-0.0013770535588264,-0.0004854346625506
5.73009130859375,0.0094911011185497,-0.0051748636209405,0.0483399602770805,-0.0011566253378987,0.0033608637750148,-0.0004556257918011
5.740070556640625,0.0031439423152245,-0.0073938548446632,0.0438467405110597,-0.0015220111235976,0.0005323207005858,-0.0004652131756301
5.75004931640625,-0.0118180279624648,-0.0003125000152736,0.0433989967435598,0.0023194223176687,0.0002925349399447,0.0001572690089233
5.760028564453125,-0.0063273398580029,-0.0012366108565591,0.0528279193460941,-0.0015317748766392,-0.0019181556999683,0.0022502474021166
5.77000732421875,-0.0047498979408293,0.0008737688935361,0.0483411293208599,0.0019212418701499,-0.0010846890509128,-6.070695235393941e-07
5.779986572265625,0.0052666335576213,0.000751384622883,0.0499871429622173,0.0008740870398469,-0.0001911986619234,0.0015757179353386
5.78996533203125,-0.0083136365707032,-0.0024907025708816,0.0449012180000543,0.0002623632317408,0.0003300290554761,-0.0014362481888383
5.799944580078125,-0.0077543039212003,-0.0120514165932312,0.0550759905338287,-0.0002391099696978,0.0003276318311691,-0.0009816465899348
5.80992333984375,0.0021375600179657,-0.0011082352365367,0.0549240148425102,-0.0008847564458847,0.0012362617999315,-0.0006896380218677
5.819902587890625,0.0052132959351874,0.0016162212912924,0.0392108974039554,0.0005935642402619,-0.0019355630502104,0.0017548775067552
5.82988037109375,-0.0002622676653787,-0.007785393179208,0.0437017790824174,-0.0002208919613622,-0.0008077071979641,-0.0022556681651622
5.839859375,0.0067080828038975,-0.0064412120286375,0.0413122535973787,0.0001322432071901,-0.0011190306395292,-0.0005781428772024
5.84983837890625,0.0055413223131559,-0.00377418477647,0.0501437948286533,-0.0005490801413543,0.0001856843009591,-0.0004159457457717
5.8598173828125,0.0029078868033364,-0.0055590771655552,0.0435550640881061,-0.0021325957495719,0.0024802638217806,-0.0013981194933876
5.86979638671875,0.0028968174200505,0.0010970562553964,0.0483382067114114,-0.0012220735661685,0.001375263556838,-0.0012504558544605
5.879775390625,-0.0017869747483171,-0.0035713191481307,0.0419026207059621,0.0009097869042307,0.0013957703486084,0.0023280337918549
5.88975439453125,0.0135033324345946,0.0005995185294188,0.0444464599698781,0.0006081490428186,0.0014399234205484,-0.0005996811087243
5.8997333984375,0.0023922654313966,0.0016637319611385,0.0411503410339355,-0.0019492844585329,0.0015027737244963,-0.0003357618115842
5.90971240234375,-7.49466660432e-05,-0.0089387279327958,0.0404044911026954,0.0013096191687509,-0.0029804706573486,-0.0010402482002973
5.91969140625,-0.0089361523832194,-0.0043046566576696,0.0493850854158401,0.0009317166404798,0.0022462494671344,-0.002201119903475
5.92967041015625,-0.0033060923406854,-0.0122961851345375,0.04384615598917,-0.0008611880475655,-0.0002988558262586,0.0010200339602306
5.9396494140625,-0.0066437488634139,-0.002335566808097,0.0481838929325342,0.0012107512447983,-0.0017811711877584,0.0009987286757677
5.94962841796875,-0.0031199038525111,-0.0034756402213126,0.0363677829325199,0.0027513217646628,0.0002655060961842,0.000906620407477
5.959607421875,-0.0068325859664008,0.0033977526795119,0.0438502476423978,-0.0011067996965721,-0.0005859062075614,-0.0025720007251948
5.96958642578125,-0.0099223869415931,0.0079959671899676,0.048040685069561,0.0003391985665075,-0.0012633390724658,0.0008579815039411
5.9795654296875,0.0021095577661879,0.0037842677790671,0.041606268107891,-0.0023127773310989,0.001328982412815,-0.0007106203702278
5.98954443359375,0.0022251652361825,-0.0004780658405274,0.0466945311576127,0.0008259374881163,0.0019388347864151,-0.0014311816776171
5.9995234375,-0.0004681107020936,-0.0102994583593681,0.0369692559570074,-0.0006819443660788,-8.78311693668e-05,0.0007358324946835
6.00950244140625,-0.005517795307096,-0.0033678141989745,0.0455003529369831,-0.0013759091962128,0.0009710062295198,-0.0010633062338456
6.0194814453125,0.0069514083067886,-0.0048612858934327,0.0532791702449321,-0.0001556488568894,0.0014322660863399,-0.001342405565083
6.02946044921875,-0.0042141105636954,-0.0046636444294825,0.043853754773736,0.001731434254907,-0.0015084948390722,0.0012088390067219
6.039439453125,-0.0110096341890282,-0.0038049452409148,0.0434089336156845,0.0001809417735785,4.2263418436e-05,-0.0003352618077769
6.04941845703125,0.0026746077704243,0.0022850787298753,0.0465524923384189,4.99471789225e-05,-0.0005933782085776,-0.0003565063816495
6.0593974609375,-0.0055706762718036,0.0043138263448141,0.0384703081697225,0.0003969570389017,0.0016572587192058,-4.65144439658e-05
6.069376220703125,0.0079984696743078,-0.0019587511186487,0.0399655151635408,0.00141033064574,0.0001116665080189,0.0015161817427724
6.079355224609375,0.0135563777960836,-0.0016462876359932,0.0540326189607381,0.0016486835666,0.0011785291135311,-0.0002305857051396
6.089333251953125,0.0014738536785356,0.0078427493896335,0.0444563968420028,0.0018328921869397,6.76335766911e-05,-0.0014426236739382
6.0993125,-0.000194773653429,0.0037377252236008,0.0508949054569005,0.0037229377776384,-0.0001257117837667,-0.0003155740268994
6.109291259765625,-0.008178411084786,0.0033501689444296,0.038924481678009,-0.000303034146782,-0.0030915923416614,-0.0019502759678289
6.1192705078125,-0.0024583894701674,-0.0037504385747015,0.0405728334069252,0.0010144317056983,0.0003556031733751,0.0002209992671851
6.129249267578125,-0.0046187093092128,-0.0070279258754104,0.0528413633495569,0.0008604580070823,-0.0010034972801804,-0.0024946816265583
6.139228515625,0.0019684322624467,-0.0024356844480149,0.0368295552253723,0.0019819152075797,0.000776826404035,-0.0018643116345629
6.149207275390625,0.0006591580284759,-0.0102799499412998,0.04386486068964,-0.0002200641320087,-0.0023519322276115,-0.0012006761971861
6.1591865234375,-0.0082507639349438,-0.0045188291313126,0.0489554618269205,-0.0022033201530575,-0.0003518983721733,-0.0011889582965523
6.169165283203125,-0.0126818417175672,-0.0023231457179412,0.0408756157457828,-0.0022009329404681,-0.0007548667490482,0.0008379422361031
6.17914453125,-0.0040808578391559,0.0049056912907399,0.0459597871422767,-0.0007551028393208,0.0021264078095555,-0.0014838016359135
6.189123291015625,0.0018636019147932,0.0002727159941568,0.0407213019669055,-0.0020840459037572,-0.0018822960555553,0.0033395094797015
6.1991025390625,-0.0072760006186552,-0.0008703896263614,0.0486538485318422,0.0024116362910717,-0.0005656294524669,-0.0001175399956991
6.209081298828125,-0.0030216128434985,-0.0072782839072868,0.0473082791417837,-0.0008449262822978,0.001868475228548,-0.0005786700639873
6.219060546875,-0.0027332974214106,0.0008587722538039,0.042367315608263,0.0022925436496734,0.00212839897722,3.97159346903e-05
6.229039306640625,0.0035503676916472,-0.0060567610220052,0.0420703784883022,0.0013403454795479,-0.0020508263260126,0.001399633125402
6.2390185546875,0.0073486639960668,-0.0082779807354323,0.0431195952802896,0.0001765441847965,-0.0015727886930108,-0.0009577970486134
6.248993896484375,-0.0002001439482904,-0.0019343107971362,0.0506043980777263,5.67153329029e-05,0.0001188796013593,-0.000238610926317
6.258972900390625,0.0021761749953031,-0.0042437019843608,0.0398228918224573,0.0006109192036092,0.0012009218335151,-0.0015323746483772
6.268951904296875,-0.000840122352261,-0.0026841062511317,0.0495499205887317,0.0022376920096576,-0.0016326503828167,-0.0005434158374555
6.278930908203125,-0.0009538666587322,-0.0086028470419347,0.0447632708340883,-0.0025061967317014,-0.0015618102625012,0.0005290391272865
6.288909912109375,-0.0013705394345335,0.0067651650196872,0.0440150828152894,0.002442184370011,-0.0017960937693715,0.0012608317192643
6.298888916015625,-0.0035932204526849,0.0030938926284201,0.0476081388711929,-0.0008500153780914,0.001422869041562,0.0008541670977137
6.308867919921875,-0.0045972463960759,-0.0041110155154019,0.0577840804487466,0.002063684631139,-8.13696533441e-05,-0.0013516066828742
6.318846923828125,0.0052886444600299,0.0034667993277311,0.0538952563166618,-0.0006577997701242,0.0011945506557822,-0.0006312215700745
6.328825927734375,0.0075962272826582,-0.0116828572754748,0.0464110380411148,0.0013797136489301,-0.0007559098303318,0.0007078014896251
6.3388037109375,-0.0014290281561203,-0.0033070787213742,0.0404243648469448,7.02372053638e-05,0.0001871157437562,0.0015688014682382
6.348782958984375,-0.0063761839684098,0.0011115962374024,0.0456628500223159,-0.000331150367856,0.0007745046168565,0.0001882820215541
6.35876171875,-0.0041440775347873,-0.0023707111867144,0.0419230789721012,0.0007988288416527,0.0007896851748228,0.001260204357095
6.368740966796875,-0.0011698292306624,-0.0042859702235087,0.0474596703112125,0.0006111024995334,-0.0016659162938594,0.0016256800154224
6.3787197265625,-0.0011358904284425,-0.0065405624835751,0.0506032290339469,-0.0005441767862066,-0.0003316728398203,0.0010491055436432
6.388698974609375,0.0026815124352462,-0.002386858603917,0.0464145451724529,-0.0013844274217262,0.0003632931038737,-0.0014438533689826
6.398677734375,0.0023246435552835,-0.0027446590656414,0.0443166961103677,-0.0004467284015845,0.0004016421735286,-0.0024047219194471
6.408656982421875,0.0026583324890583,-0.0019976948895491,0.0426683443814516,-0.0019862919580191,0.0009202528744935,-0.0001473861775593
6.4186357421875,-0.0031649668369442,0.0026961985477246,0.0452075074702501,-0.0012693689204752,0.0001711063086986,0.0027258982881903
6.428614990234375,0.0040047786619514,0.0060768174293451,0.0613695377200841,0.0016906114760786,0.0005818177014589,-0.0009471399825997
6.43859375,-0.0042490722792223,-0.0011605134130455,0.049549336066842,0.0012794195208698,-0.0006357794627547,0.0006784535362385
6.448572998046875,0.0002355440552346,0.002002170135267,0.0493996984630823,0.00126117200125,0.0014335755258798,-0.0034392385277897
6.4585517578125,-0.0021778920283541,-0.0018288959275931,0.0461082557022571,-0.0002927823807112,-0.0019531659781932,0.0015842820284888
6.468531005859375,0.0056093825806863,0.0013753617401234,0.0423696536958217,-0.0028762347064912,-0.0031127873808145,0.000359128403943
6.478510009765625,-0.0050715311106294,0.0053489415462128,0.0287532162755727,-0.0023457328788936,0.0009168414399027,-0.0009958880254998
6.488489013671875,-0.0024235373524948,0.0022195026803761,0.0453594831615686,-0.0026214667595922,0.001634232699871,0.0009317798539996
6.498468017578125,-0.0047885129181668,0.0066932140283286,0.0516390018224716,-0.0006842833245173,0.0006422055885195,0.0015565573703497
6.508447021484375,0.0019860592506825,0.0088332217317074,0.0384726462572813,0.0016531811561435,-0.0005412399768829,-1.00633533293e-05
6.518426025390625,-0.0015122494601644,0.0010481573460623,0.0363794733703136,0.000856097030919,-0.0006712023168802,0.000415776099544
6.528405029296875,0.0002942885051481,-0.0081473035604693,0.0396732542186975,0.0011134673841297,0.0007848190143704,-0.001521433936432
6.5383837890625,-0.0038020408977754,0.0007510010303929,0.0419154801875352,-0.0025925876107066,0.0015384936705231,-0.0013259578263387
6.54836279296875,0.0059616300844587,-0.0041496852916665,0.0485007037967443,-0.0002572720404714,-9.79090109467e-05,-0.0014064045390114
6.558341796875,0.0008419124505482,0.0021132292943075,0.0467038835078477,-0.0004492859297897,-0.0003213481977581,0.0010732647497206
6.56832080078125,0.0012241897664032,-0.0037147827394306,0.0541881017833948,0.0004657389363273,0.0009501026943325,5.5928894653e-06
6.578300048828125,-0.0154712349740788,0.0006931150970049,0.0510445430606603,-1.97552726604e-05,-0.0012243678793311,0.0020346553064882
6.58827880859375,-0.0120056960216723,-0.0064838638602755,0.0538888265758752,0.0008102346328087,-9.21376049518e-05,-6.3907536969e-05
6.598257080078125,-0.0033172347892075,-0.003391213340871,0.0496972201049327,0.0001891854335553,0.0007353071123361,0.0004916278412565
6.60823583984375,-0.0117665717698633,0.0012294869960285,0.0435603247851133,-0.0014193530660122,0.0018828948959708,-0.0012692890595644
6.618215087890625,-0.0053386576142162,-0.0007265241762623,0.0483411293208599,0.000411037588492,0.0026834411546587,2.8469323297e-05
6.62819384765625,0.0004642199782654,0.0040202867583371,0.0558212559431791,-0.0004045743262395,-0.0006078276783227,-0.0012707079295068
6.638173095703125,0.0011338811344467,-0.0057915159482508,0.0438508321642875,0.0009019724675454,0.0008403994143009,4.1472380871e-06
6.64815185546875,-0.0035367044924758,-0.002056238410063,0.0450467639505863,-0.002130608074367,-0.0009684786200523,-0.0014946640003472
6.658131103515625,-0.0018917137644253,0.0035643231517635,0.0422018959134817,0.0005543907172977,0.0017538052052259,-0.0023852251470088
6.66810986328125,0.0002657747967168,0.0021933818584308,0.0523778374910354,0.002631549956277,0.000127718783915,-0.001242960919626
6.678089111328125,0.0033078276400454,-0.0026979155807755,0.0496831915795803,0.0020469862502068,0.0006699375808238,0.000746953068301
6.68806787109375,-0.0049046683774329,0.0024356296490877,0.0447428125679492,-0.0004903975059278,0.0009714998304843,0.0006649265415035
6.698047119140625,0.0007206424247473,0.0127525140672922,0.0444417837947607,0.0012004433665424,0.0014665815979242,-0.0023220749571919
6.70802587890625,0.0053743682484142,0.0092857695384882,0.0404044911026954,0.0012723305262625,-0.0015333732590079,-0.0010143209947273
6.718005126953125,-0.0064477331009693,0.0027216069836169,0.0420528428316116,0.0001705808099359,0.0007774513214826,-0.0014561394928023
6.72798388671875,0.0051179275356233,-0.0030262159533798,0.0380091203987598,0.0003802553983405,0.0005904044955968,0.0003548469976522
6.737962890625,0.0047927141692489,0.0031078663548454,0.0508773698002099,-0.0009204324451275,0.0010426100343465,0.0016560675576329
6.747941650390625,0.0017583331757225,-0.001695442273654,0.0597048193782567,0.0003556365263648,0.0003556869924068,0.0014299652539193
6.7579208984375,-0.000389218513295,0.001262567281723,0.0516226352095603,-0.0008278722525574,0.002142934128642,-0.0001152007025666
6.767899658203125,-0.0027321101113222,-0.0039777079919353,0.0534171174108982,-0.0006317910738289,-0.0020384490489959,0.0026568607427179
6.77787890625,-0.0069006462339311,-0.0138059321103617,0.0541664744734764,0.0005112375947646,0.0006042057648301,0.0009202133514918
6.787857666015625,-0.0014784385221078,-0.0032508184894919,0.0450344889909029,-0.0011038298252969,-0.0002018306404352,0.0004178917151875
6.7978369140625,-0.0018297544441185,0.0020446758364327,0.0523708232283592,0.0003430655924603,-0.0017661713063716,-0.0001810531975934
6.80781591796875,-0.0037428945890627,0.001714146974124,0.0417471378833055,0.0007073967135511,-0.0023356806486845,0.0020940410904586
6.817794921875,0.0016096636863425,-0.0025681517212651,0.0547656094104051,0.0014283144846558,0.001844416372478,-0.0007036096067167
6.82777392578125,0.0026823892180807,0.0002378638764843,0.0489297428637742,-4.83209732919e-05,-0.0020862407982349,0.0017948007443919
6.837751953125,0.0068313986563123,0.002814527697768,0.0546224015474319,0.0011509002652019,-0.0025363154709339,-0.0001373226114083
6.84773095703125,0.0074227704118937,-0.0033310989177785,0.0474433036983013,-0.0003463106113485,-0.0030262703076004,0.0012646419927477
6.8577099609375,-0.00110662780134,-0.0165001944293268,0.0428045379817485,-0.0035538219381123,0.0017008408904075,-0.0004554937477223
6.86768896484375,0.0094187665347009,-0.0087161894896067,0.0395072500020265,-0.0025754731614142,0.0007245698943734,-9.81373887043e-05
6.87766796875,-0.0027352519164793,-0.0070315426046028,0.0586585251957178,-0.0015280517982318,-0.0008474942296743,-0.0005508747417479
6.88764697265625,-0.0077934851541183,-0.0021516798748634,0.0543184501647949,-5.39921456947e-05,-0.0004243180155754,-0.0001319595321547
6.8976259765625,-0.0029518903418444,0.002841561835166,0.0477367336869239,-0.0015920386649668,-0.0006203232333064,-0.0002225766947958
6.90760498046875,0.0110192970665171,0.002434332741145,0.0435486343473196,0.0015445118770003,-0.0001014443114399,0.0009189207339659
6.917583984375,0.0078448317488655,0.0010925262107513,0.0426531468123197,-5.52490819245e-05,-0.0020117294043302,0.0010299745481461
6.92756298828125,0.0008061104848049,-0.0018172602887265,0.0457967055350542,2.83548724837e-05,0.0015373239293694,-0.0013109403662383
6.937541748046875,0.0001235715807415,0.0025595117570832,0.0422042340010404,0.0003591194399632,-0.0007098522037267,0.0006065356428734
6.947520751953125,-0.0018507606995292,-0.0030342165967449,0.0438520012080669,-0.0011938423849642,-0.000576676800847,-0.0003880714357364
6.957499755859375,-0.0098496139663271,-0.0098901469061151,0.0402665439367294,-0.0023427300620824,-0.0012070471420884,-0.0002751534048002
6.967478759765625,-0.0051290334515273,-0.0082680803959257,0.0452034158170223,-0.0001306115300394,0.0020137121900916,-0.0006729083834215
6.977457763671875,0.0007831680006347,-0.0057123132321983,0.0405658191442489,-0.000308244372718,-0.0004292055964469,-0.0001344171760138
6.987436767578125,0.0016573570192791,-0.0128207021989859,0.0477466705590486,0.0021513265091925,-0.0031669382005929,-0.0011525626759976
6.997415771484375,-0.0010326127170585,-0.0067510634290985,0.0419131420999765,-0.0003539091558195,-0.0004739491268992,-0.0005629387451335
7.007394775390625,0.0010977869077585,0.0038349385203793,0.0411649540811777,-0.0013980523217469,0.000779228284955,-0.0001768049987731
7.017373779296875,0.0055530127509497,0.0008442140054889,0.0401169063329696,0.0007774839759804,0.0007848208770155,0.0012775473296642
7.027352783203125,-0.0035339097471907,-0.0016657229888252,0.0455026910245418,-0.0007063057273626,0.0002816505730152,-0.0018720797961577
7.037331787109375,0.0021805589094758,0.0001711187832057,0.0456511595845222,-0.0003806011518463,-0.0019330345094203,0.0009258372592739
7.047310791015625,-0.0132900732764042,0.0074975161485373,0.0410112248241901,0.0010574790649116,0.0007292199879884,-0.0011358711635693
7.0572900390625,0.0015270817031152,-0.0030892164533026,0.047592941302061,0.0007775808335281,-0.0009400490671396,0.0007555058109574
7.06726904296875,-0.0039409013791941,-0.0134298836058937,0.0490910709053277,-0.0014112903736531,0.0003403201699256,0.0005120200803503
7.077248046875,-0.0021803214474581,-0.0097724022779613,0.0398112013846635,-0.0018222162034362,0.0004851957783102,0.0025197772774845
7.08722705078125,0.0119205750214867,-0.0057116556450724,0.046389995253086,0.0005603756289929,0.0002705743536353,-0.001028211088851
7.097205078125,0.0035778950193896,-0.0065505906872451,0.039804771643877,-0.0008090218761935,0.000132355839014,-0.0001986364368349
7.107183837890625,0.0075985288375988,-0.001769603488408,0.0427969391971826,-0.0011296366574242,-0.0006239488720893,0.0013905954547226
7.1171630859375,-0.0054761663887649,0.001689560522139,0.0462374350398778,0.001395306433551,0.0015332112088799,0.0015479882713407
7.127141845703125,0.0006848769916221,0.001721453497745,0.059702481290698,0.0016345530748367,0.0019179442897439,-0.0008263185736723
7.137120849609375,-0.0086333883106708,0.0050746729157865,0.0442874700158834,-0.0035223918966948,0.000924851745367,-0.0008209922234527
7.147099609375,-0.0050775224599987,0.0009234532541595,0.0406932449162006,-0.0001026056706905,3.69772315025e-05,-0.001073469989933
7.157078857421875,0.0062664582499302,0.0048514768854714,0.0418903457462787,0.000475832959637,-0.0006144326180219,0.0015287046553567
7.1670576171875,0.0005696713804267,0.0072049812090583,0.0474257680416107,0.000488732184749,0.0005596354603767,0.0005802072118967
7.177036865234375,0.0017879063300788,0.00775315314373,0.0381441449552774,-0.0014292764244601,0.0005090348422527,-0.0004770677478518
7.187015625,0.0011093677476979,0.0008266783487983,0.0439811805456876,-0.0009806110756471,-0.0005969256162643,-0.0003412457881495
7.196994873046875,-0.0094020711282268,-0.0129374604464508,0.044579146438837,0.0005435160128399,0.0029607908800244,0.0001088284261641
7.206973876953125,-0.0051686530758626,-0.0067035892918705,0.0442787021875381,0.0019684440921992,0.000204942189157,-0.0005400811787694
7.216952880859375,0.0030458887682296,-0.0032646278191357,0.0441290645837783,-5.34277060069e-05,0.0011042924597859,-0.0001701680885162
7.226931884765625,0.0019229856855235,-0.0033654943777248,0.0507154572367668,0.0009215137106366,-0.0004115169867873,0.0004710494540631
7.236910888671875,0.0010793927345424,0.0065735331714153,0.0435351903438568,0.0030986480414867,0.0010747928172349,-0.0031993191223591
7.246890625,0.0002701221782714,-0.0047869968145154,0.043836803638935,-0.0019582835957407,-0.0026695020496845,-0.0011878738878294
7.25686962890625,0.0030688129860907,0.0014721001128666,0.0439846876770257,-0.0013654637150466,0.0004117749631404,-0.0013047866523265
7.2668486328125,-0.0064894168182276,-0.0027846257498487,0.0417395390987396,-0.0006596649182029,0.000183742493391,0.0003065136261284
7.27682763671875,-0.0055992813117802,-0.001029671841301,0.0291693958610296,0.0004476774483919,5.21820038557e-05,0.0001485881803091
7.286806640625,-0.0105521910114213,0.0051459480537101,0.052061611148715,-0.0025339061394333,0.0025953175500035,0.0004035920719616
7.296785400390625,-0.0008856602607294,0.0068027936163358,0.038141222345829,0.0001268581254407,0.0006759772077202,0.0019271865021437
7.306764404296875,0.0023109255571849,-0.002107858999446,0.0393383231759071,-0.0012228472623974,-0.0033745220862329,0.0017356948228552
7.316743408203125,-0.0011050934313796,-2.48604466207e-05,0.0511608629167079,-0.0002497282694093,-0.0013276161625981,0.0018683202797546
7.326722412109375,-0.0014652685132808,-0.0045458084697835,0.0561006574064493,-0.0006476996932178,0.0006495518609881,0.0033882742282003
7.336701416015625,0.0081149356608279,-0.0049076275194995,0.0445797309607267,0.0011949413456022,-0.0029526399448513,0.0007072699954733
7.3466796875,0.0086719667553901,-0.0028574535240419,0.0478735118091106,-0.0033502262085676,-0.0006773900240659,0.0001650403573876
7.356658447265625,-0.0079625763770192,-0.0034319472100585,0.0480243184566497,0.000369677261915,-0.000264867208898,0.0022175386548042
7.3666376953125,0.0048687750801444,-0.0121276236345991,0.0529611903369426,0.0014930551405996,0.0013317316770553,0.0021494240500032
7.376616455078125,-0.0075965743425302,-0.000876855899766,0.049821723267436,0.0020363400690257,-0.0009716358035802,0.0008253003470599
7.386595703125,-0.0016914784845896,-0.0016110519258305,0.0519172342419624,-0.0007317697745747,0.0003046700730919,-0.0014340849593281
7.396574462890625,-0.0036732451526448,-0.007880688513536,0.0465273578971624,-0.0003296324866823,0.003199259750545,0.0013012477429583
7.4065537109375,-0.0119698757896199,0.0012779292476363,0.0442816247969865,0.0013908685650676,0.0002355081960558,0.0007184213609434
7.416532470703125,-0.0072471215840429,0.0085434084722772,0.0381464830428361,0.0013895370066165,0.0006112800911068,-0.0013332779053598
7.42651171875,-0.0053883237085305,-0.0073458509844727,0.0504179355949163,-0.000552732264623,-0.000287196598947,-8.77047714311e-05
7.436490478515625,-0.0072980845862999,-0.0009301752558909,0.0502688825130462,0.0016587566351518,0.0003578206524252,0.0003389336343389
7.4464697265625,0.0055724298374727,-0.0027340646063908,0.0411404041618108,-0.0004935783799737,0.0011149710044264,0.0002508623874746
7.456448486328125,-0.004322466308996,0.000766636990942,0.0484708931803703,-0.0005817290511913,0.0010614413768053,-0.0011068171588703
7.466427734375,0.0071518993149511,0.0002454809273593,0.0474234299540519,-0.0014562839642167,0.0015686070546507,-0.000222687725909
7.476406494140625,0.0032377580785192,-0.0012081154144369,0.0453290880233049,0.0022913161665201,0.00105941016227,-0.0001569076266605
7.4863857421875,0.0062146732637658,-0.0067917059667408,0.0589472790092229,0.0001352053368464,-0.0010234173387289,0.0004121345700696
7.4963642578125,0.0050786915037781,-0.00267796877129,0.0483195020109415,-0.00020248349756,0.0031976932659745,0.0001125289709307
7.506343505859375,0.0058982094594277,0.0019786796618252,0.0379933383077383,-0.002561077941209,-0.0031605446711182,-0.0009785018628463
7.516322265625,0.0035689810605719,0.0060302383412607,0.0532581274569034,-0.0002987227635458,-0.0009450614452362,0.0012194049777463
7.526301513671875,-0.0058126866004429,-0.0058162119980901,0.0444324314445257,0.0022678265813738,-0.0009622015058994,0.0027608631644397
7.5362802734375,-0.0063996927081607,-0.0079461732314899,0.0444347695320844,-0.0007572580361738,0.0004327613860368,0.0012958580628037
7.546259521484375,-0.0191197292779572,-0.003880914820265,0.0435346058219671,5.45667717233e-05,-0.0010539516806602,-0.0001756802230374
7.55623828125,-0.0103958131396211,-0.0056506827054545,0.0523649780094623,-0.0032131318002939,-0.0009460942819714,-0.0001466517715016
7.566217529296875,-0.0075927566839382,-0.0126363220754079,0.0415881479293107,0.0008905258728191,0.001541412435472,0.0020521476399153
7.576196533203125,0.0075941083908081,-0.0133797973864711,0.040090018326044,0.0005072969943284,0.000569624826312,0.0024987596552819
7.586175537109375,0.0033792854410596,-0.007850567369908,0.0465238507658243,0.0014157536206766,0.000212550163269,0.0004928835551254
7.596153564453125,0.0001487242883071,-0.0133965841244906,0.0418891767024993,0.0013395872665569,-6.78803771734e-05,-0.0005606630002148
7.606132568359375,0.0114111276620067,-0.0052238538618199,0.045330841588974,-0.0028428370133042,0.0023069065064191,0.000921682047192
7.616111572265625,0.0071076035154983,0.0033470636718906,0.0478700046777725,0.0040590111166238,0.0007074121385812,-0.0013619784731417
7.626090576171875,0.009198036456108,0.009190035812743,0.0444306778788566,-0.0021852166391909,0.0011010449379682,0.000815363950096
7.636069580078125,-0.0025230339379049,0.0033852950567379,0.043982349589467,-0.000382522761356,-0.0008675642311573,-0.0007985116099007
7.646048583984375,-0.004192154460214,0.0112180893079377,0.0442816247969865,-0.0006136911688372,0.0008036419749259,-0.0004986513522453
7.65602783203125,-0.0039118031488731,-0.0025401677357964,0.0477232896834611,-0.0032949615269899,-0.0005907891318202,0.0016100395005196
7.666006591796875,-0.0049441053386777,-0.0047644927217625,0.0505704958081245,-0.0013179776724427,-0.001427105627954,0.0001019517949316
7.67598583984375,0.0044596645562909,-0.0129802401422522,0.0550596239209175,0.0005923077114857,0.0020238179713487,-0.0011036612559109
7.68596435546875,0.0031588476234115,-0.0164814166636206,0.0448895275622606,0.0017537244129925,-0.0017859162762761,-0.0014912878395989
7.695943603515625,0.0027390147761441,-0.0071241710578091,0.0275274738729,-0.0024266394320875,0.0015733949840068,-0.0022675993386656
7.70592236328125,-0.0028959041045978,-0.0045632893275469,0.0453320106327533,-0.0007216494414024,0.0002218596637248,-0.0002052228956017
7.715901611328125,-0.0012658186847344,0.0031644188476726,0.0347100788533687,-1.64443626999e-05,-0.0019472846761345,0.0006525812787003
7.72588037109375,-0.0002397453063167,-0.0046708961541764,0.0417442152738571,0.0017565939342603,0.0006135450676083,-0.0007116091437637
7.735859619140625,-0.0007394749893806,0.0031473581150174,0.0499736989587545,-0.0020107135642319,-0.0001385314390063,0.000388010055758
7.74583837890625,-0.0010487236016429,-0.0017378566432744,0.0481762941479682,0.0025876457802951,0.0019400622695684,0.0015727172140032
7.755817626953125,-0.0041070334600284,-0.0074327438166365,0.0510199931412935,0.0011101239360868,3.69679182767e-05,-1.10646360553e-05
7.76579638671875,-0.0008741524860262,-0.008137165758945,0.0496726701855659,-0.0003555770090315,0.0019837664440274,0.0010981385130435
7.775775634765625,-0.0008455474460497,-0.0080154390754178,0.04727788400352,0.0024380788672715,1.11628323793e-05,0.0015151895349845
7.78575439453125,0.0004202712386846,-0.0012727598821744,0.0415963312357664,0.0012702724197879,-0.0009770514443516,0.000172880856553
7.795733642578125,-0.0059332990391179,-0.0007878441757522,0.0423468573421239,0.0014817273477092,-0.0004430878907442,-0.0006569601246155
7.80571240234375,-0.0025118549567647,-0.0008247969189658,0.0466875168949365,-0.0013036525342613,0.000934506766498,-0.0007083325181156
7.815691650390625,-0.0064789684894494,0.0083877612528391,0.0469873766243457,-0.0016346834599971,-0.0015518199652433,-0.001323789008893
7.82567041015625,-0.0025428528832271,0.0084273443445563,0.0448918656498193,-0.0025693639181554,0.001608963124454,-0.0007182165281847
7.835649658203125,-0.0072397237288765,0.0066636226076632,0.0486357283532619,0.0026720031164586,-0.0019764509052038,0.0016527958214282
7.845627685546875,0.0017714849182404,0.0119390970588661,0.0555202271699905,-0.0005264895153231,0.000924227759242,-0.0010226735612377
7.855606689453125,0.0142109875136055,0.0142359392917715,0.0462403576493263,-0.0013581947423517,0.0001029083505272,-0.0004623444401659
7.865585693359375,0.0109122382291592,0.0068708538838662,0.0528238276928663,-0.0030976978596299,-0.001064796000719,-0.0013874461874365
7.875564697265625,0.017908051933255,0.0007842457128688,0.0604530073970556,0.0005431097815744,-0.0010397620499134,0.0002077873650705
7.88554345703125,0.0021261070421896,-0.0046161885585635,0.0496767618387937,0.0006349892937578,0.0007463777437806,-0.0003102273622062
7.8955224609375,0.0056670127857476,-0.0038666853655129,0.0363607686698436,0.0028235751669853,-0.0003013098612427,-0.000216484098928
7.90550146484375,0.0008031148101203,-0.0090885664659552,0.0444394457072019,-0.0019863052293658,0.0017728200182318,-0.0007943128002807
7.91548046875,-0.0014197123385034,-0.0067038084875792,0.0471335070967674,0.0013738051056861,-0.0004687625914812,0.0009540524333715
7.92545947265625,-0.0022896635734476,-0.0061926988939754,0.0466898549824953,0.0024706828407943,-0.0007640048861503,0.0002702438214328
7.9354384765625,-0.0101428430255502,-0.0051835766503587,0.0401034623295068,-0.0023262028116732,0.0021705329418182,-0.0010592062026262
7.94541748046875,0.0013339154848828,-0.0041943281509913,0.0508715245813131,-0.000275163212791,0.0021814685314893,-0.0001841487537603
7.955396484375,-0.0115386264991946,0.000419357923232,0.049224926418066,0.0004428250249475,-1.99005007743e-05,-0.0009466117480769
7.96537548828125,-0.0047220783521421,0.0011155052275396,0.0436859969913959,-0.0002337601035833,0.0007998254150152,0.0023184444289654
7.9753544921875,-0.0012493790065869,0.001129826013837,0.0400929409354925,-0.0030745540279895,0.000569462776184,0.0004366549255792
7.98533349609375,0.0034598763966001,0.0014479337859898,0.0451829575508832,0.002807569457218,-0.0020086457952857,0.0014038732042536
7.9953125,0.0019678294742479,-0.0084824537989683,0.0405494525313377,-0.0006169893313199,-0.0003052875399589,-0.0006624734960496
8.00529150390625,-0.0087752809993922,-0.0059813942308537,0.0447393054366111,-0.0025029238313436,0.000729595310986,0.001189085189253
8.0152705078125,0.0004276142949238,-0.0028552067680284,0.0429413161039352,-0.0016451197443529,0.0019940640777349,-0.0024669023696333
8.02524951171875,0.000830386409536,-0.0122978839012794,0.0456336239278316,6.27258559688e-05,0.000428982079029,0.0006953557021915
8.035228515625,-0.009544603137765,-0.0098188717681914,0.0474298596948385,0.0017128204926848,0.0001424262300133,-0.0012953572440892
8.04520751953125,-0.0038612785380333,-0.0053633171314373,0.0433884753495454,-0.0028148221317678,0.0022795693948864,0.0003738085506483
8.0551865234375,0.0014287176288664,-0.0035899142507463,0.0462292517334222,7.20444368198e-05,-0.0007412545382976,0.0027876978274434
8.06516552734375,-0.0069815477167256,-0.0047054742772132,0.0421896209537982,-0.0017454272601753,-0.0013947393745183,-0.0009979708120226
8.07514453125,-0.0027870003700256,0.0011602759510278,0.0371025269478559,0.0001241118297912,-0.000289793126285,0.0011277643498033
8.08512353515625,0.0067508624996989,-0.0002606784964911,0.0396475352555513,-0.0011624882463365,-5.19920140504e-05,-0.0001478089834563
8.0951015625,-0.0070157970461994,-0.0018403489033691,0.0454822327584028,0.0008053214987739,0.0009711943566799,-0.0020202775485813
8.105080322265625,-0.0096455792942084,-0.0038887328005395,0.0372545026391744,-0.0004426583182066,-0.0013074437156319,-0.0002135357208317
8.1150595703125,-0.0007650843546725,-0.0015384981462731,0.0447369673490524,-0.0005531795322895,-0.0022691115736961,0.0006035221158526
8.125038330078125,-3.17833777517e-05,-0.0095933741829358,0.0393535207450389,0.0005724309012293,-0.0012669162824749,0.0001878690382
8.135017578125,-0.0079149561093188,-0.0023814152438193,0.0504249498575925,-0.0013754051178693,0.0012718746438622,0.0010613858466967
8.144996337890625,0.0033032427964732,0.0042332901882007,0.0496767618387937,0.0008886743453331,-0.0003547249361872,0.0006810075137764
8.1549755859375,-0.0003345291839912,-0.0033158282834105,0.0463888262093067,0.0046669011935591,-0.0009384900331497,-0.0007059667841531
8.164954345703125,0.0032130985612981,-0.0123437323370017,0.0369599036067724,-0.0016884214710444,0.0019715968519449,0.0001284290774492
8.17493359375,0.0015508279048837,-0.0023018654678948,0.0472843137443065,0.0021063168533146,-0.0009112749248743,0.0005848948494531
8.184912353515625,0.0036248759662732,-0.0042995238248258,0.050282326516509,0.0020700732711702,-0.0017228070646524,-0.0008287990349344
8.1948916015625,0.0056333662444725,-0.0008181297161616,0.0417547366678714,-0.0029915305785834,-0.0002399589866399,0.000321153900586
8.204870361328124,-0.0039354214864782,-0.0034806999889202,0.055370005044341,-0.0045090839266777,0.0009234193712472,-0.0013941992074251
8.214849609375,-0.0071991177238523,-0.0061238349088467,0.0420475821346044,-0.0004797215515282,-3.53185459971e-05,0.0002473733038641
8.224828369140624,0.0003882321326062,-0.0069682863763533,0.0377080916255712,-0.0005508825415745,0.0021816901862621,-0.0008799621136859
8.2348076171875,-0.0002222827148623,0.0008611651402898,0.0522235237121582,0.0003766964655369,0.000225331634283,0.0014516353840008
8.244786376953124,-0.0011373699994757,-0.0048566462509334,0.0456412227123975,0.0013166922144591,0.0002542911097407,-0.0018885990139096
8.2547646484375,0.0037155864570289,0.0028955205121077,0.0381605115681886,-0.0021483465097844,-0.0019910195842385,-0.0006587512907572
8.26474365234375,0.0022733882920816,0.0075283679445274,0.0478881248563528,0.0003409803030081,0.0007775267586112,-0.0018415406811982
8.27472265625,-0.0104426296897232,0.0077124010082334,0.0460936426550149,0.0011844031978398,-0.0029077557846903,0.0004631588526535
8.28470166015625,-0.0090794333114288,0.0098461981665343,0.0420610261380672,0.0013978908536955,0.0019393069669604,0.0003108775417786
8.2946806640625,0.0061385940865613,-0.0010257080522365,0.0458013817101716,0.0013299802085384,0.0014522140845656,0.0024557875003665
8.30465966796875,-0.0036589426326565,-0.0016622158574871,0.0540291118294,-0.000205916527193,1.12485140562e-05,-0.0010389868402853
8.314638671875,0.0051713564896024,0.003064410805609,0.0429553446292877,-0.001128968084231,-0.0024066353216767,0.0002081714919768
8.32461767578125,0.0034260654585435,-0.0032922830110415,0.0451993241637945,-0.0003007095074281,0.0013988995924592,0.0018969144439324
8.3345966796875,-0.0032250995263457,-0.003802588887047,0.0507335774153471,0.000299300707411,-0.0011665234342217,-0.0007947423728182
8.34457470703125,-0.0070770805130712,-0.003975552567467,0.035619594913721,-0.0014454644406214,-0.0001999633386731,6.68383436277e-05
8.3545537109375,-0.0079189746973104,-0.0035417642600834,0.0414566305041313,0.0010483196238055,-0.0008660200983285,0.0008167845080606
8.36453271484375,-0.0067072973526082,0.0004902312023565,0.0547708701074123,-0.0008305944502353,0.0017541609704494,0.0014046391006559
8.37451171875,-0.0051347142736427,-0.0016967939805239,0.053421209064126,-0.001034059911035,7.39721581339e-05,-0.0009424047893844
8.38449072265625,-0.0086247666127979,0.0025369893980212,0.0441430931091308,0.0010443853680044,-0.0006894869729876,1.8089267541e-06
8.3944697265625,0.0028327574742026,0.007157744533848,0.0447457351773977,0.0003570234403014,-0.0003256993368268,0.0016076950123533
8.40444873046875,0.0024965295234695,0.0025068499880842,0.0451928944230079,0.0025694575160741,0.0034741600975394,0.0008979669073596
8.414427734375,0.0045665407305583,0.0002091309723444,0.0457861841410398,-9.2105648946e-05,0.0002413485199213,-0.0012024682946503
8.42440673828125,0.0019481566593982,0.0028698198152706,0.0570101734668016,0.001619754359126,-9.80636104941e-05,-0.0009769676253199
8.434385986328126,-0.001979300716333,-0.0024668833038769,0.0424953259021043,1.81292998604e-05,-0.0002048565074801,0.0002339717757422
8.44436474609375,-0.0109567714906297,-0.0009806268014945,0.0456377155810594,-0.0004156701616011,-0.0007531438022851,0.0009684640681371
8.45434375,-0.0020081614846363,-0.0152954948146827,0.0592547375231981,-7.61171104386e-05,0.0029901955276727,-0.0011098668910562
8.464322509765625,0.0002174056103453,-0.0094091949887573,0.0540144987821578,0.0003291816683486,0.0013805013149976,-0.0008949251496233
8.4743017578125,-0.0074703906795941,-0.0004535524537786,0.0499725299149751,0.0002444931305944,-0.0008488306775689,3.74475639546e-05
8.48428076171875,-0.0076407057452015,-0.0014605558055453,0.0519154806762933,0.0024816438090056,0.0006294408813118,-0.0017464577686041
8.494259765625,0.0024136187466792,0.0020262816632166,0.0466799181103706,9.25220083445e-05,-7.76285305619e-05,-0.0007328587234951
8.50423876953125,-0.0012508403113111,0.0027071765994653,0.0471259083122014,0.0001786306384019,-0.0007703965529799,0.0012172242859378
8.5142177734375,0.0004200337766669,-0.0002457183893769,0.0329138430863618,0.0022833268158137,-0.0004766499623656,0.0004992361646145
8.52419677734375,0.0064171735659241,-8.4390347823e-06,0.0348608855009078,0.0006328003364615,0.0008703889325261,-0.0017588104819878
8.53417578125,-0.0053484666221775,0.0116225236566737,0.0436865815132856,-0.0017219667788594,0.000933239236474,0.0015805271686986
8.54415478515625,-0.0067286141352728,0.0112282819083891,0.0417389545768499,-0.0003760465770028,-0.0005359575152397,-0.0010625952854752
8.5541337890625,0.0024203772810287,-0.0024557043227367,0.0400923564136028,-0.0007688628393225,0.0003117267042398,-0.0006016020779497
8.56411279296875,-0.0024448358688503,-0.002690791720245,0.0480196422815322,-0.0009147652890533,0.001106065697968,0.0002190837694797
8.5740908203125,-0.0016996800573542,-0.0081615330152213,0.0507119501054286,-0.0015499291475862,-0.0006809150800108,-0.0007007720414549
8.584069580078125,0.0047129817302338,0.0002016600519418,0.0397907431185245,-0.0003471312811598,-0.0010710917413234,-0.0009001836297102
8.594048828125,-0.0065902103115804,-0.0030697445678524,0.0430851084887981,-0.0009924152400344,-0.0003935834392905,4.55048502772e-05
8.60402783203125,0.0047785212471149,-0.0098328454946167,0.0474240144759416,-0.0004816782602574,-0.0005965065211057,-0.0021427371539175
8.6140068359375,-0.0026651823549531,-0.0052090764177963,0.0561035800158977,0.0007503000088036,0.0021020742133259,0.0012250961735844
8.62398583984375,-0.0075368617782369,-0.0054955286763608,0.0453279189795255,-0.0002614429104141,0.0021731425076723,-0.0016485669184476
8.63396484375,-0.0019764146395027,0.0043299920283257,0.0381447294771671,-0.0004542557580862,0.0006447536870837,0.0013650661567226
8.64394384765625,-0.0047786125786602,0.0017741517993621,0.0412853655904531,-0.0014585967874154,0.0016851043328642,-0.0003410134813748
8.653922607421874,-1.9544950686e-06,-0.0061877304579131,0.0411351434648036,0.0032546657603234,0.0002121096476912,-0.0034992562141269
8.66390185546875,0.0044873928134329,-0.0054417709288187,0.0450257211625576,0.0011209145886823,-0.0002798261120915,0.0004884062800556
8.673880615234374,0.0032343788113445,0.0041144313151948,0.0484656324833631,-0.0003036101697944,0.0015532271936535,-0.000493767496664
8.68385986328125,0.0072675250512547,-0.0012747691761702,0.0496592261821031,-0.0001871908316388,0.0027293087914586,-0.0007663969299755
8.693838623046876,0.0014474953945726,-0.0091586177611723,0.0486065022587776,0.000539585831575,-0.0009557073935866,6.39766731183e-05
8.70381787109375,-0.0095435984907671,-0.0037322818635031,0.0527723897665739,0.0025198296643793,0.0286575257778167,0.0001716210681479
8.713796630859376,-0.0296871909237466,0.0047614605144597,0.1049813004314899,0.0042673959396779,-0.0134121617302298,-0.0023349460680037
8.72377587890625,0.0214893262198194,0.0038343174658715,-0.0421054498016834,-0.0011599352583289,0.000346059910953,0.0015133920824155
8.733754638671876,-0.006654891311936,0.0009091324678622,0.0562234070032834,-0.0046643889509141,-0.0136890653520822,0.0013602602994069
8.74373388671875,0.0046743850192055,-0.0045537360479123,0.0280997208029031,0.0011946740560233,0.0005798945203423,-0.0003232683811802
8.753712646484376,-0.0133639787628315,-0.0065321051824837,0.0861661253243684,-0.0014293387066572,-0.0014100186526775,0.0001337300636805
8.76369189453125,-0.0059084933914244,-0.0042839243968948,0.0426209981083869,-0.0006441982695832,0.0010704845190048,-0.0001089668949134
8.773670654296875,-0.0042853309026919,0.0016437851516529,0.0499514871269464,-0.001340881222859,-0.0001021055504679,-7.51447441871e-05
