seconds_elapsed,ax,ay,az,gx,gy,gz
0.077331787109375,0.0093606979382224,0.002247176138591,0.039903555843234,-0.0009192109573632,-0.0008795754984021,-0.0010589540470391
0.087311767578125,0.0018676022364757,-0.0054237968807108,0.0374655150413513,-0.0008365495014004,0.0020652981474995,-0.0011603601742535
0.097292724609375,0.0053007367566227,0.000339296690654,0.0383358681350946,0.0019315402023494,-0.002951830625534,0.0005539165576919
0.10727294921875,-6.07537439092e-05,0.0028152766164392,0.0484317302137613,-0.0002774307504296,0.0009111575782299,-0.0015720454975962
0.117253662109375,-0.0035679946798831,0.0089180778704117,0.045565819388628,0.001782258041203,0.0019404692575335,-0.0006812181090936
0.127234619140625,0.000986015362665,-0.000982563030254,0.0386789824843406,0.0022653143387287,-0.00080993399024,-0.0015481612645089
0.13721484375,0.0041558410378172,0.0022581267908681,0.0486982721954584,-0.0018711074953898,-0.0009470870718359,-0.0008762456709519
0.14719580078125,-0.0018621954089961,0.0039809319954831,0.0350794966876506,-1.95136526599e-05,0.0032127313315868,-0.0005292139248922
0.157176025390625,0.0027780864112079,-0.0005390570464543,0.0399941567361354,0.0017991591012105,1.4919787645e-06,0.0001051510334946
0.167156982421875,-0.009927885100618,-0.0028125184037722,0.0311351429760456,-0.0020790374837815,-0.0010552909225225,0.0012551581021398
0.17713671875,0.0005872435697354,0.0013745762888342,0.0365139134049415,-0.0033773283939808,-0.0020366655662655,-0.0015635315794497
0.187117919921875,0.0011276157904416,0.0040952425575349,0.0320358912080526,-0.0010514067253097,0.0014426205307245,1.63541117217e-05
0.197097900390625,-0.0001554828226566,-0.001302077308204,0.0293581964313983,-0.0003384784795343,0.0011302316561341,-0.0004907117690891
0.207078857421875,-0.0011496632254682,-0.0012962686219252,0.0299561623245477,-0.0001270851353183,-0.0007666181772947,-0.0036070868372917
0.21705859375,0.0029253128621727,-0.001285783760529,0.0377361486762762,-0.0011441463138908,-0.0011983169242739,-0.0006270094309002
0.227039794921875,0.0060196621483191,0.004432822215138,0.0410381128311157,-0.0017589878989383,0.0020103100687265,-0.0007003764621913
0.237019775390625,-0.0055431489440612,-0.0012393964686896,0.0363952554613351,0.0005813980242237,-0.0020880289375782,-0.0013448614627122
0.247000732421875,-0.0071396974205039,0.0012902590062469,0.0420972664952278,0.0032403802033513,-0.0013381717726588,-0.0010803869226947
0.256980712890625,-0.005864709048625,-0.002149624915095,0.0388005630373954,-0.0012300019152462,0.0015425700694322,0.0006581246852874
0.2669619140625,-0.0038339338733814,0.0021198782308027,0.0426888026475906,0.002634203294292,-0.0016302969306707,0.0009703760733827
0.27694189453125,0.0045378991579636,0.0025615575836971,0.0486725532323122,-0.0004233719664625,0.0001066168770194,0.00096105504781
0.2869228515625,-0.0010451982039958,-0.0008289251048117,0.0440320339500904,-0.0003934828564524,0.0005691312253475,-0.0028769897762686
0.29690283203125,-0.0027515637304633,0.0096780841911677,0.0416331561148166,0.0008970849448814,-0.0017368998378515,-0.0010902751237154
0.306884033203125,0.0011264284803532,0.0025334731335286,0.0429758028954267,-0.0005011360626667,0.001950099132955,-0.000288486451609
0.31686376953125,-0.0089356957254931,-0.0057212728567887,0.0395370606184005,-0.0006630562711507,0.0011532818898558,7.15729256626e-05
0.3268447265625,-0.005484861151874,-0.0105397973207291,0.0390951620697975,-9.52683622017e-05,-0.0007068952545523,-0.0016926103271543
0.33682470703125,0.0020460458096116,0.0002504402302671,0.0416413394212722,-0.0018151376862078,0.0006124339997768,-0.0004475825408007
0.346805908203125,-0.0014695062969811,0.0005480532036628,0.0334141938239336,-0.0017249608645215,0.0011070845648646,-0.0004224386648274
0.356785888671875,-0.0010915946289896,0.0023734328667633,0.0389472780317068,-3.06577421724e-05,-0.0005635162815451,0.0017275311984121
0.3667666015625,-0.004347052760981,-0.0035293979688547,0.0289233121454715,-0.0006972880801185,0.0002619484439492,-9.05829656403e-05
0.37674658203125,-0.0075214815460145,0.0041242403231561,0.0429933385521173,0.0010188528103753,2.89222225546e-05,-0.0003819327976088
0.386727783203125,0.0030454686431214,0.0009306227804627,0.0438888260871171,0.0014517197851091,-0.0004969723522663,0.0002523043658584
0.3967080078125,0.005699051891826,-0.0008490637105423,0.0516734886139631,0.0007371937390416,0.0005373992025852,0.0005100983544252
0.406688720703125,0.0003976392817683,-0.0021369480966124,0.0322206001251935,0.0038526402786374,-0.0007560467347502,0.0024856650270521
0.4166689453125,-0.0084280019316822,-0.0022428926891181,0.0447866517096757,0.0021412929054349,-9.6914358437e-05,-0.0002512655046302
0.42664990234375,-0.0077323112851008,0.0001812017858028,0.0371568874835968,0.0004724537720903,-0.0025641480460762,0.00094891077606
0.4366298828125,-0.0052574456041678,0.002244920249423,0.0438923332184553,-0.0010375585407018,0.0001714508980512,0.0010397245641797
0.44661083984375,-0.0068190688977017,0.0077479289793409,0.0416483536839485,8.00268026068e-05,0.0014620469883084,-0.0006292624166235
0.456591064453125,0.0038158684937283,-0.00718981103939,0.0268389070868492,-0.0014776560710743,4.71090897917e-05,0.0004304093599785
0.466572021484375,-0.0019109847204759,-0.0090159670206252,0.0295335529983043,-0.0022209612652659,-0.0010025734081864,-0.0009102511685341
0.4765517578125,-0.0091895060897804,-0.0089554964045062,0.0456903225511312,-0.0012859253911301,0.0008248873054981,0.0010479711927473
0.48653271484375,-0.0082960643813945,0.0002234152260236,0.0385065485268831,0.0006529345409944,0.0006568953394889,0.0003027092025149
0.496512939453125,0.0005694887173362,0.0024817520794458,0.0374614233881235,0.0005956765962764,0.0004454404115676,-0.002023295732215
0.506493896484375,-0.0027737024970352,-0.0024734317756723,0.0371679933995008,-0.0006761673139408,-0.0007776571437716,-0.0006228511920198
0.5164736328125,-0.0041654308500699,-0.004947320209071,0.0413607689142227,-0.0017313116695731,0.0013930853456258,-0.0013773248065263
0.52645458984375,0.0046997386561706,-0.0100924280125647,0.0422632707118988,0.000685506965965,0.0001957286149263,0.0002300374035257
0.536435791015625,0.0059815951602533,-0.0073187711813021,0.0422626861900091,-0.0001161044929176,-0.0029105832800269,0.0003099322202615
0.546416015625,0.0042132337808609,-0.0103094226309563,0.0442097286045551,-0.0008428198634646,-0.0009304182603955,0.001299213967286
0.556396728515625,0.0014827676373533,-0.000930732378317,0.0361292980015277,0.0033266253303736,0.0013678902760148,9.46662330534e-05
0.566376953125,0.0038815358747728,-0.0019080164452549,0.0334381592214107,0.0020264312624931,-0.0015971614047884,-0.0002218059817096
0.57635791015625,-0.0056854069589637,0.0001513363705016,0.0365811334222555,-0.0013864095089957,-0.000653070397675,0.0014879434602335
0.586337890625,0.0047008163684047,-0.0021844131006859,0.0436164388865232,-0.0026406361721456,0.0002750512212514,-0.0016931974096223
0.59631884765625,-0.0022380429840646,-0.0040218028619885,0.0332937823146581,-0.0030049565248191,0.0002452237531542,-0.0012063714675605
0.606298828125,0.0015812778420746,0.0035347682637162,0.0370294617116451,8.76703998073e-05,0.0004519578069448,-0.0004130935994908
0.616280029296875,-0.0016087503708899,0.0024923374055419,0.026999650606513,-9.07613430172e-05,-0.001067642122507,0.0006641550571657
0.626259765625,-0.0038368382165208,-0.0049935431041289,0.0364238970339298,0.0003564556827768,-0.0001111291348934,0.0020645193289965
0.63624072265625,-0.0044479923848062,-0.0072526288762222,0.039413141977787,-0.0007908340776339,0.0035935938358306,0.0008226873469538
0.646220703125,-0.0037314050806686,-0.0028099702536594,0.0453939699530601,0.0023806034587323,-0.0003455514088273,-0.0008213955443352
0.656201904296875,-0.0031697891425341,-0.0080094111934304,0.0407569578021764,-0.0017707317601889,-0.0011764569208025,0.0014217850985005
0.666181640625,-0.00202814482674,-0.0001004007677081,0.0225005856215953,0.0030832786578685,0.0005858587101101,0.0008944693836383
0.67616259765625,-0.000457826770097,-0.00200683717723,0.0359673854380846,0.0014353145379573,0.0004162155091762,-0.0023455324117094
0.686142822265625,0.0013096760927699,-0.0045840581209398,0.0458434672862291,-0.0002198294969275,-0.000403675250709,0.0012707354035228
0.6961240234375,0.0056641267089173,-0.0044453437699936,0.0447977576255798,-0.0025138764176517,-0.0008947616443037,0.0008315801387652
0.70610400390625,0.0052078343087807,-0.0041031792688183,0.0442015452980995,0.0002168109640479,0.0008904244750738,-2.55407358054e-05
0.7160849609375,0.0065903381757438,0.0045340997656807,0.0335772754311561,-0.0012817498063668,0.0009506121277809,0.0013893967261537
0.726064697265625,-0.004618782374449,0.006678281320678,0.0382125340163707,-0.0011746741365641,-9.13301482796e-05,-0.0006631276919506
0.7360458984375,-0.0029707594390958,0.0022374036632478,0.0340203430235385,-0.0002548183547332,-0.0003419341519474,-0.0025435858406126
0.74602587890625,0.0014802651530131,-0.0038511681359726,0.030582185268402,0.0013301074504852,-1.05379149317e-05,-0.0002734092995524
0.7560068359375,-0.007549027140066,-0.0047289099517278,0.0453933854311704,0.000312247313559,0.0006722966209053,-0.0008009815355762
0.765986572265625,-0.0058749381816945,-0.00204945247625,0.0382072733193635,-0.0004142614779993,0.0024306243285536,-0.0005244764033704
0.7759677734375,0.0011536270145326,-0.008202668743208,0.0334124402582645,-0.002801519120112,0.0001131417229771,0.0010648980969563
0.78594775390625,0.0034805538584478,-0.0052755931822117,0.0352022462844848,-0.0004834306892007,-0.0003211237490177,-0.0008324622176587
0.7959287109375,-0.0019887809307314,0.0056390470665879,0.0363993471145629,-0.0009830397320911,-0.0008116783574223,0.0009886072948575
0.805908935546875,0.0071831347034312,-0.0038790607898961,0.0362532166421413,-0.0003962226910516,-9.73064452409e-05,-0.0013851762050762
0.815889892578125,0.0006304068580269,-0.006289583397191,0.0332628026545047,-0.0016732084332033,0.0015661045908927,-0.0008101997664198
0.825869873046875,-0.0045619741532951,0.0037667503886856,0.0355050286233425,0.001808862783946,0.0013132896274328,-0.0014461063547059
0.835850830078125,-0.0062199887597002,0.0014246625082567,0.0429892468988895,-0.0006915790727362,-0.0010923435911536,-0.0002727175597101
0.845830810546875,0.0055048810265958,-0.0039257403426803,0.0373053560435771,-0.001093577244319,-0.0011477079242467,0.0002068653120659
0.85581201171875,0.0047923671093769,-0.0050537762582302,0.0380506214529275,-0.0005012902547605,0.0008105151355266,-0.0023817273322492
0.8657919921875,-0.00495216078097,-0.0011382924480829,0.0407400066673755,0.0003847246989607,0.0014584986492991,-0.0025890113320201
0.875772705078125,0.0016040376631543,5.38490790873e-05,0.0422357981830835,0.0022926134988665,0.0008121486753225,-0.0015365300932899
0.885752685546875,0.0043441301515325,-0.0018443309587426,0.0410346056997776,-0.0012362531851977,-0.0026596114039421,-0.0012763185659423
0.895733642578125,-0.0042956513673067,-0.0047679450541734,0.0431295321524143,-0.001326001714915,-0.0012766318395733,-0.0008110643248073
0.9057138671875,-0.0087082436451688,-0.0021560181232634,0.0467266798615455,0.0004082357045263,-0.0007293336093425,0.0030856227967888
0.91569482421875,-0.0028381277690641,-0.0055841750741936,0.0349070627301931,-0.0032650623470544,0.0007047792896628,-0.0033496394753456
0.9256748046875,0.0036966442945413,0.002585102856066,0.0396954660505056,0.0009249601280316,-7.1108341217e-05,0.0019848539959639
0.935655517578125,0.0081654420053586,-0.0041267062748782,0.0453793569058179,0.0016589273000136,0.0009888298809528,0.0004972121678292
0.945635986328125,0.0136622310570441,-0.0038382538554724,0.0480734182953834,0.0020112791098654,-0.0001047905534505,0.0025145215913653
0.955616943359375,0.0045579190326854,-0.0029279706101398,0.0426835419505834,0.0002570551587268,0.0033791568130254,0.0011874686460942
0.9655966796875,-0.0010507876945659,-0.0030466285537462,0.038788288077712,-0.000677941890899,-0.0008555818349123,0.0001323179458267
0.97557763671875,0.0023191636625677,0.0011225377565249,0.040735330492258,-0.0035040883813053,0.0011937199160456,0.0010556358611211
0.985557861328125,0.003510455806367,0.0040350276697427,0.0380412691026926,0.0017732223495841,0.0004570977762341,0.0008602901943959
0.995538818359375,0.0074230261402204,-0.0040267073659691,0.0426782812535762,-0.0013906130334362,-0.0007650274783372,-0.0017211118247359
1.005518798828125,-5.32645571976e-05,0.0011090480872895,0.0393874230146408,0.0013180371606722,-0.0015989392995834,-0.0025444875936955
1.015499755859375,0.0012276968977414,0.0001775119913741,0.0319032047390937,-0.0027009393088519,-0.0005123689770698,-0.0016459372127428
1.025479736328125,-0.006168989224825,-0.0024716142779216,0.0333989962548017,-0.0004565825802274,-0.0005980022251605,0.0006767227314412
1.035460693359375,-0.0078707699077203,-0.0046692978521343,0.0470142646312713,-0.0003290171734988,-0.0003154408186674,0.0018306704005226
1.045440673828125,-0.0129001606433652,0.00283097650907,0.0356429757893085,0.0017442321404814,-0.0019193058833479,0.0020346264354884
1.055421630859375,0.0042316827530041,0.0044583585151936,0.0375870955944061,0.0008390236180275,-2.8954818844e-06,0.0005155594553798
1.065402099609375,-0.0003451053769327,0.0037168468323536,0.037135844695568,-0.0002041591797024,0.0011416748166084,4.01864235755e-05
1.0753828125,-0.0069607058580964,0.0061820679021067,0.0492535679906606,8.3728460595e-05,0.001255658455193,0.0012900079600512
1.08536279296875,0.0011126191507093,-0.0006671312723774,0.0455137969404459,-0.000863991677761,-0.0012854309752583,0.0016112301964312
1.09534375,-0.0043153789810836,-0.0022055654865689,0.0321989728152751,4.70756785944e-05,-0.0007067266851663,-0.0004881396307609
1.105323974609375,-0.0004066811047494,0.0052612906622234,0.0357908598273992,-0.0025601759552955,-0.0002083601430058,-0.0010044554946944
1.115304931640625,-0.0033996706419624,0.0117360487674362,0.0390823025882244,0.0016899625770747,5.60916960239e-05,0.0001156700745923
1.12528466796875,-0.0060205389311537,-0.0005273848749697,0.0363888257205486,-0.0007030802080407,0.0009059440344572,0.0010856048902496
1.135265625,-0.0043620311344042,-0.0063983227349817,0.0501525626569986,0.000265511451289,0.0004542721435427,-0.0009011133224703
1.145245849609375,-0.0032174094102345,-0.0055779645291157,0.0440156673371791,0.0001533838221803,-4.32301312685e-05,-0.0001266227045562
1.155226806640625,-0.0016768654373474,-0.0038045342489611,0.0402758962869644,-0.0012602220522239,-0.0002823825925588,0.0006872393423691
1.16520654296875,-0.0028405571881681,0.0005762837843038,0.057785249492526,-0.0020576363895088,-0.0005080727860331,-0.0012983020860701
1.1751875,-0.0044416539755649,-0.0032480876762885,0.0304039060920476,-0.0001614657230675,0.001067453995347,0.0013558040373027
1.185167724609375,0.0052388870341703,0.0052868086959701,0.0292056362181901,0.0013096125330775,0.0004477817565202,0.0011862210230901
1.195148681640625,-0.0070373512908816,0.0022029168717563,0.0468622889399528,0.0012656704057008,0.0008099721744656,0.0009939407464116
1.20512890625,-0.0069066923822276,-0.0050880895197857,0.0444686718016862,-0.0013892102288082,-0.0002098204568028,-0.0014189970679581
1.21510986328125,0.0026757402815856,-0.0041498588216025,0.0458148257136344,-0.001205452135764,0.0004533063620328,0.0002987417974509
1.22508984375,-0.0060269869382493,0.0023219584078527,0.0326461320608854,-0.0001489802962169,-1.1371448636e-05,0.00124361529015
1.23507080078125,-0.0008901903053745,-0.0036179347688332,0.0398293215632438,0.0003423729212954,-0.0003258911892771,-0.0003348402678966
1.24505078125,-0.0042272257735952,0.002451840998372,0.0329454072684049,-0.0018701599910855,0.0021613165736198,0.0015946025960147
1.25503173828125,-0.0011691716435365,-0.0083404515123926,0.0429682041108608,0.0033823922276496,-0.001359649002552,6.5596832428e-06
1.26501171875,0.0027060988872312,-0.0066502516694366,0.0447626863121986,-0.0023093491327017,0.0022603319957852,0.0004504154785536
1.27499267578125,0.0029385011373087,0.0050345966337248,0.0440144982933998,-0.0002834825427271,0.0003971848636865,-0.0005541288410313
1.28497265625,0.0020405111179687,-0.0002921422138344,0.035783845564723,-0.0010699757840484,0.0028400365263223,0.0007063302327878
1.29495361328125,0.0022584099186584,-0.0041823911180254,0.0395218630492687,0.0008754633599892,-4.07053157687e-05,0.0007444134098477
1.304933837890625,0.0034236908383667,0.0029626491978764,0.0407201329231262,-0.0005751235294155,0.0007269214838743,0.0004086606495548
1.314914794921875,-0.0045983971735462,0.0077800228843465,0.0287485401004552,0.0017253148835152,0.000539700500667,-0.0011945624137297
1.324894775390625,0.0010112411354668,0.0014066884601488,0.0408650943517684,0.002277870895341,5.56465238332e-05,0.0011262161424383
1.334875732421875,-0.0008930581158958,-0.0026775303798727,0.0266495219945907,0.0001215094234794,-0.0019371965900063,-0.0001877875183708
1.34485595703125,0.0036227022754959,0.0011759575773496,0.0368242945283651,0.0002466895384714,-0.0003746682778,-0.0012986410874873
1.3548369140625,0.0017711013257503,0.0041230256136041,0.0375713135033845,0.0007598806405439,0.001630425453186,0.0011352217989042
1.364816650390625,-0.0068391983702778,-0.0010233060325961,0.0315834712654352,0.0014017940266057,0.0018436927348375,0.0007976021151989
1.374797607421875,0.0003021978169679,0.0020407303136773,0.0344248321712017,0.001145864254795,0.000172559171915,0.0005973324296064
1.38477783203125,-0.0029418804044835,-0.0005148998527321,0.0389168828934431,-0.0058564012870192,-0.0004567503929138,-0.0020711193792521
1.3947587890625,-0.0016814685472287,-0.0067277738850563,0.0378729267984628,-0.000726620433852,-0.0003198646008968,-0.0002596371341496
1.40473876953125,-0.0004719648933038,-0.0084133523518219,0.0336836584150791,-0.0021041701547801,-0.0002704532817006,0.0007537880446761
1.4147197265625,-0.0011229944142512,-0.0015859905498102,0.0478986462503671,0.0002567222109064,0.0001218300312757,-0.0014608966885134
1.42469970703125,-0.0072942851940169,-0.0026437285749707,0.0446042808800935,-0.001474714372307,0.0011343834921717,-0.0008733255090191
1.4346806640625,0.005620725958608,0.0027137981364969,0.0287391877502203,0.0008851126767694,0.0020377282053232,-0.0004437576280906
1.444660888671875,-8.7860946543e-06,-0.0072425641399342,0.0302349792659282,0.0013459003530442,0.0012414958328008,0.0012940249871462
1.4546416015625,0.0095846611535176,-0.003537974000955,0.0380149656176567,-0.0002826225827448,0.0008904905989766,0.0010578025830909
1.4646220703125,0.0011255882301367,0.0005550309337209,0.029034371304512,0.0010751703521236,-0.0010386938229203,-0.0010437241289764
1.474602783203125,-0.0040949046308174,0.0087162442885339,0.045793198403716,0.0014514749636873,0.0006500165909528,0.0014090472832322
1.484582763671875,0.0031487646208144,0.0005471946871373,0.0438484940767288,7.19574745744e-05,0.0006832983344793,-4.04056772822e-05
1.494563720703125,0.0080421261529438,-0.0034109683541115,0.0321785145491361,0.0021622725762426,-0.0002368232235312,-0.0006052621174603
1.5045439453125,-0.0076184025818482,-0.0007038556867279,0.0423515335172414,-0.0013768713688477,0.0024937875568866,-0.000203196919756
1.51452490234375,-0.0074095273378305,0.003292794467695,0.0360650005936622,0.0004785528872162,-0.0007848301902413,-0.0016343797324225
1.524504638671875,0.0125024848289787,0.0056118028666358,0.0321773455053567,-0.0002137051196768,-0.001006438396871,-0.0006786283338442
1.534485595703125,-0.0022726028407923,0.006048203256214,0.0390583371907472,-0.000314638891723,0.0032301181927323,0.0004130013694521
1.5444658203125,-0.0092587902000173,0.0046672337592113,0.0387602310270071,-0.001690185861662,-0.0021220734342932,-0.0009029706707224
1.55444677734375,-0.0045936661995016,0.0010150313945952,0.041604514542222,-0.0004060096107423,0.0004952820017933,-0.0015149649698287
1.564426513671875,-0.0047593050899915,0.0041237197333481,0.0350192909330129,0.0014964613365009,-0.0010641096159815,-0.0018519156146794
1.574407470703125,0.0083900445414707,0.0034485330186784,0.0311240370601415,0.0007316016126424,0.0004325872287154,-0.0014015750493854
1.584387939453125,0.0039149632203392,-0.0031890874980483,0.0339648134440183,-0.0007188174058683,0.0029787924140691,0.0002292056306032
1.594368896484375,0.0023764102751389,-0.0013295863696374,0.0502753122538328,-0.000302565342281,-0.0009730719029903,-0.000731396547053
1.604348876953125,-0.0021163345668464,-0.0008170702702365,0.0415975002795457,-0.0019849566742777,0.0011902563273906,0.0005235833814367
1.614329833984375,0.002626329915598,0.0015943473862018,0.0418967754870653,-0.0005662909243255,-0.0003186902031302,-0.0017534194048494
1.624309814453125,-0.006067775606364,0.0029266280364245,0.0347176776379346,0.0013587861321866,0.000712021254003,0.0004378357552923
1.634290771484375,-0.0106522538524121,0.0017891393059398,0.0362128846317529,-0.0015704247634857,0.0021381434053182,-0.0009800312109291
1.644270751953125,-0.005700074805133,0.0081857906736433,0.0416039300203323,0.0019769312348216,-0.0001508127897977,0.0012902250746265
1.654251708984375,-0.0028715003157034,0.0044244653787463,0.0342711029142141,-0.0004295011749491,-0.0017867926508188,-0.0001358976587653
1.664231689453125,-0.0077931198279373,0.0072209094305522,0.0383124872595071,-0.0006366477464325,0.0004351204261183,-0.0014889641897752
1.674212646484375,-3.34456118755e-05,-0.0018186759276781,0.0516284804284572,0.0007452664431184,0.001360036432743,0.0005502182175405
1.684192626953125,-0.0077573543948121,-0.0018662413964513,0.0420487511783838,-0.0001594948116689,0.0033354889601469,-0.0009344274876639
1.694173583984375,-0.003606098200567,-0.004238240357954,0.0444388611853122,5.88844995945e-05,-0.0005436716601252,-0.0025030293036252
1.70415380859375,-0.0085897135657258,0.0004499083251226,0.0387543858081102,0.0016678555402904,-0.0001578032970428,0.0006238990463316
1.714134765625,-0.0112707876095548,1.50879712775e-05,0.0381587580025196,5.37136802449e-05,-0.0017607603222131,0.000896074110642
1.72411474609375,0.003305964476522,0.0022563366925809,0.0356166723042726,0.002016148995608,0.0022767325863242,0.0004936552140861
1.734095703125,0.0015979367159307,-0.003168382636737,0.0424988330334424,-0.0007034711306914,-0.0005701864138245,-0.0037684678100049
1.744075927734375,-0.0035571627586148,0.0018116890644654,0.0389104531526565,0.0001209429465234,0.0008776048198342,-0.0011342338984832
1.754056884765625,-0.0017184943556785,-0.00320910737277,0.0398053561657667,0.0011550482595339,0.0010019745677709,0.0003315698704682
1.76403662109375,0.006138502755016,-0.0074496127530466,0.0378588982731103,-0.0003720492823049,-0.0003282539546489,-0.0005113643128424
1.774017578125,0.0024540603549219,-0.0050802532732021,0.0411509255558252,0.0005012012552469,-0.000289904884994,-0.0008189594373106
1.783997802734375,-0.0043474546197801,-0.0011650617239996,0.034864392632246,-0.0010711839422583,-0.0004572458565235,0.0001909373240778
1.793978759765625,0.0018983992335386,-0.0025035620524547,0.0374070628523826,-0.000189144979231,-0.0016111936420202,0.0002226289216196
1.803958740234375,-0.0047292387452907,0.007856275591487,0.0308218392431735,-0.0004808185040019,0.0020426856353878,0.0022168653085827
1.813939697265625,-0.0008183306455612,0.0031105332359671,0.0291758256018161,-0.0015980144962668,-0.0006708092987537,-0.0016162222018465
1.823919677734375,-0.0096749697854742,0.0024660795862786,0.0418996980965137,-0.0002087645698338,-0.0027209781110286,6.725336425e-05
1.833900634765625,-0.0026420389413833,0.0062293319767806,0.0347200157254934,-0.0004705532919615,0.0002732137218117,-0.0015210558194667
1.843880859375,-0.0084768460420891,0.0008058730227872,0.0341202962666749,0.0016258739633485,0.0007851859554648,0.0019764984026551
1.85386181640625,0.0066804824109189,2.5481501128e-06,0.0345662864685058,0.0001598037779331,0.0015883948653936,0.0001953763712663
1.86384228515625,-0.0013866685854271,-0.0006749857852701,0.0362134691536426,0.0002760246861726,-0.0004595201462507,0.001045586541295
1.873822998046875,-0.0065630665763281,0.0068067756717093,0.0396527959525585,0.0019969593267887,-0.0002826862037181,0.0008367947302758
1.883802978515625,0.0040693865970708,0.0026763613360933,0.0302256269156932,-0.0002970343921333,2.19214707612e-05,0.0007046075770631
1.8937841796875,0.0027878040876239,-0.0028040428363718,0.0386076708137989,-0.0008323297370225,0.0005596140399575,0.0012388376053422
1.90376416015625,-0.010185732319206,-0.0045844691128935,0.0387549703299999,0.0010017404565587,0.0038857664912939,-0.0011536199599504
1.9137451171875,-0.0048042584765702,-0.0018577110301237,0.0330628961682319,-0.0007247868925333,0.0007536225020885,0.0025172813329845
1.923724853515625,-0.0034585246897302,0.005723136020312,0.0354576823502779,-0.0014391596196219,-0.0004403898492455,-0.0003392956277821
1.9337060546875,-0.0073191639069467,0.0013707768965512,0.0365063146203756,-0.0029656835831701,0.002999615855515,-0.0002295734011568
1.94368603515625,-0.011445870181825,0.0008108871246222,0.0287245747029781,0.0012696959311142,-0.0001105284318327,0.0010830033570528
1.9536669921875,-0.0084731014487333,0.0035454083887394,0.0411450803369283,0.0001072261948138,-0.0005994848906993,-0.0016123818932101
1.963646728515625,-0.0123487738383002,0.0011666143602691,0.0436889196008443,0.0009424178861081,-0.000723036006093,-0.0002560126595199
1.9736279296875,-0.0056193742517381,2.35635386779e-05,0.0442868854939937,-0.0006996871088631,0.0009571528062224,-7.46513906051e-05
1.983608154296875,-0.0004788512918166,0.0054521735918242,0.0463794738590717,0.0009842552244663,0.0014245398342609,0.0004838284512516
1.993589111328125,-0.0097192838512361,0.0081957001463044,0.0374012176334857,-0.000431747524999,-0.0018908297643065,0.0020084881689399
2.003569091796875,0.0042602512603625,-0.0005552592625841,0.0272293677091598,0.0002401372184976,0.0006918320432305,0.0002692135167308
2.01355029296875,-0.0047201238570734,-0.0038573056158144,0.0417447997957468,-0.0012917129788547,0.000507541000843,-0.0005875253700651
2.023530029296875,-0.0109393454317934,-0.0010659852636978,0.0457867686629295,0.0012667007977142,0.0004247603937983,0.0012751603499054
2.033510986328125,-0.0012464198645204,0.0015962562154978,0.0296253229349851,0.0014318166067823,0.0007885480299592,0.0002258749736938
2.043490966796875,-0.0030600999566726,0.0034978520531207,0.0371107102543115,0.001441927277483,-0.0029112165793776,-0.0012935645645484
2.05347216796875,0.0017545155171304,0.0064023139235097,0.0413005631595849,0.0009495088597759,0.0008542267605662,0.0001341561146546
2.0634521484375,-0.0070560559913516,-0.0002076240018475,0.0362134691536426,0.0003323544515296,-0.0007075676694512,-0.0003424331080168
2.073432861328125,0.0019313516550697,0.0020146551575046,0.0441460157185792,-0.0025092384312301,-0.0018894784152507,-0.002021822379902
2.083412841796875,-0.0049471740785986,0.0057211723920889,0.0413052393347024,0.0003607198596,0.0009533017873764,-5.31196274096e-05
2.09339404296875,-0.0007455942029133,0.0085144472392741,0.0401040468513965,-0.0010768545325845,0.002311248332262,-1.31722044898e-05
2.103374267578125,0.000482431488391,0.0011463022246025,0.0525268905729055,-0.0013890422414988,0.0010799914598464,0.0013636208605021
2.11335498046875,-0.0077324756818823,0.0011701671573799,0.0447469042211771,-0.0006793098291382,0.0013447096571326,-0.0011360221542418
2.1233349609375,-0.002229859677609,-0.0015650664927903,0.0365168360143899,-0.000238612992689,0.0016136970371007,-0.0020565069280564
2.133316162109375,0.0029882768294773,0.0065471840206068,0.0407072734415531,-0.0017984264995902,0.0002501588314771,4.2470201151e-06
2.143296142578125,0.0086640574435703,0.0012972550026141,0.0366670581400394,-0.0002225614152848,-0.0004481263458728,-0.0015101413009688
2.153277099609375,-0.0001921615712344,0.0015204053671564,0.0538759670943021,-0.0017890327144414,0.0012797331437468,0.0005998812266625
2.163257080078125,0.0031561442096717,0.0010967000623699,0.0441518609374761,0.0007857157615944,0.0001015225425362,0.0008847140707075
2.173238037109375,0.0024316110610961,0.0012449585597962,0.0399643461197614,-0.0005727626848965,-0.001450034789741,-0.0005584529135376
2.183218017578125,0.0063749601257033,0.0018817677591461,0.0438572619050741,-0.0004116856725886,-0.0019955337047576,0.0009588617249391
2.193198974609375,0.0017078816301189,-0.0079745499426033,0.047152796319127,-0.0039374446496367,-0.0014719562605023,0.0010970798321068
2.203178955078125,-0.0061737019325606,-0.0072853073031175,0.0321878668993711,0.0007163626141846,0.0011450983583927,-0.0017163805896416
2.21316015625,-0.0001282842884771,0.0009395915382076,0.0377256272822618,-0.0007371907122433,-0.000247735530138,0.0008125571184791
2.223139892578125,0.0015385529452003,0.0013699366463348,0.0459533574014902,0.0006587707903236,0.0007525626569986,-0.0005293243448249
2.233120849609375,0.0064035651656799,-0.0002207574780564,0.0366734878808259,-0.0020097165834158,0.0012633567675948,-0.0013386589707806
2.24310107421875,0.0044066191948018,-0.0041567543532699,0.0311328048884868,0.0009785897564142,0.0018208259716629,0.0005879657110199
2.253082275390625,-0.0017274996460415,-0.0054877472287043,0.0350204599767923,-8.37452244013e-05,0.0015832725912332,0.0004526771372184
2.263062255859375,0.0042056167299859,-0.0052378732540179,0.0369651643037796,0.0004455505404621,-0.0010508922860026,-0.0005806688568554
2.27304296875,-0.0008899893759749,0.0008679693404119,0.0402571915864944,-0.0016370414523407,-6.01960346102e-05,-0.0009995840955525
2.28302294921875,0.0055066528585739,-0.0029385285367723,0.0314285729646682,-0.000283945701085,-0.0004722494632005,0.0010429869871586
2.293004150390625,0.0009516199027188,-0.0036600660106632,0.032175007417798,3.35031654685e-05,0.0029019759967923,0.0006778675015084
2.302984130859375,-0.0042599772657267,-0.0004856737582478,0.0390554145812988,0.0010353204561397,-0.0001363195478916,-0.0010393742704764
2.312965087890625,-0.0083004665618762,-0.0039265166608151,0.031274259185791,0.0023064473643898,-0.0015975963324308,-0.0010809195227921
2.32294482421875,-0.0043762788554653,0.0032171536819078,0.0356131651729345,-0.0023760646581649,-0.0006669824942946,0.0021740326192229
2.332926025390625,-0.0122056390405632,-0.0032515126092359,0.0335176541984081,-5.8512669056e-06,-0.0013234512880444,0.002462452976033
2.342906005859375,-0.007066942711547,0.0013183982553426,0.0368067588716745,-0.0009645543759688,0.001192164607346,0.0012327176518738
2.352886962890625,-0.0057039837952703,0.0012738375944085,0.0333639249414205,-8.54448881e-05,-0.0018259957432746,0.0018396521918475
2.3628671875,0.0028801402798853,0.009866391571192,0.045332595154643,-0.0005751150893047,0.0012130616232752,-0.0009463963797315
2.372847900390625,-0.0046695627136155,-0.0015817162334918,0.0353057066589593,-0.0015383805148303,0.0024066902697086,-0.0004300094442442
2.382828125,-0.0079322908366099,-0.0079611516049131,0.0297708688855171,0.0024754768237471,0.0002585323527455,-0.0011309995315968
2.39280908203125,0.0041625447732396,-0.0082921736575663,0.0318640417724847,0.001900500501506,0.0010801181197166,0.0001595683279447
2.4027890625,0.0011744871394708,0.0020637549962382,0.0412877036780118,0.0011932768393307,0.0010100398212671,0.001196285476908
2.412770263671875,0.0009044745590537,-0.0079836739639751,0.0363520008414983,0.0005583792226389,-0.0011630998924374,0.0021145434584468
2.42275,0.0024917802831158,-0.0029259704492986,0.0420393988281488,0.0027564475312829,-0.0010863868519663,-0.0001498638885095
2.43273095703125,0.0001707169244065,0.0024700981742702,0.0412923798531293,0.0005979554262012,-0.0004035523161292,-0.0003163114597555
2.4427109375,-0.0055560084256343,0.0039524456865154,0.040696167525649,0.0009528517257422,-0.0013523567467927,-0.0024361810646951
2.452692138671875,0.0011506861387751,0.0027088662330526,0.0374058938086032,0.0017544631846249,-0.0009518172591924,0.0016962458612397
2.462672119140625,-0.0029137502885423,0.0034078904810361,0.0417436307519674,-0.0006765208672732,0.0022408803924918,-0.0010763282189145
2.47265283203125,-0.0057721901932731,0.0028811905926559,0.0345604412496089,-0.0015596251469105,-0.0001162830740213,2.70194286713e-05
2.4826328125,-0.0125915330856107,-0.0006795888951513,0.0347106633752584,-0.0018661310896277,-0.0013550138100981,0.0002289750555064
2.492614013671875,-0.0108449268803,-0.0018632548549212,0.0350087695389986,0.0022236853837966,-0.0002977382391691,-0.0012136592995375
2.50259423828125,-0.008367284720391,0.0023637517229653,0.0411421577274799,0.000903629232198,8.4257684648e-05,-0.001316946465522
2.5125751953125,0.0107356943521648,-0.0030429387593176,0.0430897846639156,0.0025571859441697,-0.0001972382888197,-0.0006290519377216
2.522554931640625,0.0066241491138003,-0.0040583080806303,0.0423351669043302,0.001529456116259,0.0016600107774138,0.0010674803052097
2.5325361328125,0.005608944189269,-0.0019356442376971,0.0508633412748575,-0.0037481302861124,0.0012014145031571,-0.0014510711189359
2.54251611328125,0.002973937776871,0.0003824325794819,0.0459288074821233,-0.0018959762528538,-0.0008657155558466,0.000165281642694
2.5524970703125,-0.0039445363746955,-0.0012496164686046,0.0408452206075191,-0.0003196511534042,0.0003462890163064,0.0010851374827325
2.562476806640625,-0.0061244011644273,-0.0043573458261322,0.0386012410730123,0.000364133156836,0.0005308678373694,0.0011167327174916
2.572456787109375,-0.0093592183671891,0.0009332622621208,0.0359101022928953,-0.0029014348983764,0.0017199693247675,-0.0013176628854125
2.58243798828125,-0.0051780236924067,-0.0044906990153715,0.0381552508711814,-0.0021926737390458,6.37974590063e-05,0.0005077382083982
2.59241796875,-0.006402231725119,0.0034462314637377,0.0445855761796236,0.0033858497627079,0.0009948387742042,0.000185229408089
2.60239892578125,-0.0093637666781432,0.0031434765243437,0.0355997211694717,0.0006864382885396,0.0015977593138813,0.0019378814613446
2.61237890625,-0.0008429901627823,0.005050424390519,0.0360474649369716,-0.0001828175154514,-0.0009008180350065,0.0008537084795534
2.622360107421875,0.0056022404538467,0.0064367550492286,0.0330558819055557,-0.0010774534894153,4.95761632919e-05,0.0005342102376744
2.632340087890625,0.0022505006068386,0.0012900946094654,0.0323106164962053,0.000330559676513,0.0005846051499247,-0.0012056329287588
2.642321044921875,-0.0084565887053497,-0.0071149922375101,0.0459241313070058,-0.0028038476593792,0.001945243217051,-0.0011446783319115
2.652301025390625,-0.0036267208634875,-0.0058016628829296,0.0379962609171867,-0.00118011853192,-0.0019589513540267,0.001625009230338
2.6622822265625,0.0004319251438602,0.0065283879885915,0.0344067119926214,-0.0004446180537343,3.6958605051e-05,-0.0023599390406161
2.672261962890625,0.0045090201233513,-0.0016454199863132,0.0345581031620502,0.0019282584544271,0.0010489597916603,0.0003381095302756
2.682242919921875,0.0032890864069573,0.0004274133655242,0.0388970091491937,0.000726546975784,-0.0007910700514912,-0.0005599829601123
2.692222900390625,0.0017995237026363,0.0064085518680512,0.0453320106327533,0.0022408203221857,-0.0019117286428809,-0.0006153767462819
2.7022041015625,-0.0002545227503404,0.0028290585466194,0.0363560924947261,-0.0052559128962457,-0.0024733506143093,0.0013090994907543
2.712183837890625,0.001073346586246,0.0002512256815563,0.0450333199471235,0.0005907911108806,0.003243657760322,-0.0006137028103694
2.722164794921875,-0.0031700266045518,0.006071958591137,0.0375502707153558,-0.0002273806603625,0.0020255772396922,0.0013870444381609
2.73214501953125,9.38888285309e-05,-8.8737729378e-05,0.045330841588974,0.0005023254780098,-0.0005600852891802,0.0032909382134675
2.7421259765625,-0.0015682174311019,-0.0002203830187208,0.0360562327653169,-0.0012343197595328,-0.0015008971095085,-5.26336079929e-05
2.752106201171875,-0.0010937683197669,-0.0058553018994629,0.0400935254573822,0.0010509388521313,0.0022309906780719,-0.0015376121737062
2.762087158203125,-0.0008181297161616,-0.0044440194625873,0.0411380660742521,-0.002022536471486,0.0015881294384598,-0.0002936072996817
2.77206689453125,0.0021990444142371,-0.0006246529706753,0.0385936422884464,-0.0026726140640676,-0.0001162942498922,-0.0003716379287652
2.782048095703125,0.00022772607496,-0.0007225421208888,0.0415899014949798,-0.0002158146817237,0.0008723968639969,0.0011461295653134
2.792028076171875,1.37545307166e-05,0.0045795828752219,0.0445809000045061,0.000374874449335,0.0006236573681235,0.0011197642888873
2.802009033203125,0.0013021869060583,-0.0076178728588856,0.0326128143131732,0.0020625924225896,-0.0021452791988849,-0.0002048773312708
2.81198876953125,-0.0061932103506289,0.0025652199786622,0.0338093306213617,0.0013808230869472,-0.0014009261503815,-0.0005644040647894
2.821969970703125,-0.0036415348401293,-0.0027173144009895,0.042337504991889,-0.0002165572950616,0.0006402153521776,0.0012680855579674
2.831949951171875,0.007156721620541,-0.0026976415861397,0.0356073199540376,0.0018990578828379,-0.0026280153542757,-5.09780657012e-05
2.841930908203125,-0.0018029577687382,0.0004743943124078,0.0347130014628171,-0.0018550982931628,-0.0023327302187681,0.0014280901523306
2.851910888671875,-0.0066648281840607,-0.003114314361941,0.0429413161039352,0.000449334969744,0.0003938134759664,-0.0011501160915941
2.86189208984375,0.0052399647464044,0.0025529176195152,0.047279637569189,-0.0012229284038767,0.0005135210230946,0.0004647148307412
2.8718720703125,0.0033233174701221,-9.6263448707e-06,0.043090953707695,-0.0014168065972626,-0.0016452381387352,5.75175072299e-05
2.88185302734375,-0.0014893983075395,-0.0025867650901898,0.047132338052988,0.0035280671436339,0.0002448400482535,-0.0013154657790437
2.891833251953125,0.0015614223641343,-5.37029486149e-05,0.0418915147900581,-0.0022517915349453,0.0026099933311343,0.001147159258835
2.901814208984375,-0.0065710672196932,0.0036073494427371,0.0466799181103706,-0.0016458716709166,0.0017830766737461,-0.000883218832314
2.9117939453125,0.0059809741057455,0.0077504588631447,0.0273766672253608,-0.0008152318187057,-0.0018372246995568,0.0011258698068559
2.921775146484375,0.0055140507137402,0.0068049673071131,0.0371066186010837,-0.0012563227210193,0.0003510378301143,0.0005113444640301
2.931755126953125,-0.0021066168904304,0.0053798846737481,0.0474310287386178,0.000919746235013,0.0006759436801075,-6.84257247485e-05
2.941736083984375,-0.0056512489610351,-0.0019057240234687,0.0357563730359077,-0.0011947157327085,0.0011295471340417,-0.0010088344570249
2.951716064453125,-0.0024241766733117,-0.0017847097259946,0.0511713843107223,0.0004082409432157,-8.4210187196e-06,-0.0002146797633031
2.961697265625,-0.0056338411685079,-0.0033198012056294,0.0430932917952537,-0.00036921154242,0.0007274812087416,-0.0016068182885646
2.971677001953125,0.0029043066067621,-0.0025494744202587,0.0462339279085397,-0.0011729536345228,-0.0013575069606304,-0.0003793673240579
2.981657958984375,-0.0034561135369352,-0.0007153086625039,0.0363590151041746,-0.0018123511690646,-2.70353630185e-05,0.0019831205718219
2.99163818359375,-0.0076049951110035,0.0073326718424912,0.0415992538452148,-0.0011015534400939,0.0006853602826595,-0.0001673821534495
3.001619140625,-0.0026115707378834,-0.0051979796350467,0.038006782311201,-0.0021406789310276,0.0001623844727873,-0.0007764211622998
3.01159912109375,-0.0028823687695898,0.0047386093618348,0.0472860673099756,-0.0003014997928403,-0.0005034049972891,0.0010449147084727
3.021580078125,0.0005765943115577,-0.0056695061369333,0.0390554145812988,0.0019020962063223,0.0006411131471395,-0.0004179042007308
3.03156005859375,-0.0127019346575252,0.0009517842995002,0.0353121363997459,0.0012317784130573,0.0029572648927569,-0.000631756032817
3.041541259765625,0.0026825901474803,0.0062692164625972,0.0411462493807077,-0.0009222227381542,-0.0011775344610214,-0.0014332950813695
3.051521240234375,0.0036651897103525,-0.0038832620409782,0.0383048884749412,-0.0011581787839531,0.0008821543306112,-0.0002156978152925
3.061502197265625,-0.0088178597657941,-0.0005786401381716,0.0393541052669286,-0.0006503964541479,-0.0011327136307954,-0.0011726527009159
3.07148193359375,-0.0040983752295374,0.0008412822628859,0.0369622416943311,-0.0013092624722048,-3.49590554833e-05,-0.0027433850336819
3.081463134765625,-0.007727854305692,0.0065484078633133,0.0499812977433204,-2.19612848013e-05,0.0005839327350258,-0.0007434236467815
3.091443115234375,-0.0089127167087048,-0.0061124823977705,0.0471346761405468,0.0013261308195069,0.0019429437816143,-0.0006954867858439
3.101424072265625,-0.005161858008895,-0.0039097481891047,0.0471387677937746,0.0008351824944838,-0.0005100592970848,-0.0003404687449801
3.11140380859375,-0.0043813020904548,0.0042966925469227,0.0478875403344631,0.0020772810094058,0.001055346801877,0.0017591672949492
3.121385009765625,0.0031370559167116,0.0022687395164277,0.038308980128169,-0.0015902344603091,0.0008413819596171,-6.08877162449e-05
3.131365234375,-0.0070515076803974,0.0048899000665638,0.0427986927628517,0.0006161944475024,-0.0009357454255223,-0.0015179031761363
3.14134619140625,-0.0055990986486896,-0.0056971978614572,0.0390612598001956,-0.0015138158341869,0.0006913999095559,-0.0014842725358903
3.151326171875,0.0013555975937284,-0.0014302063330542,0.0462444493025541,3.08175804093e-05,-0.0003080843016505,0.0002537064137868
3.161307373046875,0.0039045879567973,-0.0004851075026672,0.03606909224689,-0.0004310859949328,-0.0009031146764755,9.9330500233e-06
3.171287109375,0.0020103534417226,0.0018081819331273,0.0302338102221488,0.0005012867040932,-0.0001790011301636,-0.0002206967037636
3.18126806640625,-0.0052057519495487,0.0041653212522156,0.0321802681148052,0.000797975808382,-0.0013112295418977,0.0009084353223443
3.191248046875,0.0028529600120149,0.001197082563769,0.0387637381583452,0.00244966824539,0.0005135685205459,5.86206588195e-05
3.201229248046875,-0.0050565162045881,0.0005726487888023,0.044745150655508,0.0020571933127939,0.0022501051425933,0.0022614868357777
3.211208984375,0.0111529333835467,-0.0002604410344734,0.036811435046792,-0.0010512482840567,0.0041827615350484,-0.000180365590495
3.22118994140625,-0.0027052586370147,0.0036783140534069,0.0516197126001119,0.0002375423209741,-0.0007430100813508,0.0006314430502243
3.231169921875,0.0010177439414896,-0.0062190480447839,0.047729134902358,-0.0002492834464646,-0.0005547245964407,0.0004916270845569
3.241151123046875,-0.0033224954862147,0.0062469589650165,0.0356079044759273,-0.0003096318687312,0.0010617049410939,0.0003718637162819
3.251131103515625,-0.000967639455758,0.0004521824805997,0.0471317535310983,-0.0010420011822134,-0.0034092096611857,0.0006424408638849
3.26111181640625,-0.0008824271240271,0.003702800040692,0.0438373881608247,0.0011481781257316,0.0004841443151235,0.0005164121976122
3.271092041015625,0.0006419694316573,-0.0003118150286842,0.0369546429097652,-0.0021445541642606,0.0013155834749341,0.0015358701348304
3.2810732421875,0.0005320245174691,0.0011718385246582,0.0374041402429342,0.0012410834897309,-0.0015635574236512,-0.0008304294897243
3.29105322265625,-0.0048582171535119,-0.0013887235451955,0.0420429059594869,-0.0027589844539761,0.0018247822299599,-0.0017327085370197
3.3010341796875,-0.0028159342035651,0.0062657093312591,0.0312695830106735,0.0001380777684971,0.0010447967797517,-0.0005402590613812
3.311013916015625,-0.0059755672782659,0.0062769431113265,0.0411450803369283,-0.0007359717274084,0.0003915233537554,0.0002275303122587
3.3209951171875,0.004337353350874,0.0003415434466674,0.036656536746025,-0.0015406679594889,-0.0005193799734115,0.0005905334837734
3.33097509765625,0.0086790906159207,-0.0007889036216773,0.031117607319355,0.0030213268473744,-0.0007183188572525,0.0005180955049581
3.3409560546875,-0.0044923064505681,0.0011429868895094,0.0318646262943744,0.0013584283879026,-0.0007258765399456,0.0009493924444541
3.35093603515625,0.0073530479102395,0.0106295579634141,0.0399450568974018,-0.0002860734821297,0.0004027709364891,-0.0002378447388764
3.360917236328125,0.0039535964639857,0.0046692339200526,0.0321609788924455,0.0008663181215524,0.0022351518273353,-0.001951721147634
3.37089697265625,-0.0005992628010921,-0.0036550336425192,0.0342570743888616,-0.0007832439150661,9.21059399843e-05,0.0024677945766597
3.3808779296875,-0.0005501812286674,0.0069796936863567,0.0481745405822992,0.0022918824106454,-0.0014914255589246,0.0010716401739045
3.390858154296875,0.0037549503530375,3.79117244388e-05,0.0504220272481441,-0.0027614659629762,0.0007288521155714,-0.0001193254283862
3.400839111328125,0.0074040839777328,-0.0001309877022169,0.0330623116463422,0.0018126126378774,-0.002981873229146,0.0018848647596314
3.410819091796875,-0.0032941279082559,-3.08426628354e-05,0.0339607217907905,0.0007654577493667,0.0009321747347712,0.0019059038022533
3.420799072265625,0.0035744792195968,0.0039455866874661,0.042339258557558,-6.30039721727e-05,0.0003129821270704,0.0001003515644697
3.430780029296875,-0.0115172001186758,-0.0054147093919571,0.0382990432560443,0.0020938902162015,-0.0024061053991317,-0.001895687659271
3.44076025390625,-0.0033774040112271,0.0065878630908671,0.0386024101167917,-0.0016026319935917,-0.0018841596320271,-0.0016447816742584
3.4507412109375,-0.0052097705375403,0.0065283605891279,0.0442868854939937,-0.0012127452064305,0.000516946427524,0.0023944347631186
3.460720947265625,-9.12767463363e-05,-0.0078488960026297,0.0472802220910787,0.0008962210267782,-0.0002490011975169,0.0016000889008864
3.470701904296875,0.0072583553641103,0.0028317436940502,0.043240006789565,0.0017702705226838,-0.0007826993241906,-0.0012233944144099
3.48068212890625,-0.0017753025768324,-0.0023486363522242,0.0359077642053365,0.0010698813712224,0.0039398092776536,0.0007780804880894
3.4906630859375,0.0083515756946057,-0.0040903106540907,0.0377016618847846,-2.86726281046e-05,-0.001311145722866,-0.0016488581895828
3.500643310546875,-0.0020729338165372,0.0074465257468167,0.0381511592179536,0.001091749058105,0.0002037454396486,0.0006130945403128
3.5106240234375,0.0046636809621006,0.0081368734980002,0.0381534973055124,0.000437144190073,-0.0005363477393984,-0.0004345930065028
3.520604248046875,-0.0019323015031404,0.0011173866573721,0.0387532167643308,-0.0022165651898831,0.000919752754271,0.0006976800505071
3.530585205078125,-0.0094519564182497,-0.0010544866221491,0.0499777906119823,0.0005224959459155,-0.0006565721705555,0.0001386825315421
3.540565185546875,-0.0070487494677305,0.0052817123957443,0.0505757565051317,0.0002404573606327,0.0005444837734103,-0.000112518107926
3.550546142578125,-0.002219466147758,0.002382712151762,0.0405517906188964,7.53414351493e-05,-3.66186723113e-05,0.0010645991424098
3.560526123046875,-0.0002984349573031,-0.0030516517887357,0.0462380195617675,-0.0002359480131417,0.0019612591713666,0.0024805478751659
3.570507080078125,-0.003115355541557,0.000571342747705,0.0315723653495311,-0.0008633887628093,-0.0006169471889734,0.0004666653985623
3.580487060546875,0.0025590003004297,-0.0010049027262255,0.0401022932857275,-0.001059056725353,-0.0008857110515236,-0.0004264446615707
3.590468017578125,-0.0092012878591194,-0.0051828916637692,0.0336672918021678,0.0010616183280944,0.0017907656729221,0.0006920829764567
3.6004482421875,-0.0008483969902619,0.0017256821482907,0.0417483069270849,-0.0015778461238369,0.0001157941296696,0.0003222078084945
3.610428955078125,0.0092041374033316,0.0010127207065001,0.0442921461910009,0.0006341754924505,0.0008036885410547,-0.0014871438033878
3.6204091796875,0.0007308715578168,-0.0059845086365472,0.0345668709903955,0.0023002349771559,0.0009935339912772,0.0019266733434051
3.630389892578125,-0.0023125329923816,-0.0023123594624456,0.0513239445239305,-0.0009493541438132,0.0004659621044993,-0.0009157184395007
3.640370361328125,-0.0035799773786216,-0.002060540125845,0.0414472781538963,0.0013238167157396,0.0018953289836645,0.0005916279042139
3.650351318359375,0.0054480545391328,-0.004611512383446,0.0306710325956344,-0.0003044399200007,0.0021126428619027,-0.0008523380383849
3.6603310546875,-0.0063577897951938,-0.0003068009268492,0.04069441395998,0.0018896606052294,0.0015203226357698,0.0002704436774365
3.67031201171875,-0.0029626857304945,-0.0034627350739669,0.0414414329349994,-0.0016845677746459,0.0027488386258482,-0.0011397000635042
3.680292236328125,0.0018746895643882,-0.0044780495963525,0.0406926603943109,-0.0026369923725724,0.0012004356831312,-7.2126131271e-06
3.690273193359375,-0.003652202364616,-0.002216497872537,0.0528097991675138,0.0010275173699483,0.0009477017447352,0.0002617666614241
3.700253173828125,-0.0086624500083737,-3.98114205803e-05,0.0387432798922061,-0.001329455175437,-0.0001400737091898,0.0009247342240996
3.71023388671875,-0.0091969404775649,-0.0100919530885294,0.0405371775716543,-0.0018519673030823,0.0001603309065103,0.0016754793468862
3.720214111328125,0.0017517573044635,0.0071499174204189,0.0403892935335636,-0.0028059966862201,-0.000429667532444,-0.0008284860523417
3.730195068359375,-0.0078559193984605,0.0003660933660343,0.0327577757418155,0.0010707667097449,-0.0002536326646804,0.0005939082475379
3.740175048828125,0.0060241921929642,0.0057662810422945,0.0344026203393936,0.0008552856743335,0.0004033064469695,-0.0002198827714892
3.750156005859375,0.0005220145801082,-0.0003115045014303,0.0384434201627969,-0.0008518006070517,0.001175888814032,-0.0033147421199828
3.76013623046875,-0.0013241612758487,-0.0063961033784318,0.0415840562760829,0.0008169576758518,-0.0016846610233187,-5.68232790101e-05
3.7701171875,-0.0027517281272448,-0.0029284546673297,0.0356026437789201,0.0018164421198889,-0.0039062704890966,-2.30011355597e-05
3.78009716796875,-0.0077607701946049,0.0043867089179344,0.0396451971679925,0.0004128667060285,0.000976332463324,-0.0017288252711296
3.790078125,0.0012598456016741,-0.0012729151458013,0.0388975936710834,-0.0014880975941196,-3.9929524064e-05,-0.0001405159418936
3.800058349609375,-0.004440284002386,-0.0034132699090521,0.0329120895206928,-0.0006251372979022,0.0009870631620287,0.0010800200980156
3.8100390625,-0.0047165619268082,4.79764607269e-05,0.0365039765328168,0.0003130943514406,0.0007042363286018,-0.0017573117511346
3.82001904296875,0.0065277943335473,-5.9813028993e-05,0.0394978976517915,-0.0009282481041736,-0.0016578342765569,0.0002895083162002
3.83,-0.0081899188594892,-0.001486822757963,0.0354576823502779,0.0009519436862319,-0.0019518472254276,-0.0017520709661766
3.839980224609375,0.0026568711843341,-0.0010414627437945,0.0363520008414983,8.9509412646e-06,0.0013339072465896,-0.0026454268954694
3.849961181640625,-0.0011591434398666,0.0037635811840649,0.0432335770487785,0.0015192294958978,0.0029547065496444,0.0013722180156037
3.85994091796875,0.0002594546537846,0.0022567568176891,0.038142975911498,-0.0013586416607722,4.56972047686e-05,-0.0001020585405058
3.869921630859375,0.0045157786577008,0.0008843542196322,0.0364969622701406,0.0019045295193791,-0.0017575286328792,0.0008167320629581
3.879902099609375,0.0078848349656909,0.0044505770675372,0.0379950918734073,0.0003505807835608,0.0011764233931899,-0.0007563978433609
3.8898828125,-0.0013513598100282,-0.0005201879492029,0.034405542948842,0.0013878819299861,-0.0003034956753253,5.69315452594e-05
3.89986279296875,-0.0044746429297141,-0.0029069004226475,0.045927638438344,0.0013770470395684,0.0002492163330316,0.0013138530775904
3.90984375,0.0006091448742896,-0.0061824697609059,0.0421896209537982,0.0009474791586399,0.0001860996708273,-0.0006765933940187
3.919823974609375,0.0046223808373324,0.0024273458779323,0.0279740485966205,0.0008150725625455,0.0009376499801874,0.0017827786505222
3.929804931640625,0.0082221588949672,-0.0071472414061427,0.0460807831734418,0.004235902801156,-0.0012373542413115,-0.0006457580020651
3.939784912109375,-0.0005022504337131,0.0011765329660847,0.0357522813826799,0.0014819727512076,-0.0006140563637018,0.0004854367580264
3.949765869140625,-0.0036001616501249,0.0005769961703568,0.0411351434648036,0.0003155081067234,0.0005569355562329,0.0009541530744172
3.959745849609375,-0.0047142786381766,-0.0049826198513153,0.0429313792318105,-0.001771411509253,-0.0018744627013802,-3.17906669806e-05
3.969726806640625,-0.0071616900566034,-0.002115996640129,0.0320078341573476,-0.0021716845221817,-0.0005900198593735,-0.0016531230648979
3.979706787109375,0.0070898851957172,-0.0032571203661151,0.0387432798922061,0.0035028418060392,-0.0017724707722663,0.0002632258692756
3.989687744140625,0.0044333062723278,-0.0021054752461146,0.0347030645906925,0.0009094553533941,0.0011191898956894,0.0011436669155955
3.999667724609375,-0.0037675175736658,0.0061786521023139,0.0468219569295644,-0.0026145938318222,-0.0001251017674803,-0.0008985065505839
4.009646728515625,-0.00368336468786,0.0060817219333257,0.0468248795390129,0.0013226235751062,-0.0007717171683907,0.0023556100204586
4.019626953125,0.011076781141106,0.002170932564605,0.0315606749117374,-0.0008697615703567,-0.0002136891707777,0.0007762196473777
4.02960791015625,-0.0035795937861315,-0.0069856393699534,0.0399392116785049,0.0020261597819626,0.0004379861056804,-0.0014272797852754
4.039587646484375,0.0028482473042793,0.0004105352959595,0.0385918887227773,0.001385067589581,-0.0008612154051661,0.0001655951200518
4.04956884765625,0.0006629574207589,-0.00496344022681,0.0396405209928751,0.0007682795403525,-0.0001730546355247,0.0028785574249923
4.059549072265625,-0.0021065438251942,0.0012764040108304,0.0384422511190176,0.0002051688497886,0.0019909320399165,0.0012601806083694
4.06952978515625,-0.0038945597531273,0.0052078525750897,0.0363438175350427,0.0006264809053391,0.0006953040137887,-0.0016996565973386
4.079510009765625,-0.0024855149391107,-0.0074860175069887,0.0324544088810682,-0.0026296833530068,-0.0029604649171233,0.003585813101381
4.089490966796875,-0.0011130575421266,0.0054308750754687,0.0294663329809904,-0.0022941250354051,-0.0014214245602488,0.000969523563981
4.099470947265625,-0.0019490151759237,-0.0001015698114875,0.0351508083581924,-0.0003049796214327,0.0014998046681284,-0.0008183434256352
4.109451904296875,0.0055722654406912,0.000315733151976,0.0350005862325429,-0.0006714306073263,-0.0008086236193776,-0.001433533616364
4.119431884765625,0.0063739006797783,0.0041059740141034,0.0436819053381681,-0.0017455474007874,-0.0017081964761018,0.0007123493705876
4.1294130859375,0.000905278276652,-0.0034679683715105,0.0390489848405122,-0.0015607241075485,-0.0047106440179049,8.09138873592e-05
4.139392822265625,0.0060915766070596,0.0020610241830348,0.042494156858325,0.0009248864371329,0.0001306878402829,0.0010386313078925
4.149373779296875,0.0034255540018901,0.003806406545639,0.0374058938086032,0.0010436633601784,0.0021837186068296,-0.0005145242321304
4.159353759765625,0.0110822062348946,0.0022224070235155,0.0291758256018161,-0.0002110461937263,0.0013733804225921,-0.0004954515607096
4.1693349609375,0.0047647849827073,-0.0006938000835943,0.0321685776770114,-0.0025951080024242,-5.3383409976e-06,-6.2288745539e-06
4.179314697265625,-0.004412208685372,0.0027711726132314,0.040548868009448,-0.000279975880403,0.0019230311736464,0.0001875918533187
4.189295654296875,0.0014721183791756,-0.0010036240845918,0.0294739317655563,0.0005301577039062,0.0007171519100666,-0.0005216079298406
4.19927587890625,0.0055283349674195,0.0011331596152391,0.0450344889909029,-0.0026265438646078,0.0020253034308552,-0.0005016534705646
4.209257080078125,-0.0009154891434125,-0.0030783205999527,0.0460819522172212,0.0009948224760591,-0.0007150890305638,-2.41486850427e-05
4.219237060546875,0.0019837028968147,-0.0049372098070103,0.0465291114628314,-0.0031521399505436,0.0003468878567218,0.0004294251848477
4.229218017578125,-0.0008218012442812,0.0039035833097994,0.0477273813366889,0.0002961211139336,-0.0017668632790446,0.0011727133532986
4.23919775390625,0.0018357092608697,-0.0051237088224384,0.0406920758724212,0.0021391925401985,0.000460616312921,-0.0013742815935984
4.249178955078125,0.0078382376112975,-0.0029335692338645,0.0408411289542913,0.0005945590091869,-0.0002682907506823,-0.001079469686374
4.259158935546875,0.0006420242305845,0.0041713400010485,0.0442816247969865,3.13272466883e-05,2.51336023211e-05,-0.000613692915067
4.269139892578125,0.0005776354911737,0.002702938815765,0.0362029477596283,0.0004513077437877,-0.0041062282398343,-0.0017141110729426
4.27911962890625,0.0010352978644892,-8.30934398807e-05,0.035903088030219,0.0003682295791804,-0.0006823856383562,-0.0009967181831598
4.289100830078125,-0.0012704583272337,0.007500877149403,0.0330593890368938,0.0002060430124402,0.0021083410829305,-0.0002611531235743
4.299080810546875,0.0065659709194675,-0.0002215155298821,0.0394908833891153,0.0003290474414825,-0.0007954761385917,-0.0011073906207457
4.309061767578125,0.0018542860971763,-0.0048732503258623,0.0453290880233049,0.001248104381375,4.31528314948e-05,-0.0016815682174637
4.3190419921875,-0.0024754867354407,-0.0038503644183743,0.0472732078284025,0.0024553788825869,0.0006529232487082,0.0004391140537336
4.32902294921875,0.0030484277851879,0.0031726660862099,0.0370972662508487,-0.0010192471090704,0.0003663673996925,-0.0005955240339972
4.3390029296875,-0.001040777757205,0.0014826945721171,0.0438303738981485,0.0012458499986678,-0.0004537440836429,0.0003227413399145
4.34898388671875,-0.0021044614659622,0.0027737938285805,0.0435299296468496,0.0016511832363903,0.0010410882532596,-0.0008045747526921
4.3589638671875,0.0007682626924477,0.0057306252070236,0.0423304907292127,-0.0010824522469192,0.0001494949683547,-0.0008001876994967
4.368945068359375,0.0023302147795446,-0.0053102078378666,0.0317038827747106,-0.0012398450635373,9.96943563222e-05,0.0026874879840761
4.378925048828125,0.0022796171034686,-0.0041535942818038,0.0296072027564048,0.0014587093610316,-0.0004943283274769,-0.0005330387502908
4.38890478515625,-0.0048411198882386,0.0034520584163255,0.0337953020960092,0.0020478006917983,0.0001006219536066,0.0003045253688469
4.3988857421875,-0.0066811217317357,-8.03717598319e-05,0.0421767614722251,-0.0015379760880023,-0.0002659503370523,0.0009444032330065
4.40886572265625,0.0046582558683119,0.0023682909007649,0.0417260950952768,0.0011566103203222,-0.0006097638979554,-0.0008377840858884
4.418846923828125,-0.0067249243408441,0.0045736006590072,0.0441238038867712,0.0017225531628355,-0.002820573747158,0.0002815062762238
4.428826904296875,0.0003575447333976,0.0043989747444633,0.0375397493213415,0.0016964540118351,0.0021313074976205,-0.0007065264508128
4.4388076171875,-0.0002741224999539,0.0072416142918635,0.0308054726302623,0.0017778137698769,0.0004939837381243,-0.0001627005403861
4.448787841796875,-0.0007603351143188,0.0066917435904499,0.043074002572894,0.0010371888056397,0.0001845238730311,0.00113266101107
4.45876904296875,-0.0085993216442875,0.0002926993362605,0.0436743065536022,-0.0006135764997452,-0.0002511516213417,-0.0019371019443497
4.4687490234375,-0.0057436947511509,-0.0056175293545238,0.0367921458244323,-0.001639426103793,-0.0003811130300164,-0.0014721140032634
4.478729736328125,-0.0005017207107506,-0.0010963256030343,0.0406838925659656,-7.44971912354e-05,0.0009132148697972,-0.0003123906790278
4.488709716796875,-0.0028217611561529,-0.0005913260898087,0.0427764809310436,0.001449630013667,0.0002673985436558,0.0026104284916073
4.49869091796875,0.0065815155484713,0.0027920966702513,0.0382908599495887,-0.0017213949467986,-0.0015136813744902,-0.0002091913338517
4.5086708984375,0.0020640746566466,-0.0050379941672086,0.0330517902523279,0.0015385806327685,-0.0010873097926378,-0.0007601993856951
4.51865185546875,-0.0009547069089487,-0.0027614184041973,0.0412841965466737,-0.0005635594134218,-0.0034629935398697,-0.0004413817659951
4.528631591796875,-0.0017482501731254,-0.0042704073281958,0.0423339978605508,-0.0022469435352832,-0.0020219571888446,-0.0013572428142651
4.53861279296875,0.0006140585114248,-0.0007730301991105,0.0326110607475042,0.0010280995629727,-0.0009181126952171,-0.0015010490315034
4.5485927734375,-0.0030057394209317,0.0038789603251963,0.050869771015644,-6.11332943663e-05,-0.0006318222731351,0.0004590374592225
4.55857373046875,0.0041697416990064,0.0002469604983925,0.0396469507336616,0.0010634759673848,-0.0006624767556786,0.0028484447393566
4.568553955078125,0.0046082609804347,0.0043179179980419,0.0326169059664011,0.0039383587427437,-0.0021423958241939,-0.0024171574041247
4.57853515625,0.0043677302228286,-0.0006325714156497,0.0429413161039352,0.0005452963523566,-0.0006927708163857,0.000243397327722
4.588514892578125,0.0037995932123623,0.0057206152696628,0.0475783282548189,0.0011378496419638,-0.0007348489016294,-0.0007811207324266
4.598495849609375,0.007270045801904,0.0038898470453917,0.0377034154504537,0.0001418032916262,-0.0026438208296895,0.0005427008727565
4.608475830078125,-0.0010513174175284,0.0041304600013885,0.034416648864746,-0.0004392984556034,-0.0011947955936193,-0.0002927327295765
4.61845703125,-0.005113342692051,0.0017411445789039,0.032771804267168,-0.0024867309257388,0.0005589807406067,8.18339321995e-05
4.628436767578125,0.001635839307215,-0.0040704460429958,0.0416004228889942,0.0008281058399006,-0.0014301342889666,0.0025487202219665
4.638417724609375,-0.0020109562299214,-0.0014151914270129,0.0363625222355127,0.0001127930590882,0.000919428654015,0.0002550915232859
4.64839990234375,-0.0031892975606024,-0.0014157028836663,0.0406990901350975,-0.0013135960325598,0.0014462023973464,-0.0005430578603409
4.6583798828125,2.60477567091e-05,0.0046407019453123,0.0354606049597263,0.0003915835404768,-4.24915924668e-05,0.0021534173283725
4.66836083984375,-0.0002084003199823,0.0025820615156088,0.0311222834944725,0.0020070569589734,-0.0025533195585012,0.0018346367869526
4.6783408203125,-0.0098112547173164,0.0036172589153982,0.0314244813114404,-0.0015555121935904,0.0005968334153294,0.0014172724913805
4.688322021484375,0.0007441694308072,-0.0060157074924092,0.040401568493247,4.45150071755e-05,-0.0007757600396871,-0.0002626494970172
4.6983017578125,-0.001436206815578,-0.0018888824865221,0.0421948816508054,0.0003140167100355,0.0004528043791651,0.0001020028139464
4.70828271484375,0.0052891741829924,0.0045660475402139,0.0314203896582126,-0.0003216798068024,-0.0003623887896537,-0.0005006705177947
4.7182626953125,-0.0016425430426374,0.0084188961766194,0.025287585991621,-0.0003664103569462,-0.0017674108967185,-0.0005205492489039
4.728243896484375,-0.0004857924892567,-0.0064569575870409,0.0380085358768701,-5.66847156733e-05,-0.0018571587279438,-0.0004012396093457
4.7382236328125,-0.0014888685845769,-0.0060888366607017,0.0421966352164745,-0.0022781542502343,-0.0009705573320388,0.0004498967027757
4.74820458984375,0.0077614277817308,0.0044096148694865,0.0290308641731739,-0.0002014213241636,-0.0019511329010128,0.0022107786498963
4.758184814453125,0.0028307481802068,0.0040296391085721,0.0429518374979496,-0.0032952232286334,-0.0001063449308276,0.000944530358538
4.768166015625,-0.0087909900251775,-0.0005095843567978,0.0410047950834035,-0.0005452431505545,0.0012523997575044,0.0017954104114323
4.77814599609375,-0.003656677610334,0.0012413052979856,0.0357686479955911,-0.0014751125127077,-0.0006888005882501,-0.0026469451840966
4.788126953125,0.0027744331493973,-0.006351460519107,0.0456447298437356,0.0020692886319011,-0.000522619113326,-0.0002695414586924
4.798106689453125,-0.0024915793537162,-0.0071689417812973,0.0315770415246486,0.0008115594973787,0.0009226184338331,0.0004579070082399
4.808087890625,-0.0008765453725121,0.0016757785919588,0.0348684842854738,0.001644330099225,-0.000104296952486,-0.0005498331156559
4.81806787109375,-0.0026518296830356,0.0049069151334464,0.0399555782914161,-0.000893797900062,-0.0001739440485835,-0.0004735679831355
4.828048828125,0.0048520979399792,-0.0047289556175004,0.0401063849389553,0.0012425899039953,0.0011347327381372,0.0002385612751822
4.838028564453125,0.002139057855308,-0.0069645417829975,0.0396551340401172,0.0009491274831816,-0.0003341780975461,-0.0014004907570779
4.848009765625,-0.0034337007757276,-0.0060210229883436,0.0451952325105667,-0.0017073756316676,-0.000874001532793,-0.0001788988010957
4.85798974609375,0.0014317498361691,-0.0035671818291302,0.0387637381583452,-0.0014487181324511,0.0009106798097491,-0.0027335886843502
4.867970703125,0.0026240831595845,-8.49931360222e-05,0.0389174674153327,0.0003190882271155,-0.0040883398614823,0.0002147970953956
4.877950927734375,-0.0022172741906717,0.0031530754697509,0.0535848751932382,-0.0019024400971829,-0.0019431309774518,-0.0012382596032693
4.887931884765625,0.0040185331926681,0.0049539782787207,0.0434112717032432,-0.0007695314125157,-0.0011694822460412,0.0021543412003666
4.89791162109375,0.0006131269296631,0.0036636736067011,0.0321902049869298,-0.0026058219373226,0.0003426559269428,-0.0005541018326766
4.907892822265625,0.0021743666307069,-0.0010197897681035,0.0296481192886829,-0.0013208466116338,-0.0019460646435618,-0.0004939143545925
4.917872802734375,0.0051219095909968,-0.0011286569700576,0.0393763170987367,8.5142673924e-06,-0.0017695231363177,0.0001608662423677
4.927853759765625,-0.0036033399879001,-0.0111786432135384,0.0392296021044254,-0.0009478268329985,-0.0005628447979688,0.0008921703556552
4.93783349609375,0.0075433828505687,0.0012410952354315,0.0380307477086782,0.0023404322564601,0.0008046049624681,-0.0003168632974848
4.947814697265625,-0.0055270380594767,0.002942565391073,0.0401239205956459,0.0001912614097818,0.0015393709763884,0.0014789061388
4.957794677734375,-0.0051793023340404,0.0004505841785576,0.0446136332303285,0.0001257741823792,-0.0016671940684318,-0.0014835428446531
4.967775634765625,0.0046124622315168,-0.0033707185421139,0.0426689289033412,0.0036004004068672,0.0012234011664986,-0.0017831486184149
4.977755615234375,-0.0030908421548083,0.0014863843665458,0.0332394217789173,0.0009703254327178,-0.0006520068272948,-0.0007569293375127
4.98773681640625,-0.0005705298969522,0.0089184340634383,0.0390787954568862,-0.0009159916080534,-0.0027420558035373,0.0006734544876962
4.997716796875,-0.0004596716673113,0.0047428654118441,0.0404290410220623,-0.0003273785114288,-0.000710904598236,0.0001493521558586
5.007697509765625,-0.0009860518952831,0.0017822803068906,0.0431236869335174,-0.0015047620981931,0.0007564965635538,-0.0011723747011274
5.017677734375,0.0041042569810524,-0.0075378664252348,0.0350438408523798,0.0001318083377555,0.0001454884186387,-4.17927149101e-05
5.027657958984375,0.0009897599560208,0.0003118606944568,0.0333978272110223,0.0016958827618509,-0.0019035479053854,0.0012719446094706
5.037638671875,0.0028961963655427,0.0011750899276696,0.0330979674816131,-0.0012053147656843,-7.81705603003e-05,1.99679925572e-05
5.04761865234375,0.0030594058369286,0.0074454754340462,0.0362409416824579,0.0002634186530485,0.0016163988038897,0.0010317028500139
5.057599609375,-0.0001700410709716,0.0005414955987129,0.0464162987381219,-0.0024307090789079,-0.0007503880187869,-0.0029272343963384
5.067579833984375,0.0020011654882691,0.0008003017985261,0.0431231024116277,-0.0004381320322863,0.0006248680874705,0.0010643115965649
5.077560791015625,0.0036198344649747,-0.0018211875451728,0.032801614883542,-0.0005347818369045,-0.002163658849895,0.0009017585543915
5.08754052734375,0.0061761678842827,0.0015413202910218,0.0304068287014961,9.3019334599e-06,0.0013514477759599,-0.0010410174727439
5.097521484375,0.003856310101971,0.0014141776468604,0.0381891531407833,-0.0004567419528029,-0.0008289190009236,0.0004439649928826
5.107501708984375,0.0054300074257887,-0.0043177992670331,0.0420820689260959,0.0015230518765747,0.000796940177679,-0.0005219634622335
5.117482666015625,0.0066124769423156,0.0046920028742868,0.0350485170274972,0.00188106787391,-0.0019675530493259,-0.0001768028596416
5.127462890625,0.0056207624912261,0.0008736136299092,0.0413368035167455,0.0026059802621603,-0.0018775379285216,0.0009726174175739
5.137443603515625,-0.0032475853527896,0.0010704879088792,0.0389414328128099,0.0004081527004018,-0.000316135585308,-0.0002328039554413
5.147423828125,-0.0024687282010912,0.0011930274431593,0.0284662160277366,0.0022582504898309,-0.0018924605101346,0.0007254013908095
5.15740478515625,0.0161385763090103,-0.0007087053917814,0.0205360075503587,-5.17917796969e-05,0.0010597063228487,-1.36150993057e-05
5.167384765625,0.0060340559998527,9.41719563212e-05,0.0416325715929269,-0.0021287910640239,0.0003707464784383,-0.0018653110601007
5.17736572265625,0.0068986369399353,-0.0069137705769855,0.0316074366629123,-0.0005046044825576,-0.0009692599996924,0.0012556910514831
5.187345703125,-0.0054883682832121,-0.0021401264343876,0.0440267732530832,0.0013683966826647,-0.0007817735895514,0.0013454395812004
5.19732666015625,-0.0047099677892401,0.0015575407734606,0.0470218634158372,-0.0005289461114443,-0.0029286099597811,0.0003832028014585
5.207306640625,0.001059153664112,0.0022728859685827,0.0298123699396848,-0.0012200364144518,0.0018051592633128,-0.0009917872957885
5.21728759765625,0.0050632199400104,-0.0088101148507557,0.0353518838882446,0.0003058358561247,-0.000909125432372,0.0013890789123252
5.227267822265625,-0.0062274414137937,-0.0045095407131593,0.0431347928494215,-0.0026201792061328,-0.0020622741430997,0.0035454402677714
5.23724853515625,-0.0105222890635021,-0.0085089673465583,0.0313110840648412,0.0001171445474028,0.0004858011379837,0.0013474052539095
5.247228759765625,0.0014092457434162,0.0088528762802481,0.0405845238447189,0.001471095602028,0.0003654267638921,8.29363998491e-05
5.257209716796875,0.0067329615168273,0.0025201295947656,0.0402829105496406,0.0009875657269731,0.0008052084594964,0.002384322695434
5.26718994140625,0.0007024491809308,-0.0002963617312256,0.0507557892471551,-0.0023991761263459,0.0002595270052552,-0.0003161226632073
5.2771708984375,0.0114843755613081,0.0086183368720114,0.0353442851036787,0.0016809907974675,-0.0007246471941471,-0.0021799383684992
5.287150634765625,0.0060612545340321,0.0056197304447647,0.040431379109621,-0.0026913871988654,0.0003597913309931,-0.0012797899544239
5.297131591796875,0.0133615128111094,-0.0008504062842577,0.0455219802469015,-0.0009948406368494,-0.001752570271492,-0.0008136541582643
5.30711181640625,0.0016136822743341,-0.0023943843232467,0.0434288073599338,-0.0024968634825199,6.18416815996e-05,-9.91280103335e-05
5.3170927734375,0.0022424634308554,-0.0089676161005627,0.0319043737828731,-0.0003220193902961,0.0015587005764245,-6.287638098e-05
5.32707275390625,0.0100124215789139,-0.0001325129390228,0.0360907195568084,-0.0011292234994471,0.0007107499986886,0.0017680467572063
5.337053466796875,0.0059736310495063,0.0044661673623137,0.0332476050853729,-0.0015098900767043,-0.0017307391390204,-0.0016580921364948
5.34703369140625,0.0056728945372626,-0.0031962752906605,0.0408797073990106,0.0007165125571191,0.0002714246511459,0.0014394305180758
5.3570146484375,-0.0033918343953788,0.0051334447651635,0.0321995573371648,0.0031897299923002,-0.0006662495434284,-0.0012878304114565
5.366994873046875,0.0030048443717882,-0.0033616767191328,0.0245697931110858,-0.0019312626682221,-0.0009030047804117,-0.0003298913361504
5.3769755859375,-0.0038013833106495,0.0014699812210164,0.034895956814289,0.0056587229482829,0.0010931706055998,0.00016364743351
5.386955810546875,0.0024476123478263,0.0052356264980044,0.040127427726984,0.0001052330480888,-9.67299565672e-05,-0.0019586256239563
5.396935791015625,-0.0035773652964271,-0.0009535469983238,0.0465618446886539,-0.0012165470980107,-0.001915949396789,0.0006969406385906
5.406916748046875,-0.0012843772547319,-0.0005478522742632,0.0356394686579704,-0.0010455721057951,-0.0006120651960372,0.0029592961072921
5.416896728515625,0.0013126352348364,0.0026526151343248,0.0321983882933855,0.0025204438716173,0.0007655983790755,-0.0024574808776378
5.4268779296875,-0.0022972623580135,-0.0005978106295224,0.0375847575068473,-0.0019014689605683,-0.0004852879792451,0.0012858582194894
5.436857666015625,0.0093665248908102,-0.000431678548688,0.0419254170596599,-0.0020657978020608,-0.0020430069416761,0.0013590018497779
5.446838623046875,0.0115657702344469,-0.0009371712522581,0.0489613070458173,-0.0015648573171347,-0.0003226045519113,0.0021270576398819
5.456818603515625,0.0016287154466845,0.0010181092676706,0.0366892699718475,0.0003954237326979,-1.94953754544e-05,0.003277009120211
5.4667998046875,0.0005853256072849,0.0008626995102502,0.0350438408523798,-0.0015699891373515,0.0018764082342386,0.0010692486539483
5.476779541015625,0.0069767619437538,0.0005136851431801,0.0455208112031221,0.0007622634293511,-8.28383490443e-05,0.0011623012833297
5.486760498046875,0.006028265579883,-0.0005563917737454,0.0357920288711786,0.0034214297775179,0.0027691405266523,4.3588224798e-06
5.49674072265625,0.0049894788503646,0.005487966424413,0.0392348628014326,-0.0002714868751354,-0.0002648346126079,0.0016597900539636
5.506721923828125,0.0051948286967352,0.0026455826053395,0.0384866747826337,0.0010995084885507,0.0004840465262532,-0.0001311857049586
5.516701904296875,-0.0033825916429981,0.0084036620748694,0.0521013586372137,0.002730016130954,0.0010487204417586,-0.0009739099768921
5.526682861328125,0.0037427301922813,0.0037660836684051,0.0407277317076921,-0.0003001287113875,0.0007102331146597,-0.0016389013035222
5.53666259765625,0.0042897330831736,-0.0006658800302073,0.0429705421984195,-0.000950688146986,-0.00148949585855,0.0004340336599852
5.546643798828125,0.0041478403944522,-0.0005738908978179,0.0458148257136344,-0.0023877299390733,0.0007507549598813,-0.0002400123921688
5.556623779296875,0.002386858603917,0.0060067661341279,0.0360860433816909,-0.0011441201204434,0.0015477733686566,0.0003051796811632
5.566604736328125,0.0005408654110506,0.0031093824584968,0.0380307477086782,-0.0009824662702158,0.0005315104499459,-0.0021446621976792
5.57658447265625,-0.0010659487310796,0.0096568222074303,0.0336941798090934,-0.0015118538867682,-0.0022854264825582,0.0012926096096634
5.586565673828125,-0.0004662292722612,-0.00450441701347,0.0350450098961591,-0.0004268820630386,-0.0010542469099164,0.0005192277603782
5.596545654296875,0.0079853361980989,-0.0042108865601476,0.0423790060460567,0.0014430982992053,-0.0003476738929748,0.0004652515344787
5.606526611328125,0.002177873762045,0.0008508081430569,0.0390858097195625,0.0017733303830027,0.0005543380975723,0.0025156191550195
5.6165068359375,0.0078944795768707,0.0046612058772239,0.0280108734756708,-0.0020639095455408,0.000171068124473,-0.0012434817617759
5.626488037109375,-0.0099995620973408,0.005908018467389,0.0404284565001726,0.0005814083851873,0.0008120909333229,0.0004052812582813
5.6364677734375,-0.000659888680838,-0.0025350440361071,0.0396808530032634,0.0017376797040924,0.0011603413149714,-0.0008228495717048
5.64644873046875,-0.0008357932370156,-0.0018214250071905,0.0351917248904705,0.0012335433857515,0.0004830993711948,0.0012142023770138
5.6564287109375,-0.0007769209229387,-0.0024662165835965,0.0456634345442056,0.0020182090811431,0.000239853747189,-0.0013759795110672
5.666409912109375,-0.0006488375638611,-0.0032677604911383,0.0474573322236537,-0.0012388369068503,-0.0006661536172032,-3.93390509998e-05
5.6763896484375,0.0030618352560326,-0.0002583952078595,0.0299520706713199,0.0015186340315267,0.0008984385058283,-0.0006978622986935
5.68637060546875,-0.0015975348571315,-0.0019722955868113,0.03608779694736,-0.0011330754496157,0.0003546206280589,-0.0021151965484023
5.6963505859375,-0.0008724902519024,-0.0046176041975151,0.0395282927900552,0.0022267312742769,-0.0007250476628541,-0.0005835985066369
5.706331787109375,-0.0018916589654982,0.0023707933851052,0.0362356809854507,-0.000619122525677,-0.0001021344214677,-0.0001702759036561
5.716311767578125,0.0102683508350513,-0.0023490564773324,0.0417740258902311,-0.0022049525287002,0.0005584061145782,0.0007505702669732
5.726292724609375,-0.0021787688111886,0.004634902392188,0.0338432328909635,-0.0007873519789427,-0.0006109876558184,-0.0019488098332658
5.736272705078125,0.0009655936291441,-0.0034322120715398,0.0398269834756851,0.0003294217167422,-0.0002524890005588,-8.16236133687e-05
5.746252685546875,-0.001562701005768,-0.0004868884677998,0.0410229152619838,0.0021137394942343,0.0016569979488849,0.0009061428136192
5.75623388671875,0.0013204166824929,-0.0004267192457802,0.0511971032738685,-0.0011105822632089,0.0022168420255184,0.0001658675028011
5.7662138671875,0.0019987908680923,-0.0059692654016427,0.0485024573624134,0.0009895865805447,0.0020615793764591,-0.0002117687545251
5.776194580078125,0.0020855558360926,0.0043706071665044,0.0414712435513734,0.0016880964394658,-0.0026894398033618,-0.0002013764169532
5.786174560546875,-0.0044681401236914,0.0066411185149103,0.0414729971170425,-0.0032627200707793,0.0004677381366491,0.000378127413569
5.79615576171875,-0.001575523954723,0.0015274470292963,0.035336101797223,0.000864413450472,-0.0002973172813653,0.001139307511039
5.8061357421875,0.0084262666323222,0.0057614496035501,0.0393751480549573,-0.0007207000162452,1.4891847968e-06,0.0008298481116071
5.81611669921875,0.0010624781323596,-0.0007520330768544,0.0440139137715101,-0.0020439005456864,-0.0008126068860292,-0.0005443557165563
5.826096435546875,-0.0050943091980181,-0.0006132273943629,0.0405751714944839,-0.0012928890064358,-0.0004083393141627,0.0003661790397018
5.83607763671875,0.0019764694384299,0.0030274032634682,0.0345867447346448,-0.001680539920926,0.0006615919992327,-0.0019138233037665
5.846057861328125,-0.0038606392172165,0.0022013277028687,0.0378799410611391,-0.002627826295793,4.77330759167e-05,-0.0010901076020672
5.85603857421875,-0.0016162760902196,0.0007529007265344,0.0339899478852748,-0.0031360897701233,-0.0022738939151167,-0.0007161897374317
5.866018798828125,-0.0080377970376983,-0.011666983852908,0.0417734413683414,-2.44524562731e-05,3.90615314245e-05,-0.0002061943960143
5.876000732421875,0.0054199426895007,-0.0072602550602518,0.0405751714944839,0.002833676058799,0.0002995245158672,-0.0006188921979628
5.885980712890625,0.001677066366747,0.0011816749320831,0.0326437939733266,0.0005177911370992,-0.0017314022406935,-0.0026239862199872
5.895961669921875,0.0064311472923494,0.0003235785317141,0.0461100092679262,0.0001156467478722,0.0007458077743649,0.0001317957649007
5.90594189453125,0.0066111069691367,0.0029711247652769,0.0401221670299768,-0.0013059485936537,0.0013165231794118,-0.0011656963033601
5.9159228515625,-0.0068397828921675,0.0054574251556769,0.0362298357665538,-0.001545310486108,0.0003580339252948,9.00157610885e-05
5.92590283203125,-0.0055866958248429,0.0032298122340813,0.0408709395706653,-0.001153559423983,-0.0025655841454863,-0.0011560772545635
5.9358837890625,0.0038792708524502,-0.0051184115928132,0.0357803384333848,0.0029945222195237,0.0007095923647284,-0.0013506305404007
5.94586376953125,0.0076192245657555,-0.0035400654933415,0.0381739555716514,-0.0023472462780773,0.0005772337317466,0.000991619657725
5.9558447265625,-0.0008403050153516,0.003068922583945,0.0362315893322229,-0.0001960117951966,-0.0015503643080592,-0.0004177252121735
5.96582470703125,0.0075973232612013,-0.0036237251888029,0.0362304202884435,-0.0016221345867961,0.0011506136506795,0.0001178364909719
5.975805908203125,0.0023335392477922,-0.002194149043411,0.0314390943586826,0.000175816589035,0.0012014210224151,-0.0018983930349349
5.98578564453125,-0.0044317171034403,0.0033601606154814,0.0531359623819589,-0.0004255251260474,-0.0019490988925099,-0.0019175678025931
5.9957666015625,0.0057201129461638,0.0020040150324814,0.0405704953193664,-0.0008335426100529,-0.0007255105301737,0.0016969850985333
6.00574658203125,0.0083137096359394,-0.0012886515710502,0.0330915377408266,-0.0016396814025938,0.0013344446197152,0.0001582107070134
6.015727783203125,-0.0011379545213654,0.0036628242233302,0.0302478387475013,0.0010125820990651,0.000923054292798,0.0005704294308088
6.0257080078125,-0.0021919205537065,-0.0056521714096423,0.0404231958031654,-0.0011166150216013,0.000425043515861,-0.0002764558303169
6.035687744140625,0.0012215046189725,-0.0004286737408488,0.0381780472248792,0.0022084745578467,-0.0001416578888893,0.0022069099359214
6.045668701171875,-0.0036048012926243,0.0003444203903432,0.0298006795018911,0.0005948652978986,-0.0015531331300735,-0.0003079131420236
6.05564892578125,-0.0045893370842561,-0.0037182350718416,0.0479050759911537,-0.0011004899861291,0.0010585393756628,-0.0010514041641727
6.0656298828125,-0.0017511362499557,-0.0040243784115649,0.0440180054247379,-0.0009292486938647,-0.0007364312186837,0.0009313191985711
6.075609619140625,0.0120473797389306,-0.0042630825382657,0.0347451501667499,-0.0017855146434158,-0.00222491286695,-0.0012627264950424
6.085590576171875,0.0105106534246355,0.0027389508440624,0.0405821857571601,-0.0033264197409152,0.0010686190798878,0.0006717937067151
6.09557080078125,0.0004722206216305,0.0032003030118066,0.0390852251976728,0.0003690804587677,-0.0005220491439104,8.64455214468e-05
6.1055517578125,-0.001891604166571,0.0002398183715529,0.0335486338585615,-0.0015358787495642,-0.0008163284510374,-0.0016041290946304
6.11553173828125,0.0045602936528623,-0.0130665667188353,0.0353466231912374,-0.0017197914421558,0.0020195357501506,0.0017428073333576
6.1255126953125,-0.0026081549380905,0.0046462275038007,0.0423807596117258,-0.0019189958693459,-0.003092935308814,3.70525813195e-05
6.135492919921875,0.0075973780601285,0.0027102270730771,0.040136780077219,-0.0008119097910821,-0.0012066550552845,0.0006576533196493
6.145473876953125,-0.0032039471404626,-0.0073549567395355,0.0443248794168233,0.0001103428658097,0.0010964469984173,0.0021471593063324
6.155453857421875,-0.0025335187993012,0.0040441060253418,0.040285833159089,0.0013874212745577,0.0007054563611745,0.0019718864932656
6.165434814453125,0.0055432037429884,-0.0004847878422588,0.0413338809072971,-5.20172761753e-05,-0.0007994957268238,0.0011620193254202
6.175414794921875,0.0033435382742434,0.0016613482078071,0.0371428589582443,8.07326287031e-05,-0.000926062464714,-0.0008961612475104
6.185395751953125,-0.0059327510498464,0.0088082699535414,0.0357961205244064,-0.0001333855325356,0.0016377633437514,0.002607227070257
6.195375732421875,-0.0052837673555128,0.0002834200512617,0.0416296489834785,0.0008609414799138,-0.00084815826267,9.64106584433e-05
6.205356689453125,-0.002173709043581,0.003166300277505,0.0429769719392061,-0.0005976718384772,0.0005699750036001,0.0001914855092763
6.2153369140625,0.0046464740989729,0.002999775471026,0.0253220727831125,0.001214200630784,-0.0009287558495998,0.0020744318608194
6.22531787109375,0.0109250977107323,0.0019972747644409,0.0314566300153732,-0.003284943755716,-0.0017756409943103,0.0004989057779312
6.235297607421875,0.0023128617859445,-0.0011944978810381,0.0350496860712766,0.0015308076981455,-0.0016161715611815,-0.0004270382341928
6.245278564453125,-0.0032737792399711,-0.0027756478589493,0.0503109680891036,-0.0021723178215324,0.000481067225337,0.0012885701144114
6.2552587890625,0.0074999638339504,-0.0004936196026857,0.0402846641153097,-0.0025995215401053,-0.0017095990478992,0.0008269664249382
6.26523974609375,-0.0004646766359917,-0.0062133854889776,0.0410328521341085,0.0001320828450843,0.0030345562845468,-0.0015238057821989
6.2752197265625,-0.0014172098541632,-0.0026244758852291,0.0374386270344257,-0.0015940342564135,-0.0018192986026406,-0.0010152052855119
6.28519970703125,0.0018031769644469,-0.0036929636332672,0.0387888725996017,-0.0046561369672417,-0.0001151422038674,-0.0001803043560357
6.295180908203125,0.0018457009319216,0.0049752037298399,0.0354991834044456,0.0004910952411592,-0.0008503375574946,0.000793412909843
6.305160888671875,-0.0052721499829553,-0.0012503105883486,0.0253232418268919,0.0004040098283439,0.0006567444652318,-0.0008462953846901
6.315141845703125,-0.0014915902646258,-0.0087288754412438,0.0465711970388889,-0.0016269261250272,0.0010524420067667,-0.0008634219993837
6.32512158203125,-0.0036198161986656,-0.0029791984738782,0.0407370840579271,0.003023219294846,-0.0036491025239229,-0.0007467755931429
6.335102783203125,0.0043546332792378,-0.006200882200431,0.0353518838882446,-0.0019050886621698,0.0029225414618849,0.0011284222127869
6.345082763671875,0.0021491956568323,-0.0006497874119319,0.0353489612787961,-0.000381227931939,0.0016956236213445,0.0011859465157613
6.355063720703125,-0.0053132674446329,-0.0061335799847263,0.0392366163671016,0.0014970256015658,0.0021598963066935,-3.16254154313e-05
6.3650439453125,-0.001736669333186,-0.0067773669141344,0.0458206709325313,-0.0015645443927496,0.0006717219948768,0.0011140665737912
6.375024658203125,0.005076937938109,-0.0073900097866076,0.0426771122097969,-0.0012799310497939,0.0020532682538032,0.0013446799712255
6.3850048828125,0.0044710627331398,0.000682602836145,0.0338484935879707,-0.0020029791630804,0.0017571244388818,0.0009622500510886
6.39498583984375,-0.0034370800429023,0.0067476110966876,0.0476110614806413,0.0008293149294331,0.0005670906975865,-0.0005089276819489
6.4049658203125,-0.0031988508402369,-0.0021877010363154,0.0357879372179508,0.0013283912558108,0.001493870280683,0.0002681827172636
6.414947021484375,-0.0008768193671479,-0.0012782854406628,0.0348889425516128,-0.000326850102283,-0.0002286043018102,0.0005022441036999
6.4249267578125,-0.0015734598618,-0.0025347243756987,0.0435661700040101,-0.0018701519584283,0.0021637137979269,0.0018016003305092
6.43490771484375,-0.0031177118954248,0.0101661873685196,0.0461094247460365,0.0009182546054944,0.0008807443082332,-0.0010756414849311
6.4448876953125,0.0010916311616078,0.0045975660564843,0.0380249024897813,0.0014463596744462,0.000116417184472,-0.0005784293171018
6.454868896484375,0.0009903810105286,-0.0079218425078317,0.0408650943517684,-0.0009837298421189,0.0003944849595427,5.6843899074e-05
6.464848876953125,0.0031290004744194,-0.0068108673249371,0.0393693028360605,0.0011164390016347,-0.0014521516859531,-0.000581249478273
6.47482958984375,-0.0040453664006665,0.0005306362779811,0.0422153399169445,0.0015882601728662,-0.001236155629158,-0.0011244571069255
6.4848095703125,-0.0008959989916533,-0.0025544611226301,0.0489484475642442,6.49320427328e-05,0.0020733540877699,0.0001181738189188
6.494790771484375,0.00484475488374,0.005734899523342,0.0396732542186975,-0.0030045337043702,-0.0006405934691429,-0.0003461146261543
6.50477099609375,-0.0095357257115654,0.0028698198152706,0.0336877500683069,0.0022331052459776,0.0013642339035868,-0.0007836719742044
6.514751953125,-0.0078533986478112,0.0041723446480464,0.0336889191120862,-0.0012853979133069,-0.0002263318747282,-0.0030008058529347
6.524731689453125,0.0051824258728884,0.0017195172689855,0.0332359146475791,0.0005391336744651,0.0014993967488408,0.0033542953897267
6.534712890625,0.0135572728452272,-0.006542069454072,0.0294938055098056,0.0023852009326219,-0.0027226684615015,0.0011072068009525
6.54469287109375,0.0023107976930215,0.0039974082062486,0.0368295552253723,0.0009217939805239,-0.000983890146017,-0.0019282642751932
6.5546728515625,0.0003086092914454,0.0074005859795492,0.0467085596829652,-0.0014036109205335,-0.0019392473623156,-0.0017333677969872
6.56465380859375,-0.0077002356464043,0.0051864353277254,0.028603578671813,-0.0020409054122865,-0.0002305628731846,-0.0018771785544231
6.574633544921875,-0.001883640055824,0.0005501081634312,0.0323439342439174,0.0013107904233038,0.0001467419788241,0.0022557480260729
6.58461474609375,0.0019579291347414,-0.0013789876024704,0.0506014754682779,0.0021049450151622,-0.0006833653897047,-0.0002737225149758
6.5945947265625,0.0048932154016569,0.0064502995173912,0.0446142177522182,0.0007413083221763,0.0014340616762638,0.0019035821314901
6.60457568359375,-0.0035923984687775,-0.0038536797534674,0.0262064544022083,0.001691790530458,-0.0006221653893589,0.002817312721163
6.6145556640625,-0.0073364255690015,0.004329736299999,0.0284527720242738,-0.0001779411686584,-0.0031285947188735,0.0012201240751892
6.62453662109375,0.0022676161384209,-0.0054999034573789,0.034140754532814,0.0026239706203341,0.0008030300959944,-0.0015226654941216
6.634516845703125,0.0070519278055056,0.0029219153286889,0.032193712118268,-0.0009310174500569,0.0006685135886073,-0.0015169760445132
6.644497802734375,0.0057135370749048,-0.0015172818283084,0.0422206006139516,-0.0016277004033327,-0.0024564396589994,-0.0004285420873202
6.654477783203125,-0.0025190701488405,0.0080714618452824,0.0368336468786001,0.0008072903146967,-0.000137573108077,-0.001681933295913
6.664458984375,0.0010286123953759,0.0028669337384402,0.0386275445580482,-0.0009748971206136,0.001466448418796,-0.0016840638127177
6.674438720703125,0.0012200250479392,0.0001669997305143,0.0392237568855285,-0.0019998815841972,0.00194704066962,0.0002539147972129
6.684419677734375,-0.0128350960505194,0.0017869016830809,0.0441623823314905,0.001711499528028,-0.0001563234254717,0.0004222266143187
6.694399658203125,-0.0067033518298529,0.0048726840702816,0.0470049122810363,-0.0005050030886195,-0.0008994517847895,-0.0006547407247126
6.704380859375,-0.0073402066949754,0.0026534005856141,0.030393969219923,-0.0014770568814128,-0.0008744187653064,-0.0015176049200817
6.714360595703125,-0.0031202509123831,0.003395551589271,0.0233615863651037,0.0003496302524581,0.0005023619160056,0.000419991556555
6.724341552734375,-0.0046399712929502,0.001147699597245,0.0347352132946252,-0.0014256328577175,-0.0010846154764294,0.0001789755042409
6.73432177734375,0.0080900021489709,0.0001220372107811,0.0344406142622232,0.0009397210087627,-0.0017430773004889,0.0012852540239691
6.744302734375,0.0017797047573141,0.003572816985473,0.0483528197586536,0.0011815361212939,0.0002793269231915,0.0024447944015264
6.754282958984375,0.0015974617918953,0.001867675301712,0.0450607924759388,-0.0005633779801428,-0.0002330485731363,-0.0001378751476295
6.764263916015625,0.0027047837129794,0.0062854552113451,0.0339881943196058,0.0022747528273612,-0.0018320102244615,0.0021282087545841
6.77424365234375,0.0027481661969795,-0.004106540269684,0.028750878188014,0.0004165270365774,0.0014980547130107,0.0010251445928588
6.784223876953125,0.0013882760206237,-0.0035102457438129,0.0374263520747423,-0.0018402356654405,0.0019033886492252,0.0011668247170746
6.794204833984375,0.0005999751871451,-0.0039542357848025,0.0366775795340538,-0.0023286696523427,-0.0020706513896584,0.0005569842178374
6.804184814453125,-0.0024933511856943,0.0098881650115828,0.0452069229483604,0.000488155754283,0.003106533549726,-0.0009580880869179
6.81416552734375,0.0114424726483412,-0.0016667641684412,0.0326379487544298,-4.71657840535e-05,-0.0021101012825965,0.001628816477023
6.824145751953125,0.0076754665313288,0.0113734990653581,0.0426630836844444,-0.0008900562534108,0.0015496145933866,-0.0023038736544549
6.834126708984375,0.0065636510982178,-0.0017025113352574,0.0296451966792345,-0.0010329302167519,-0.0002442486584186,0.0021681345533579
6.844106689453125,-0.0007889584206044,0.0031609939147252,0.0366834247529506,-0.001042517600581,-0.0011987257748842,-0.0006558814202435
6.854087646484375,-0.0025130605331622,0.0017864815579727,0.0330927067846059,-0.0003792215138673,-0.0028026290237903,-0.0004455507732927
6.86406787109375,-0.0057936896390281,0.0081234020950738,0.036537294280529,0.000629583839327,-0.0006513278931379,-0.0008572754450142
6.874048095703125,0.0018652824152261,0.0019159257570747,0.0441682275503873,-7.31600448489e-05,-0.0016808612272143,0.0003026792837772
6.884028076171875,-0.0045954014988616,5.04698119126e-05,0.0494090508133173,-0.0016172608593478,-0.0006472887471318,-0.0003884109901264
6.894009033203125,0.0011696465675719,-0.001854870619066,0.041479426857829,0.00321526825428,-0.0019073169678449,-6.336972001e-05
6.90398876953125,-0.0005554236593656,0.0015893332843668,0.0342950683116912,-0.0009203544468618,0.0004581026732921,-0.0012463458115234
6.913969970703125,-0.0072358512713573,-0.0005019125069957,0.0316027604877948,-8.11333302408e-05,-0.0009851409122347,0.0012231646105647
6.923949951171875,-0.0014431662793271,0.0046228192287497,0.0280132115632295,-0.0006220212671905,-0.0001883236691355,8.14673985587e-05
6.933930908203125,0.0108109332791529,-0.0018041085462085,0.0380371774494648,0.0006077431607991,0.0005392907187342,4.43673779955e-05
6.9439111328125,0.0048504357058554,-0.0011000153974629,0.0420785617947578,-0.0016460900660604,-0.0030352044850587,-0.0005737523315474
6.95389208984375,-0.0036786702464334,-0.0005640636235475,0.0422270303547382,0.0014333651633933,0.0009782426059246,0.0009681987576186
6.9638720703125,0.0118346685700118,-0.0041924101885408,0.0366863473623991,-0.0003120705951005,0.000883700326085,-0.001534906332381
6.97385302734375,0.0029953276247717,0.0042203941740095,0.037583588463068,0.0014362015062943,-0.0013164170086383,0.000120216893265
6.9838330078125,-0.008387030600477,-0.0043319191239308,0.0422229387015104,-3.94560629501e-05,0.0011073257774114,-0.0005881839315406
6.993812744140625,-0.0025304683256894,-0.0023303883094806,0.0395288773119449,-0.000244038645178,0.0005087684839963,-0.0003523497725836
7.0037939453125,0.0015940825247205,0.0017077081001829,0.0426700979471206,0.0006803445285186,0.001202255487442,0.000161906631547
7.01377392578125,0.0032304880875162,0.0008621880535967,0.0305500365644693,0.0023069279268383,-0.0044722743332386,-0.000544695125427
7.0237548828125,-0.0019337810741737,-0.0022198954060208,0.0277080911368131,0.0026704492047429,0.0011166352778673,-0.0007193984929472
7.03373486328125,-0.0063059500101022,-0.0009286865517031,0.0387795202493667,-0.0023248216602951,8.4483064711e-05,0.0011294322321191
7.043716064453125,-0.0031778445848263,0.0067210153507068,0.0366857628405094,-0.0003266519634053,-0.0005349684506654,-0.0001661955902818
7.05369580078125,-0.0016662527117878,-0.0025170791211538,0.0281564194262027,-0.0013655517250299,0.0005699191242456,-0.0005579382413998
7.0636767578125,-0.0051572731653228,-0.0005164798884652,0.0380336703181266,-0.0012449105270206,-0.0011089369654655,-0.0015496994601562
7.073656982421875,-0.0046785314713604,0.0038297782880719,0.0393809932738542,-0.0019810248631983,0.0008488902822136,0.0007811285322532
7.08363818359375,0.0013865955201908,0.0034199736444745,0.0407294852733612,-0.0010856701992452,-0.00136792473495,0.0004857839376199
7.0936181640625,0.0029484562757425,-0.0033266602046787,0.0368371540099382,0.001119501539506,-0.0017344746738672,7.46456644264e-05
7.103598876953125,-0.0064943487216718,0.0024177195330616,0.0342938992679119,0.0004206880694255,-0.0005855867639183,0.0004272481892257
7.113578857421875,0.0018843889744952,-0.0031621538253501,0.0257651403754949,-0.0026919809170067,0.0009338576346635,0.0029173006769269
7.12356005859375,0.0015056005236692,-0.0060209773225709,0.034895956814289,-0.0011188517091795,-0.0003452580422163,-0.0002713019202928
7.1335400390625,-0.011652078544721,0.0008474836748093,0.034748657298088,0.0004198208916932,0.0016165133565664,-0.002336713951081
7.14352099609375,-0.0034751835635863,-0.0005342256077099,0.0277145208775997,0.0004728178028017,0.0006484547629952,0.0022548420820385
7.153500732421875,-0.0022653876487165,-0.0017400942661333,0.0435766913980245,-0.0008156485855579,0.0007857121527194,0.000282849825453
7.16348193359375,-0.0066388352262787,0.0031594138789921,0.0459703085362911,-0.0005693061975762,-0.0006686402484774,0.0002250592369819
7.1734619140625,0.0153159530808217,-0.0033797146993223,0.0378904624551534,-0.0008641878375783,-0.0014652647078037,0.0010534899774938
7.18344287109375,0.0022973171569406,-0.0018446871517691,0.0322036489903926,-0.0002154418034479,-0.0005675125867128,-0.0006855541141703
7.193423095703125,0.0070282364026643,0.0043994679348077,0.0319002821296453,0.0008341077482327,-0.0013401517644524,0.0002367500419495
7.203403076171875,-0.0086319818048737,-0.0022285536365117,0.0431231024116277,0.0010327795753255,-0.0018477505072951,0.0009155897423624
7.213384033203125,-0.0081672869025729,0.0047635520068462,0.0405833548009395,-0.0004494246677495,-0.0002121878787875,0.0001609112950973
7.223364013671875,0.0014123327496461,0.0024902276468463,0.0305582198709249,0.0002182298339903,-0.0003211116418242,-0.0009786552982404
7.233344970703125,0.0040361419145949,0.005332182207657,0.0357972895681858,0.0014100979315117,-0.0014575365930795,-0.0003176078898832
7.243324951171875,0.0049494938998483,-0.0046982408188283,0.0371440280020236,0.0013975811889395,-0.0002449993044137,-0.0017927328590303
7.253305908203125,0.0057670756267383,-0.0022699176933616,0.0393868384927511,0.000425531878136,0.0012686382979154,-0.0013832147233188
7.263285888671875,0.0074105685174465,-0.0036723592366557,0.0426776967316865,-0.0004703555605374,-5.17573207616e-05,-0.0015022580046206
7.273266845703125,-0.0021211568724364,-5.30362283345e-05,0.0369938058763742,0.0009005317697301,-0.0011682556942105,0.0003167960094287
7.2832470703125,-0.0018750548905692,0.0019525223072618,0.0402870022028684,0.0035847318358719,0.0008376371115446,-0.0011018698569387
7.293227783203125,0.009046901015006,-0.0068022638933733,0.0405856928884983,-0.000191536382772,-0.0013321200385689,0.0034839627332985
7.3032080078125,0.0047316681643947,0.0009676668552216,0.0393891765803098,0.0020713515114039,-0.0008743228390812,-0.0002135702379746
7.31318896484375,0.0020276151037774,0.0033713030640035,0.0335544790774583,0.0009941202588379,-0.0009353598579764,-0.0014491899637505
7.323169189453125,0.0055554421700537,-0.005770418361295,0.0325076003730297,0.00217443308793,-0.0014165928587317,0.0018464718014001
7.333150146484375,0.000406206180714,-0.0039807584655471,0.0399865579515695,-0.001119342749007,0.0027675153687596,5.98189071752e-05
7.3431298828125,0.0136626694484613,0.0007653583493083,0.0366933616250753,0.001138751511462,-0.0005968557670712,-9.9970762676e-05
7.35311083984375,-0.0008749379373155,0.0052675377399194,0.0414811804234981,0.0006323376437649,0.0017998777329921,-0.0019662689883261
7.363091064453125,0.0062362457747571,0.0138844589729793,0.0413309582978487,-0.0004627542220987,9.46559011936e-05,0.0009312502224929
7.373072021484375,-0.0055519715713337,-0.0020108922978397,0.0434270537942647,-8.61380249261e-05,-0.0010285070165991,0.0005961097776889
7.383052001953125,0.0097690412770956,0.0027268037485424,0.0337035321593284,-0.0008123820880427,-0.000511853955686,0.0020137103274464
7.39303173828125,-0.0033947387385182,0.0056791598812676,0.0381932447940111,0.0020869045983999,0.001693258062005,0.0014410389121621
7.403012939453125,-0.0072426280720159,0.0064256947990972,0.0501619150072336,-0.0003807805478572,-0.0004644356667995,-0.0007313014939427
7.4129931640625,0.0080558441510424,-0.0022413309196941,0.035647651964426,-0.0006552331033162,-0.0001358604058623,0.0005858879303559
7.422973876953125,-0.0046704394964501,0.0067161930451169,0.0380453607559204,-0.0004456423339433,-8.07326287031e-05,0.0010753769893199
7.4329541015625,0.0104833452926017,0.0027012765816412,0.0437339277863502,-0.0035127894952893,0.001390810124576,0.0007122248644009
7.44293505859375,0.0027609708796255,-0.0014323800238315,0.035951603347063,-0.0017074327915906,0.0015127826482057,-0.0003980470064561
7.4529150390625,-0.000627666911669,0.0060401386807672,0.0420879141449928,-5.5521959438e-06,-0.0014788452535867,-5.26956864632e-05
7.46289599609375,-0.0015751038296148,0.0048194195130839,0.034758009648323,-0.0004774643457494,-0.0013478174805641,-0.0005001067183911
7.4728759765625,0.0025857421768829,0.0043488337261136,0.0411924266099929,-0.0009059774456545,-0.0010871030390262,0.000483508396428
7.482857177734375,0.0002882971557788,0.0033458124297205,0.0507721558600664,-0.0026378310285508,0.00103010982275,0.0019924556836485
7.4928369140625,0.0104676545331254,-0.0019506500105839,0.0423930345714092,0.0005855812923982,-0.0010877372696995,-0.0001345675264019
7.50281787109375,0.0061893196268007,-0.002452708648052,0.0367091437160968,0.0003522883635014,-0.0024206489324569,0.001849221298471
7.5127978515625,0.0062616724769584,-0.0030145711813587,0.035218612897396,-0.0001468871487304,-0.002971651032567,-0.000557122810278
7.522779052734375,0.0003725048405118,0.0015307806306984,0.0307324073940515,0.0003998598549515,0.0001999074593186,0.00103305070661
7.532759033203125,0.0021431312422268,0.0007209529520012,0.0358200859218835,0.0012336121872067,0.0018516089767217,0.0003127244999632
7.54273974609375,-0.0020758198933675,0.0011823599186725,0.0401607454746961,-0.0027286387048661,0.0024910345673561,-0.0011187245836481
7.552719970703125,0.001254274377413,-0.0039589393593836,0.0368681336700916,-0.0004066424444317,0.0011041555553674,8.46347538754e-05
7.562699951171875,-0.0058010874941945,-0.0012243267637211,0.0424053095310926,-0.0006729585584253,-0.0003296909853816,-0.0004370785027276
7.57268115234375,0.0036928631685674,0.0107356212869286,0.0379150123745203,0.000454987748526,-0.0010118782520294,0.0016058273613452
7.582660888671875,0.0028314788325689,0.0025194537413306,0.0380634809345006,0.0007641806732863,-0.0006401017308235,-0.000520174158737
7.592641845703125,0.0040399413068778,0.0031662180791143,0.0437462027460336,0.0001039133640006,0.0012680711224675,0.0001230535272043
7.602621826171875,0.0026536380476318,-0.0070054583152756,0.0272854818105697,-0.0010321910958737,0.0002659233286976,0.0029630484059453
7.61260302734375,-0.0044089755486696,-0.005165502137551,0.0446451974123716,0.0018126511713489,-0.0016890214756131,-0.0010676381643861
7.6225830078125,-0.0016161299597471,0.0081026789674535,0.0449421345323324,-0.0004054955788888,0.0027731042355298,-0.0017712453845888
7.632563720703125,0.0003476809265092,-0.0007440780992619,0.0388046546906232,-0.0009949961677193,0.0019113030284643,-0.0004819110617972
7.642543701171875,0.0051565790455788,0.0055381531085353,0.0353635743260383,-0.0017979391850531,-0.0019707875326275,0.0013298374833539
7.65252490234375,0.009515833701007,-0.0037584848838392,0.0314735811501741,0.0001531320158392,-0.0009093955159187,-0.000228636446991
7.662505126953125,-0.0079939396296627,-0.0014220686923712,0.0281850609987974,-0.000351270660758,0.0017705438658595,-0.0007985528791323
7.672486083984375,-0.0042352264169603,-0.0027333065545652,0.0347708691298961,0.000882608233951,-0.0003435676917433,-0.0020812733564525
7.6824658203125,0.0030436785448342,-0.0005156670377124,0.0416518608152866,-0.0002862531691789,0.0009563220664858,-0.0024631705600768
7.692447021484375,-0.0031140951662324,0.0043019897765479,0.0350666372060775,0.0028518317267298,-0.0009059151634573,-3.36869561579e-05
7.702427001953125,0.0067842533126473,0.009364387732651,0.0411994408726692,-0.0003354391083121,0.0027916179969906,-0.0019642123952507
7.712407958984375,0.0039129721926525,-0.0012026994538027,0.0292272635281085,0.001886167563498,-0.0012300247326493,-0.0003249206056352
7.722387939453125,0.0084070139425806,-0.0037207375561818,0.0313221899807453,-0.0011770003475248,-0.0009647738188505,0.0024916385300457
7.732367919921875,0.0054809704280458,-0.0063581368550658,0.0349140769928693,-0.0013899874174967,0.0010940013453364,0.0018941691378131
7.742348876953125,-0.0013164528934285,-0.0003370316683314,0.0362578928172588,0.0017938216915354,0.0022173225879669,0.0018166712252423
7.752328857421875,0.0045880036436952,0.0019905162300914,0.0368570277541875,0.0009001402650028,-0.0009819315746426,-0.0003174064913764
7.762309814453125,0.0094517372225411,-0.0030183705736417,0.0407499435395002,-0.001442376174964,-0.000861557200551,0.0019822332542389
7.772290283203125,0.0035003362711519,-0.0033774953427724,0.0407528661489486,-0.0019188306760042,-0.0018083499744534,-0.0006873726961202
7.78227099609375,-0.0036588513011112,0.0001194981938228,0.0437467872679233,7.4337003752e-06,-5.54574653506e-05,0.0001059829810401
7.7922509765625,-0.0090649115957319,0.0007479505567811,0.0479360556513071,0.0002703763311728,-0.0004398394376039,-0.0006188942352309
7.80223193359375,-0.0020966069530695,-0.0034698772008065,0.0335731837779283,-0.0009120671311393,0.0005319481715559,0.0017838097410276
7.812212158203125,-0.0097420254060067,-0.0027571166884154,0.0350678062498569,0.0006995814619585,-0.0004884013906121,-0.0002148990315617
7.822193115234375,0.0043227220373228,0.0001986735104117,0.0359644628286361,0.001365105388686,0.0016418611630797,1.3333876268e-05
7.8321728515625,0.0046955374050885,-0.0072539349173195,0.037907998111844,0.0008628877112641,-0.0002496521919965,-0.0017571358475834
7.84215380859375,0.0035397366997785,6.76401424221e-05,0.0389560458600521,-0.0019126585684716,-6.74920156598e-05,0.0009952411055564
7.852134033203125,0.009093352238927,-0.0084779511537868,0.0386573551744222,0.0011271380353718,-0.0027333172038197,0.001660356298089
7.862114990234375,-0.0007100844981148,-0.0003605586743913,0.0382096114069223,-0.0002403953112661,0.0016318699344992,0.0020726136863231
7.872098388671875,0.0022048531005159,0.0009056527359876,0.0420978510171175,-0.0017494915518909,0.0008367206901311,-0.0011128734331578
7.882079345703125,0.0005128814255818,0.0044138435200322,0.037007249879837,0.0001453475560992,0.0006321901455521,-0.0001919522765092
7.8920595703125,0.0084486063282936,0.0032542160229757,0.0284773219436407,5.92785654589e-05,-0.0019282577559351,0.0030169361270964
7.90204052734375,-0.004590359997563,0.0012072660310659,0.037604046729207,-0.0005375358159653,0.0009460924193263,0.0002014422498177
7.9120205078125,-0.0064037843613885,-0.0112495164926629,0.0417892234593629,-0.0001699567073956,0.0021442333236336,-0.0010677244281396
7.92200048828125,0.0090106058589182,-0.0002871829109266,0.0376005395978689,0.0013626925647258,-9.97455790638e-05,-0.0011374992318451
7.9319814453125,-0.0050657589569687,0.0093866908960044,0.0268272166490554,-0.0005848373984917,6.46784901618e-05,-0.0036727550905197
7.94196142578125,-0.0008732757031917,0.0019481475262437,0.0367027139753103,0.0006322272820398,-0.0006293412297964,0.0010828516678884
7.951942626953125,-0.000496989736706,-0.0024844372268766,0.0362520475983619,-0.00015496450942,0.0007557133212685,-0.0006242174422368
7.96192236328125,-0.0024385705248452,0.0030810148805379,0.0374485639065504,-0.0005254101706668,-0.0004030279815196,-0.001258582342416
7.9719033203125,0.0013569858332164,0.0053268849780317,0.0455301635533571,0.000301358057186,-0.0016114274039864,0.0012274897890165
7.98188330078125,-0.0031979740574024,0.0015773688519373,0.0368529361009597,-0.0015679147327318,-0.0009206030517816,-0.0012343362905085
7.991864501953125,0.0064943304553627,-0.0036773824716452,0.0395458284467458,0.0009471225785091,0.0005471156910061,-0.0017783051589503
8.0018447265625,0.0079841306217014,-0.0071235865359194,0.0338584304600954,-0.0006494424305856,1.7005950212e-06,0.0009450434008613
8.011823486328124,0.0080116579494439,-0.0070594900574535,0.0338578459382057,-0.0007624546997249,-0.0026607448235154,0.0007080128416419
8.021804443359375,0.0068806628918275,0.0039075562320183,0.0344593189626932,-0.0006790977786295,0.0022394722327589,0.0005314452573657
8.031784423828125,0.0083659695461392,0.0023337949761189,0.0471744236290454,0.0009707538411021,0.0011400841176509,0.0005013724439777
8.041764404296876,-0.0039567382691428,0.0090628292364999,0.0426870490819215,0.0021236361935734,-1.97226181626e-05,-0.001111171557568
8.051745361328125,0.0064860010184347,0.0066583893101196,0.0323632234662771,0.0008770273998379,0.0021374654024839,0.0014742534840479
8.0617255859375,0.0036366577356122,0.0002709806947968,0.0331073198318481,0.0012501361779868,0.0014937799423933,0.0022417763248085
8.07170654296875,0.0035128121602348,0.00704374449905,0.0396902053534984,0.0004135819617658,5.53410500288e-05,-0.0002829542499966
8.081686767578125,0.0016335925512015,-0.0074608100004959,0.0314613061904907,-0.0002229135134257,-0.0019561443477869,0.0002105294843204
8.09166748046875,0.0065441792127676,-0.0030793343801051,0.0377449165046215,-4.54322434961e-05,0.0004229731857776,-0.0011625703191384
8.1016474609375,-0.0125050238459371,0.0051656117354054,0.0349006329894065,0.0002816040068864,0.0013790484517812,-0.0013375399867072
8.11162841796875,-0.0035381840635091,-0.0011914839400444,0.0380424381464719,-0.0015256346669048,3.42726707458e-05,0.0007974102627485
8.121608642578124,-0.0079873454920947,0.00461442585974,0.0338537542849779,0.0014994499506428,-0.0019780118018388,2.21641093958e-05
8.131589599609375,-0.0008651471956633,0.0026577205677051,0.0443283865481615,0.0001092294696718,0.0010087424889206,0.0031407596543431
8.1415693359375,-0.0016273089408874,-0.0024444340100511,0.0486661234915256,-0.0004148806328885,0.0004137922078371,0.0011609657667577
8.15155029296875,-0.0028908626032993,-0.0058560142855159,0.0504617747366428,-0.0018342252587899,0.0006031794473528,0.0012564162025228
8.161530517578125,0.0014776896034367,0.0048558790659531,0.0407364995360374,-0.0015316901262849,-0.0020053861662745,0.0014401744119822
8.171511474609375,0.0017555932293646,0.0005927417287603,0.0393932682335376,-0.0004438108298927,-0.0020448081195354,0.001060165464878
8.1814912109375,0.0001347870944999,0.0061608059183694,0.0392442151516675,-0.0004054613527841,4.47081401944e-05,0.0004897164180874
8.191471435546875,0.000309851400461,-0.0040799719231668,0.0416360787242651,0.0041070748120546,0.0022693257778882,-0.0008342281216755
8.20145263671875,-0.0094249770797789,-0.0002374985503032,0.0411842433035373,-0.0016818384174257,-0.0036998833529651,0.0001026719983201
8.2114326171875,-0.0042184031463228,-0.0027409418717492,0.0497176783710718,0.0004756707930937,-0.002044160850346,0.0002485940349288
8.22141357421875,0.0023946583178825,-0.0063923131193034,0.0381949983596801,0.0024290995206683,0.0007044877856969,-0.00070508394856
8.231393310546874,-0.0032956805445253,-0.0027101540078409,0.0414858565986156,-0.0002786892000585,0.0003732377663254,0.0018132674740627
8.24137451171875,-0.003562423455622,0.0019621669184416,0.0346031113475561,0.0013173432089388,-0.0005178563296794,0.0011205793125554
8.2513544921875,-0.0004197780483402,0.0044350141722243,0.0440291113406419,0.0002021942054852,0.0020761555060744,-0.0004400082398205
8.26133544921875,0.0049869398334063,-0.0007093447125982,0.029515432819724,-0.0004345676279626,-0.0001867329701781,0.00048251071712
8.2713154296875,0.0068901796388439,0.0089367917040362,0.0374444722533226,-0.0021746126003563,-0.000100128352642,-0.0015542925102636
8.281296630859375,0.006294789295271,0.0008170976697001,0.0473199695795774,-0.0007658003596588,-0.0008410196751356,-0.000966799154412
8.2912763671875,0.0051430437105707,0.0096597082842607,0.0489665677428245,0.0004794258857145,-0.000563888810575,-0.0003674704348668
8.30125732421875,-0.0006871968128718,-0.0066646089883521,0.0512099627554416,0.0009481421438977,8.05966556072e-05,0.000602719199378
8.311237548828124,0.0003529781561344,-0.0007706921115517,0.0372942501276731,-0.0016472527058795,0.0012067025527358,0.0019691574852913
8.32121875,-7.32113666832e-05,0.0073136748810764,0.0335556481212377,0.000795665080659,0.0016386676579713,-0.00010970596486
8.331198486328125,-0.0010225845133885,0.002332616799185,0.0317588278323411,-0.0025230110622942,-0.0007334202527999,-0.0004648528993129
8.341179443359374,0.0074736786152236,0.0038735078319441,0.0361006564289331,-0.0015000908169895,0.0021601039916276,-0.0008187869680114
8.351159423828125,0.0104773356769233,-0.0028805147392209,0.0308621712535619,0.0004180771065875,0.0037145754322409,0.0011540396371856
8.361139404296875,-0.0005837181720882,-0.0060038891904521,0.0405839393228292,-3.35950171574e-05,0.0002396833151578,-0.0002052377531072
8.37112060546875,-0.0125822172679938,-0.00096104531819,0.0444745170205831,-0.0007300817524082,-0.0015528136864304,-0.001012145425193
8.381100341796875,-0.0002511069505475,0.0005633055717218,0.0425298126935958,-0.0012446044711396,0.0014208722859621,-0.0002283771318616
8.391081298828125,0.0060804341585375,0.0004079780126921,0.0473147088825702,0.0025017501320689,-0.0001698471605777,-0.0007838807068765
8.401061279296876,-0.0034729733401909,0.0017372721213847,0.0404319636315107,-0.0026069916784763,0.0007657213136553,-0.0013846898218616
8.41104248046875,0.0096007720381021,-0.0071269840694032,0.033251112216711,-0.0007944424869492,0.0006467103958129,0.0003658956557046
8.421022705078125,0.0073572491613216,0.0081128076358232,0.0399848043859005,-0.0017973890062421,-0.0009650345891714,0.0004742863529827
8.43100341796875,-0.0070858118087984,0.0017823899047449,0.0365419704556465,0.0006898718420416,-0.0002610329538583,-0.001180063933134
8.4409833984375,-0.0044868813567794,0.0061236979115288,0.0446235701024532,0.0001737511483952,-0.0016378872096538,-0.0005595474503934
8.450964599609375,-0.0022102233953773,-0.0010629713227041,0.0509106875479221,0.0004436237504705,0.0004570269957184,-0.001585028017871
8.460944580078126,0.0014035649213008,0.0022970888280775,0.0348977103799581,0.0001016738824546,0.0016847439110279,-0.0007360122981481
8.470925537109375,-0.0004624664125964,0.00587406139886,0.0453711735993623,0.00100027048029,-0.0011208783835172,0.0009986697696149
8.4809052734375,0.0013897007927298,-0.0081317497983109,0.0378898779332637,0.0006468689534813,-0.0017224866896867,0.0002378046920057
8.490886474609376,0.0020019692058674,-0.0038566480286885,0.0413356344729661,-0.0007149099255912,6.6794455051e-06,-0.001002546516247
8.500866455078125,-0.0003484481114894,-0.0053965435476042,0.0404378088504076,0.0014507726300507,0.001108163036406,0.0022507710382342
8.510846435546876,0.0012756824916228,-0.0015646555008366,0.0515092379629611,-0.0023294161073863,0.0007535545155405,0.0006098040612414
8.5208271484375,0.0062044075980782,-0.0040473939609713,0.0275678058832883,-0.0006723971455357,4.35560941696e-05,-0.0005209741066209
8.5308076171875,0.0084322031827643,-0.0047484366361051,0.0340016383230686,5.6034186854e-06,0.0001623323187232,0.000138855233672
8.54078857421875,0.0049643444091081,-0.0024387349216267,0.0438747975617647,-0.0004125128616578,0.0019101649522781,-0.0003650148282758
8.5507685546875,-0.0018215528713539,-0.005518818220403,0.0375900182038545,0.0009605010272935,-0.000478621572256,-0.0028074684087187
8.56074951171875,-0.0024176190683618,-0.0032760351291392,0.0446212320148944,0.0005391888553276,-0.0004495931789278,-0.0027582000475376
8.5707294921875,-0.0018818134249188,-0.0078142356812022,0.0432721554934978,0.0009295305935665,0.0024553015828132,-0.0010708509944379
8.58071044921875,0.0005718998701311,-0.0010091131104622,0.0253144739985466,-0.0008143073646351,0.0018116161227226,-0.0002018614759435
8.5906904296875,-9.81631448492e-05,0.0094020802613813,0.0292044671744108,-0.0001896538306027,0.0003483770415186,-0.0012496032286435
8.60067138671875,0.0072576795106753,-0.004411688095564,0.0296539645075798,0.0034144017845392,0.0012115072458982,-0.0005332129076123
8.610651611328125,-0.0045052937963046,0.000207961928565,0.043570261657238,0.0004273897502571,-0.0003475015982985,-0.0003457335988059
8.620632568359374,-0.0024405250199139,0.0065924388012848,0.0381833079218864,-0.0015619916375726,0.0008264202624559,-0.0014392274897545
8.63061328125,-8.09928143396e-05,0.0077167301234789,0.041624972808361,-0.0003003040328621,-0.0001175068318843,-0.0007255839882418
8.64059326171875,0.0023211181576363,-0.001207110767439,0.0447667779654264,0.0026611308567225,0.000211926177144,0.0012659277999773
8.650574462890624,0.0020053850056603,-0.0002942885051481,0.0401262586832046,-0.0007838480523787,0.0015675295144319,0.0008389752474613
8.660554443359375,0.0038263350888155,0.0015614132309798,0.0417687651932239,0.0001629056641831,-0.0002902913838624,0.0033021329436451
8.670534423828125,0.0019912468824535,-0.0042812940483912,0.0446142177522182,-0.002396700438112,-0.0018661106005311,-0.0002448801824357
8.680515380859376,0.0066922276476398,0.0002345850740093,0.0342903921365737,-0.0006733690970577,0.0007006442174315,-0.0006142606143839
8.69049560546875,-0.0018841515124775,-0.0006506824610754,0.0357873526960611,-0.0021255880128592,0.0013073552399873,0.0006620604544878
8.7004765625,-0.0043429245751351,0.0021805954420939,0.036537294280529,0.0005098761757835,-0.0009797681123018,-0.0006333010969683
8.71045654296875,-0.0043351248611696,0.0017368519962765,0.041624972808361,0.0007940963841974,0.0019511636346578,-0.0024747669231146
8.720437255859375,0.0031217122171074,-0.0033348617774434,0.0435696771353483,0.0019139556679874,0.0018137451261281,-0.0016566438134759
8.73041748046875,-0.0006721271079033,-0.0021906875778455,0.0366828402310609,0.0014716782607138,0.0006525162607431,-1.52955180965e-05
8.7403984375,0.0117583519307896,0.0031367819220758,0.0446142177522182,-0.0002468595048412,-0.0004428410902619,0.0010310604702681
8.75037841796875,0.0031650764347985,0.002271780856885,0.0348906961172819,0.0003388249315321,-0.0017887530848383,0.0013052403228357
8.760359375,0.0075129511796869,0.0020378990357741,0.0426712669909,0.0022523060906678,0.001375881023705,-3.37970996042e-05
8.77033935546875,0.0026459296652115,0.0039520072950981,0.0501519781351089,-0.0005241904291324,-0.0008637709543108,0.0006533885607495
8.7803203125,0.0039312385017052,-0.0003946801397018,0.0450660531729459,-0.0002328406553715,-0.001326628960669,-0.0001197270685224
8.790300537109376,-0.0065751954055391,0.0023742822501342,0.032048166167736,-0.0016218032687902,0.0021559111773967,0.0002686199732124
8.800281494140625,0.0080385824889875,-0.0013284812579397,0.0401250896394252,-0.0024979831650853,8.26399773359e-05,-0.0019710983615368
8.81026171875,0.0025832579588517,0.0101947102101054,0.0440191744685173,-1.33637804538e-05,-0.0021462198346853,-0.0005894434871152
8.820241455078126,0.0039446459725499,-0.0014034553234465,0.0453670819461345,-0.0018868976039811,-0.0003243517130613,-0.0004458991170395
8.830222412109375,-0.0023032537073828,-0.0015033263681922,0.0350420872867107,0.0023396555334329,0.0003887861967086,0.0018617848400026
8.840202392578124,-0.0041111433795653,-0.0008253814408555,0.0326473011046648,0.0001630540937185,0.0007512429729104,-0.0015800844412297
8.85018359375,-0.0080277871003374,0.0031386359524447,0.0369850380480289,0.0010716239921748,5.09414821863e-05,0.0003841356083285
8.86016357421875,-0.0070148654644377,0.0018346315486356,0.0374327818155288,0.0012417999096214,-0.0011376272886991,0.0007386023644357
8.870144287109374,0.008284447008837,-0.0032139570778235,0.0248638076215982,-0.0004443051293492,0.0012392373755574,0.0003667036653496
8.880120849609375,-0.0067818238935433,0.0004835731327068,0.0312993936270475,0.0021067368797957,-0.000391948968172,-0.0016674187500029
8.890101806640626,0.0007137194936163,0.00151522686854,0.0507528666377067,-0.0022002237383276,0.0006660008803009,0.0008546320605091
8.90008203125,0.0045582112936303,-0.0057970871725119,0.0485088871031999,-0.0007788946968503,0.0004651984199881,0.0006732708425261
8.91006298828125,0.0033926929119043,-0.0030806952201295,0.0414765042483806,-0.0028380202129483,0.0002089207991957,-0.0025198475923389
8.920043212890626,0.0057643904793076,0.0071311213884036,0.0420785617947578,-0.0008347905240952,-0.0020105578005313,0.0011076441733166
8.930024169921875,-0.0049917621389962,0.0015396945895161,0.0416308180272579,-0.0019680634140968,-0.0007183030247688,-0.0013624476268887
8.94000390625,0.0114984588855877,-0.0036567598087247,0.0348971258580684,-0.0004782910109497,0.0008489675819873,-0.001483088824898
8.94998388671875,0.0077593636888079,9.37061654403e-05,0.0530003533035516,-0.0003909426159225,0.0003159996122121,-0.0008306303061544
8.959965087890625,0.0065026964249089,0.0063799924938473,0.0360930576443672,-0.0006609871634282,-0.0010145148262381,0.0002767120604403
8.969945068359374,-0.0042207595001906,0.001960230689682,0.0393839158833026,-0.0017364203231409,0.0022191191092133,-0.0010696030221879
8.97992578125,0.004541132294666,-0.0015884930341504,0.0443213722854852,0.0008210132364183,-0.0007367236539721,4.06688341172e-05
8.98990576171875,0.0041687735846266,-0.0006614869828801,0.048961891567707,0.0011609223438426,-0.0017719632014632,0.0009926061611622
8.999886962890624,0.0041742352110333,-0.0005041683961637,0.0405821857571601,-0.0010913128498941,0.0010467264801263,-6.78645374136e-05
9.0098671875,-0.0052229953452944,-0.0034677217763382,0.0455202266812324,0.0004324448527768,-0.0018620267510414,0.0022153488826006
9.01984814453125,-0.0041374285982921,0.0016367343563586,0.0342950683116912,0.0008785245008766,0.0009252373129129,-0.0005918890819884
9.029827880859376,-0.0038893355887383,-0.0005476330785546,0.0467179120332002,-0.0019560025539249,-0.0052200020290911,-0.0005060072871856
9.03980908203125,-0.0053329037268646,-0.0075290711974259,0.0416372477680444,-0.0019794383551925,9.27383080124e-05,0.0003233010647818
9.0497890625,-0.0092187687168829,0.0005628489139955,0.0365513228058815,-0.0032140293624252,0.000947811640799,0.0003892108798027
9.05977001953125,-0.0106195206265896,-0.0023431473263539,0.0357978740900754,0.0062361974269151,0.0064078252762556,-0.0010297213448211
9.06975,-0.0145202909247949,0.0037416250805836,0.0502419945061206,0.0079695591703057,0.0455602332949638,0.0034749063197523
9.079729736328124,-0.0285186403347179,0.0039011356243863,0.1448667360961437,0.0040821433067321,0.0334628224372863,0.002143592108041
9.0897109375,-0.002904964193888,-0.0059569721756502,-0.0094371059089899,-0.0011215836275368,-0.0046474891714751,-0.000954347779043
