seconds_elapsed,ax,ay,az,gx,gy,gz
0.075242431640625,-0.0002916033577173,0.0006865848915185,0.0474772059679031,-0.0003943984047509,-0.0010478664189577,0.0033198799937963
0.08522265625,0.0057921735353767,-0.0041228429505135,0.0476502244472503,0.0014924524584785,0.0020206198096275,-0.0032545905560255
0.095202880859375,-0.0001125752626918,-0.0054362362371757,0.0457096117734909,-0.0004263550508767,-0.002822870388627,-0.0027581774629652
0.1051826171875,0.0022670316165313,0.0018022819153033,0.044812370672822,-0.0015174517175182,-0.001594491302967,0.0004977471544407
0.11516259765625,0.0006694784930907,-0.0090617789237294,0.043003275424242,0.0002157335402444,0.0009139403700828,-0.0004069286515004
0.125142578125,0.0007874605832621,-0.0067374458956997,0.0446346760183572,-0.0008120712009258,-0.0002438565716147,4.23159362981e-05
0.13512158203125,-0.0072242338987998,-2.7207667334e-05,0.0422428124457597,-0.0009596103336662,0.0012568347156047,0.0007608368177898
0.1451015625,0.0047080132941715,-0.0012635901950299,0.0405851083666086,-0.0012226407416164,0.0019358024001121,-0.0002375443436903
0.15508154296875,-0.0037177601478062,0.001063300116267,0.0471691629320383,-0.0003744239220395,-0.0007776925340294,0.0022019110620021
0.1650615234375,0.0020085633434355,0.0037148740709759,0.0482002595454454,-0.0019762245938181,0.0008940855041146,0.001352171995677
0.175041748046875,0.0019254333709366,0.0008426705023739,0.0555278259545564,-0.0010055023012682,0.0012645311653614,0.0003193981538061
0.185021728515625,-0.002181673154328,0.0044157614824827,0.0456534976720809,-0.0014748402172699,4.72031533718e-05,-0.0010771353263407
0.195001708984375,-0.0014602270119823,-0.0002052493816707,0.0383177479565143,-0.0021185262594372,-0.001615141518414,-0.0003367765457369
0.2049814453125,-0.0071389119692146,-0.0041928120473399,0.0487853659570217,-0.0009605885716155,0.0008055698126554,0.0010043969377875
0.214961669921875,-0.0074239942546002,0.0013868786479812,0.0404196886718273,0.000606948044151,-0.0006149606779217,-0.0016462472267448
0.22494189453125,-0.0074144775075837,0.0056881651716306,0.0425040937304496,0.0014849063009023,0.0001984871923923,-0.0010541129158809
0.234921630859375,-0.0038641280822455,0.0049847204768564,0.0381716174840927,0.0006579948822036,-0.0001290813088417,-0.0012615732848644
0.244901611328125,-0.0002521663964726,0.0011295520192012,0.0472995113134384,-0.0014130575582385,0.0007676100358366,0.0001744786568451
0.254881591796875,0.0020950725831091,-0.0014728855641558,0.0477460860371589,0.0013475752202793,-0.001071834936738,0.0010823502670973
0.264860595703125,0.0094905713955871,-0.0020922321720514,0.035628947263956,0.0022019194439053,0.0006537418812513,0.0006834375672042
0.274840576171875,0.0018550898147746,0.0039053277423139,0.0493938532441854,0.0023449314758181,0.0008505498990416,-0.0004286984622012
0.284820556640625,-0.0005309285389259,0.0025341489869635,0.0384691391259431,0.0025627771392464,0.0011566905304789,0.0024443613365292
0.294800537109375,0.0011191584893502,-0.00099363241354,0.0471551344066858,-3.56693053618e-05,0.0003867708146572,-0.0019687628373503
0.30478076171875,-0.0032127515014261,-0.0003907346169464,0.0356429757893085,-0.0003835661336779,-0.000314581207931,0.001185106113553
0.3147607421875,0.0017950119243003,-0.0007426259276922,0.0461211151838302,-0.0002397554344497,0.0024857334792613,0.0012839093105867
0.32474072265625,0.004482917567715,0.0043132052903063,0.0447714541405439,-0.0004716293187811,0.0003589447587728,-0.0003503210609778
0.334720458984375,-0.001518679200951,0.0001310607674531,0.0404267029345035,0.0011917811352759,9.3693844974e-05,-4.88512450829e-05
0.34470068359375,-0.0002619388718158,0.0031579343079589,0.0320382292956113,-0.002873535035178,-0.000510174781084,0.0003944608615711
0.3546806640625,-0.0047719271095469,0.0022736531535629,0.0450578698664903,-0.0016490136040374,0.0006664097309112,-0.0015096992719918
0.364660400390625,-0.0067672473789192,0.0019557463108096,0.0477519312560558,3.1707342714e-05,0.0004019578918814,0.0003252304159104
0.374640625,0.0058332544644363,-0.003837258341629,0.0383247622191905,0.0009848527843132,-0.0020667919889092,-0.000112060632091
0.384620849609375,0.0070992740785703,0.0014807583433575,0.0387748440742492,-0.0001044668606482,0.0003307033330202,0.0024490957148373
0.3946005859375,0.0030053010295145,0.0059735671174246,0.0456564202815294,-0.0011335122399032,0.0009022178128361,-0.001058553578332
0.40457958984375,-0.000490779191628,-0.0055556248331442,0.0487964718729257,0.0019314300734549,-5.86416572332e-05,0.0007339705480262
0.414559814453125,-0.0002310322768986,-0.0009516016364097,0.0487976409167051,0.0008898677770048,-9.61925834417e-05,2.92981276288e-05
0.42453955078125,-0.0045607868432067,0.0021714440212585,0.0423632239550352,0.0007279443088918,0.001046453602612,-0.0022091779392212
0.43451953125,0.0007859262133017,-0.0030813345409464,0.0402712201118469,0.0012792185880243,-0.0004473133012652,-0.0007540265796706
0.444499755859375,-0.0042337833785451,-0.0034761699442751,0.0516460160851478,-0.0026889839209616,0.0012852177023887,-0.001320255221799
0.454479736328125,0.0006435586005449,-0.0090145422485191,0.0481996750235557,0.0001044058008119,0.0007137032225728,-0.0001673727820161
0.464459716796875,-0.0100607907652854,0.0022286358349025,0.0520849920243024,-0.0010494579328224,0.0007870392873883,-0.000257399136899
0.474439697265625,-0.0004811893793754,0.0016661431139335,0.0517839632511138,-0.0011128410696983,0.0019609611481428,0.0003657805500552
0.484419677734375,-0.0005507474842481,-0.0031770956661552,0.0564203908801078,-0.0003811334026977,-0.0015480183064937,0.0012421904830262
0.4943994140625,0.0050270161154679,-0.0007253094667103,0.0490916554272174,-0.0004003081703558,-0.0024321880191564,-0.0007045802194625
0.504379638671875,0.0007298486445099,0.006216810421925,0.0401186598986387,-0.0004828426754102,0.0014237882569432,0.0007208323804661
0.51435986328125,0.0002539382284507,-0.0032048695890698,0.0492407085090875,0.0013318352866917,0.0007851626724004,-0.0016682894201949
0.524339599609375,-0.000594732756447,-0.0006690401016734,0.055524903345108,0.0003503556363284,0.0005825366824865,0.0014612417435273
0.534318603515625,0.0052234337367117,-0.0050217097526881,0.0350198754549026,0.0023141708225011,0.001780959777534,-3.03947745123e-05
0.544298828125,-0.007979838039074,-0.0008913684823084,0.0435521414786577,-0.0002465539728291,0.0005995593965053,-0.0029787616804242
0.554278564453125,-0.0045226467899046,0.006342455228744,0.0357674789518117,0.0008349557174369,-0.0003700973466038,0.001401605666615
0.564259033203125,0.005546546477545,0.0011359269610606,0.0438484940767288,-0.0018863312434405,-9.492971003e-06,-0.0023693032562732
0.574239013671875,-0.0016998627204447,0.004309451563796,0.0504307950764894,0.0018940259469673,-0.0020635891705751,0.0024281153455376
0.584218994140625,-0.0040544812888838,0.0017700327466707,0.048932080951333,0.0009460010332986,0.0004778252914547,0.0013717969413846
0.594198974609375,0.0151371624478138,-0.0067310618206858,0.0445931749641895,0.0001840705517679,0.001316986978054,0.0009491533273831
0.604178955078125,0.0086075232170522,0.006111295087682,0.0339689050972461,-0.0018044027965515,-0.0007769223302602,0.0012638544430956
0.614158935546875,0.004063577910792,0.0008387432459276,0.0580582212150096,2.65203416347e-05,0.0001293513923883,0.000293132266961
0.624138671875,0.0053156420648097,0.0008357932370156,0.0519271711140871,-0.0017851735465228,-0.0020106146112084,0.0014426824636757
0.634119140625,0.0012827515532262,-0.0031737620647531,0.0529793105155229,-4.24009049311e-05,0.0003231139853596,0.0009883471066132
0.64409912109375,-0.0012695632780902,0.0009747176505159,0.0466951156795024,-0.0021667736582458,-0.003731841687113,0.0008343217195942
0.654078857421875,0.0101615477260202,0.0037410405586939,0.048344636452198,0.0003581693163141,0.0016794353723526,0.0023461983073502
0.664057861328125,0.0025623978339135,0.0003846884686499,0.0443044211506843,0.00155869894661,-0.0016391295939683,0.0035036893095821
0.6740380859375,-0.0052950559345073,0.0014954992547631,0.044597851139307,-0.0007934048771858,0.0007835486903786,7.72661587689e-05
0.684017822265625,-0.0088041417676955,0.0027890096640214,0.0495353075414896,-9.3859503977e-05,-0.0005319323390722,-0.0017189554637297
0.693997802734375,0.0007942556502297,-0.000717756347917,0.044295653322339,0.0014659538865089,-0.0016901409253478,-0.0008797933696769
0.70397802734375,0.0051798320570029,0.004091287901625,0.0432458520084619,-8.65812180563e-05,-0.0006056176498532,0.0025427343789488
0.713958251953125,0.0046457799792289,0.0043592455222737,0.0465361257255077,-0.0006338608218356,-0.0008298559114336,0.000287835864583
0.72393798828125,0.0003116962976753,-0.0042295273285359,0.0436941802978515,-0.0031345707830041,0.0020909998565912,-0.000748352962546
0.73391796875,0.0022196305445395,0.0090127521502319,0.0469809468835592,0.0003648229176178,0.0009945761412382,0.0023427782580256
0.74389794921875,0.003412365726754,0.0033210798472631,0.0408411289542913,-0.001560715958476,0.0019651241600513,0.0013540846994146
0.7538779296875,0.0016394560364075,-0.0025826369043439,0.0471270773559808,-0.0004669557092711,0.00158082973212,-0.0008800411014817
0.76385791015625,0.0024362141709774,-0.0074704272122122,0.0329167656958103,-0.0025387881323695,0.0003324635326862,-0.0013241799315437
0.773838134765625,-0.0012362820629961,0.0075904825284611,0.0392003760099411,-0.0006324974820017,0.0013652378693223,0.0010710671776905
0.78381787109375,-0.0087714268081821,0.010911818104051,0.0450315663814544,-8.62366287037e-05,0.0021928250789642,0.0004562042595352
0.793797119140625,-0.0044176520454697,-0.0019405852742958,0.0421866983443498,-0.0037419577129185,-0.0011347942054271,0.001714281621389
0.803777099609375,0.0019882329414598,-0.0001542498467955,0.0385948113322257,-0.000384118699003,0.0016280328854918,-0.001258805161342
0.8137568359375,-0.0040959092778153,0.0024934607835486,0.0367991600871086,0.0007743563037365,-0.0005666781216859,-0.000498472712934
0.82373681640625,-0.0062433148363605,0.0026383674132637,0.0474222609102725,0.0008496857481077,-0.0002712281420826,0.0005197757855057
0.833717041015625,-0.0094167755070142,-0.0017645437208004,0.0402384868860244,0.0025602341629564,-0.0011892197653651,0.0015613381983712
0.84369677734375,-0.0081903207182884,0.004247245648317,0.0447229388236999,0.0020129184704273,0.00069912802428,0.0025315377861261
0.853677001953125,-0.007483177095931,0.0013901300509925,0.0384375749439001,-0.0001852546120062,0.0028118137270212,-0.0002112517977366
0.863656982421875,0.0055722654406912,0.0061770811997354,0.0397866514652967,0.0006232913583517,0.0004470841959118,0.0024845134466886
0.873636962890625,0.0046847602827474,0.0096221162202302,0.0547504118412733,0.0014880198286846,0.0003280406817793,-0.0002457593218423
0.883616943359375,0.0029230843724682,-0.0030110640500206,0.056093643143773,0.0002753079170361,0.0020649218931794,-0.0021350749302655
0.893596923828125,-0.0002029021609574,-3.66148164961e-05,0.0337982247054576,-0.0022312593646347,0.0005367994308471,0.0007350136293098
0.903576904296875,-0.0089212105424143,0.0031859000271186,0.0332031814217567,0.0025579591747373,0.0006137806922197,-0.0015364589635282
0.913556884765625,-0.0101849651342257,0.0063717726547736,0.0549053101420402,-0.0020823325030505,-0.0025561796501278,6.46334374323e-05
0.9235361328125,-0.0024126506322994,0.0053014034769032,0.0396434436023235,-0.0007808490190654,0.0015925634652376,0.0013046528911218
0.93351611328125,0.0018694653999991,0.0016782354105263,0.0387432798922061,-0.0005153318634256,-0.000172846019268,-0.0018019245471805
0.943495849609375,0.0048486273412592,-0.0078263553772587,0.0483206710547208,-0.0005023104022257,0.00023471750319,-0.0017651349771767
0.953475830078125,0.0062941317081451,0.002680589986639,0.0496656559228897,0.0016412679105997,-0.0007439935579895,0.0026237543206661
0.9634560546875,0.0063111011092551,-0.0034062282469123,0.0459264693945646,5.87250106036e-05,0.0002520959824323,0.0001962593523785
0.973435791015625,0.0034150508741848,-0.0038749691366683,0.0350017552763223,0.0007436900632455,-0.0011013224720954,0.0009794950019568
0.983415771484375,0.0018781784294173,-0.0016116729803383,0.0323106164962053,0.0001983863767236,0.0007658135145902,-0.0003545574727468
0.99339599609375,0.0010635741109028,-0.0075664714652113,0.0505693267643451,-0.0002191972453147,-0.0001788092777132,0.001105653704144
1.003376220703125,0.0031099852466955,-0.0018094514416065,0.0388975936710834,-0.0016090122517198,0.0016887402161955,0.0005745617672801
1.01335595703125,0.0072204345065169,0.0024569829643703,0.04144026389122,-0.0001346862409263,-0.000869758427143,-0.0011730045080184
1.0233359375,0.0074165781331248,0.0030177951849065,0.0450315663814544,0.0016937943873926,-0.0004856502637267,0.0005191411473788
1.03331591796875,0.0028332689308561,-0.0021734989810269,0.0519125580668449,-0.0003219522186554,-0.0004369150847196,0.0011140913702547
1.0432958984375,-0.0043237632169388,9.16420725174e-05,0.0411339744210243,0.0003216905752196,0.0008266447111964,0.0016913111321628
1.05327490234375,-0.0075501779175363,0.0028282091632485,0.0414326651066541,-0.0025771602522581,-0.0001435447484254,0.0004643927968572
1.0632548828125,0.0017046667597256,0.001110600723559,0.0448760835587978,0.000533182406798,7.16438516974e-05,0.001990282908082
1.07323486328125,0.0007661803332157,-0.0017807733363937,0.0445750547856092,0.0008690069662407,-0.0004253014922142,-0.001338934758678
1.083215087890625,0.0040676512977108,0.0025199195322114,0.0439718281954526,-0.0016536274924874,0.0012444155290722,-0.0005289241089485
1.093195068359375,-0.0120920408645644,0.0019450513868592,0.0331949981153011,0.0003429444041103,-0.000495427288115,-0.0028157806955277
1.1031748046875,-0.0043999885246157,0.0041663441655226,0.0414262353658676,0.0003374220104888,-0.000975321047008,-1.44053337862e-05
1.11315478515625,-0.0025090602114796,0.0004814999066293,0.0466617979317903,0.0001038628397509,0.0006366902962327,0.0002460518153384
1.123135009765625,-0.0050147228894755,0.0010741959696169,0.0418745636552572,-1.91290164366e-05,0.0003613801673054,0.001530005945824
1.133115234375,-0.0005097761530429,-0.0033152437615208,0.0385877970695495,0.0001822059275582,-0.0020911246538162,0.0012421181891113
1.143094970703125,0.0015926394863054,0.0014634601486846,0.0415840562760829,-0.0001232795184478,-0.0004509910941123,0.0019355695694684
1.153074951171875,0.0035386224549263,0.0028061891276855,0.0454717113643884,-4.17868141084e-05,0.0017714165151119,0.0003379392437636
1.163054931640625,-0.0075149604736827,-0.0063442453270312,0.0438233596354722,-0.0011321381898596,0.000264598056674,0.0037375723477452
1.173034912109375,0.0006117752227932,-0.0043398101694416,0.0435258379936218,-0.002277563791722,0.0009130770340561,0.000290909258183
1.183013916015625,-0.0020387758186087,-0.004801582462294,0.0487608160376548,0.0013471820857375,0.000507622025907,-0.0022985443938523
1.192993896484375,0.0010772555763833,0.0058790207017678,0.0429237804472446,-0.0007833468262106,-6.1020255088e-06,0.0004876547609455
1.202973876953125,-0.0001276449676603,0.009125574008096,0.0438221905916929,-0.0027457873802632,0.0014488827437162,0.0001959973014891
1.2129541015625,-0.0009036160425283,-0.0050726362223271,0.0469686719238758,-0.0006602659123018,-0.0013660788536071,-0.0018090966623276
1.22293408203125,-0.0122957650094293,0.0018662779290694,0.0448754990369081,-0.0013294895179569,-0.0009432910010218,-0.001792004215531
1.232913818359375,-0.0030957009930163,0.0021618724753148,0.0451765278100967,-0.0007422625785693,-0.0013923002406954,-0.00104738434311
1.242893798828125,0.0013686945373192,-0.0038127358217258,0.0462269136458635,-0.0012628512922674,-0.0003968114033341,0.0001746736379573
1.2528740234375,-0.0021195494372397,-0.0010599025827832,0.0408411289542913,0.0009020322468131,-0.0016631446778774,-0.0009241466177627
1.26285400390625,-0.0048966677340678,0.0058146228292025,0.0363502472758293,-0.0003896084381267,0.0013590259477496,-0.0012435438111424
1.272833984375,0.001377973822318,0.0043233704912941,0.040989012992382,0.0021787439472973,0.0001313090324401,0.0002073463401757
1.28281396484375,-0.0059936691905371,-0.0112492150985635,0.0368014981746673,-0.0007527458365075,-0.0027385875582695,0.000973230227828
1.292794189453125,0.0046628955108113,-0.0022756989801768,0.0400946945011615,-2.30397563427e-05,-0.001977989450097,-0.0001181331172119
1.30277294921875,-0.0004860482175834,-0.0019009199841879,0.0375567004561424,0.0031233136542141,-0.0030497051775455,0.0001010338310152
1.3127529296875,-0.011360621317476,-0.0013187727146781,0.0377075071036815,-0.0034975712187588,0.0014257375150918,0.0001297959679504
1.322733154296875,0.0041463608234189,-0.000488002712652,0.0276812031298875,-0.0001985251437872,-0.0011944891884922,-0.0005869406741112
1.332712890625,-0.0031112090894021,-0.0012077500882558,0.0395072500020265,0.0021517144050449,-0.0014682626351714,-7.53474014345e-05
1.34269287109375,0.0002337904895655,-0.011066214081319,0.0375625456750392,-0.0022692577913403,0.0005170525982975,-0.0001155132558778
1.352673095703125,-0.0023816344395279,-0.0031591581506654,0.0465413864225149,-0.0004098386270925,0.0017005614936351,-0.001111535471864
1.36265283203125,0.0027679120770655,9.2244860716e-06,0.0411556017309427,-0.0013834733981639,0.0005139829590916,0.0010662281420081
1.372633056640625,0.0042320663454942,0.0077984809896443,0.0468406616300344,0.0003180202329531,-0.0022157570347189,7.15375063009e-05
1.382613037109375,-0.0004220978695899,0.0038026345528196,0.0504313795983791,-0.0001899278722703,0.0012480253353714,0.0008708293898962
1.392593017578125,-0.0021205358179286,0.0007858531480655,0.038163434177637,-0.0015832937788218,-0.0003599915653467,0.0011701686307787
1.40257275390625,0.0096949713938869,-0.0048748851605225,0.0383124872595071,-0.0018075727857649,-0.001982650719583,0.0005513329524546
1.412552978515625,0.0010519750046543,0.0042336737806908,0.0318792393416166,-0.0005564197781495,-9.50023531913e-05,0.0010069998679682
1.42253173828125,0.0010140176144428,0.0045189204628579,0.0419026207059621,-0.0013625883730128,-0.0008577303960919,-0.0025827796198427
1.432511962890625,0.0022789595163427,0.0018447602170053,0.041007717692852,0.0003490252420306,0.0002562701702117,0.0015967853832989
1.442491943359375,0.0010793744682334,-0.0018411343546584,0.0511824902266263,0.0019062906503677,-0.0001391349360346,-0.0012039917055517
1.45247216796875,-0.0013017850472591,0.0033951040646992,0.0541758268237113,0.0002407496795058,-0.0016648592427372,-0.0022056065499782
1.462451904296875,0.0038963863840326,-0.0027450609244406,0.0375695599377155,-0.001759135746397,-0.0012118779122829,-0.0021539917215704
1.472431884765625,-0.0091943283953703,-0.0073425265162251,0.0459475121825933,0.0008385115070268,0.0005631186068058,0.0003802722785621
1.482411865234375,-0.0063517619132064,-0.0058211621678434,0.0447498268306255,-0.0010063715744763,0.000250207260251,0.0011659604497253
1.49239208984375,-0.0068038347959518,0.0045350587469059,0.0426549003779888,-0.001365632051602,0.0007865680381655,-0.0011597780976444
1.5023720703125,-0.0045039238231256,0.0016977712280582,0.0323275676310062,-0.00101410492789,0.0009005786851048,-0.0011838879436254
1.51235205078125,-0.0080584014343097,-0.001262046691915,0.0410036260396242,-0.0001712144585326,-0.0010784165933728,0.0002499579859431
1.522331787109375,-0.0022269370681606,0.0034728911418002,0.0474374584794044,-0.0001776515273377,-0.001182097941637,0.0004364807391539
1.532311767578125,-0.0031139125031419,-0.0057061757523566,0.0445914213985204,0.0007131758611649,0.003903473727405,-0.0001313051907345
1.542291015625,-0.0014815255283378,-0.0004227463235612,0.0409960272550582,0.0018180697225034,-0.0005462802946567,-0.0010496658505871
1.552270751953125,0.0015503529808484,-0.0023878267182968,0.0475830044299364,0.0011562742292881,-0.0040808273479342,-0.0013828272931277
1.562250732421875,-0.0018192330501042,-0.0007017824606504,0.0468359854549169,-0.0017184519674628,0.0012701824307441,0.0004297294071875
1.572231201171875,-0.0027344299325719,-0.0077227945380844,0.0380085358768701,-0.0003469239454716,-0.0006976276636123,1.80047063622e-05
1.582211181640625,-0.004404609900806,0.000454374437686,0.051181321182847,-0.0007828776142559,-0.0013490989804267,0.0008298892644234
1.59219091796875,-0.0026521402102895,0.0008034070710651,0.0390641824096441,-0.0008941977284848,-0.0001621274277567,-0.0014758754987269
1.602171142578125,0.002670333454106,-0.0036861685662996,0.0483405447989702,0.0007182448171079,0.0002725180238485,0.0017749625258147
1.612151123046875,0.0032267252278514,-0.0060110313172917,0.0472924970507621,-0.0012495648115873,-0.0007852893322706,0.0019906787201762
1.622131103515625,0.0012805230635218,-0.0038771976263727,0.0457961210131645,-1.98656925931e-05,-0.0004265820607542,0.0006638242630288
1.632111083984375,0.001789367634803,0.0017990761780645,0.0342751945674419,0.0020574000664055,-0.0046713943593204,-4.32450142398e-05
1.642091064453125,0.0023977818567305,-0.0042500586599111,0.0402630368053913,-0.0005703293718397,-0.0008594961836934,-0.0003462830209173
1.65207080078125,0.0011380823855288,-0.0074557502328883,0.0449012180000543,-0.0008446349529549,0.0007091052830219,-0.0008927636663429
1.662050048828125,0.0028794278938323,-0.0023166246456094,0.0511895044893026,-0.0002162129385396,-8.16043466329e-05,0.0015237666666507
1.672030029296875,0.0002933021244592,-0.0018389606638811,0.0389192209810018,-0.0004806648939847,-0.0021165255457162,0.0004246801254339
1.682010009765625,-0.0011014401695691,-0.0016605353570543,0.0401169063329696,-0.002605122514069,0.0005781389772891,0.0002676438307389
1.691990234375,-0.005900730210077,0.0041450456491671,0.0483469745397567,0.0007312856614589,-0.0014131069183349,-0.0013345138868317
1.70197021484375,-0.0031585370961576,0.0054632247088011,0.0529869093000888,-0.0004895512829534,0.0006079245358705,-0.0014059288660064
1.7119501953125,-0.0027734833013266,-0.005596623563813,0.0420621951818466,-0.0003827585023827,0.0006345566362142,-0.0017627924680709
1.721929931640625,0.0015426628647372,-0.0043328324393834,0.0495423218041658,0.0023832428269088,0.001109043136239,0.0004649948386941
1.731909912109375,0.0054016215815208,0.0008693119141273,0.0486398200064897,0.0027715319301933,-0.0007362617179751,-0.0004878842155449
1.74189013671875,0.0007815605654381,-7.46544050984e-05,0.0431026441454887,-0.0015649385750293,0.0008933097124099,0.000835962826386
1.7518701171875,0.0032697241193614,-0.0012740293906535,0.0401098920702934,0.0009269810980185,0.0001263190060853,0.0004466086975298
1.76185009765625,0.0011762224388308,-0.0016652480647899,0.0428027844160795,0.0014767770189791,0.0002719732001423,0.0009450287907384
1.771830078125,-0.0025218831604346,-0.0042004747639875,0.0472942506164312,-0.0005640033632516,0.0005702469497919,-0.0006030667573213
1.78180908203125,-0.0014773973424918,-0.0030439342731609,0.0450485175162553,0.0013034096919,0.0019499836489558,-0.0013417723821476
1.7917890625,-0.0036559469579719,-0.0008682981339748,0.0383124872595071,1.6567064449e-06,0.0001731226220726,-0.0001787699875421
1.80176904296875,-0.0043244573366828,-1.32978729903e-05,0.0426490551590919,-0.0011906041763722,-0.0006830636411905,0.0010498397750779
1.8117490234375,-0.0039105975724756,0.0005792520595248,0.0359147784680128,-0.0023205834440886,0.0021358923986554,0.0002383746323175
1.821729248046875,-0.0029585575446486,0.0016480868674349,0.0374088164180517,0.0003312072949483,0.002337496727705,0.0016302312724292
1.831709228515625,-0.0077640946628525,0.001161563725816,0.0405500370532274,-0.0009132879204116,-0.0006428463384509,-0.0023820872884243
1.841689208984375,-0.0063563650230877,-0.0074028327355626,0.0418979445308446,-0.0006719921948388,-0.0005348185077309,0.0005975317326374
1.8516689453125,0.0006786481802351,-0.002310094440123,0.0451934789448976,-0.0018025040626525,-0.0002903398126363,-0.0031167790293693
1.861649169921875,0.0066145775678567,-0.0029759470708668,0.0477355646431446,0.0011575976386666,0.0005585104227066,-0.0014560087583959
1.871629150390625,-0.0093688629783689,-0.0098079576485324,0.0493827473282814,8.1774778664e-06,-0.0013509765267372,-0.0020560189150273
1.88160888671875,0.0018454452035948,-0.004634537066007,0.0499818822652101,-0.0005235747667029,0.0021930364891886,0.0003562903730198
1.891589111328125,0.0016208792001008,0.0026413630879484,0.0417506450146436,0.0012311820173636,-0.0005891676992177,0.0005160800064913
1.901568359375,-0.0053521746829152,-0.005808211354725,0.0462386040836572,0.0014021547976881,0.0028825756162405,0.0013479402987286
1.911548095703125,-0.0068654105237685,0.00129222263447,0.0480348398506641,-0.0012309125158935,-0.0016109757125377,-0.0008169432985596
1.921528076171875,-0.0003772906134836,-0.0019510884020011,0.0395078345239162,-0.001817220589146,0.000608243048191,0.0008636506972834
1.931508056640625,-0.0017223120142705,0.0007005586179438,0.0419037897497415,-0.0011916439980268,-0.0012815361842513,0.0025473011191934
1.941488037109375,-0.0005439158846624,0.0032643081587273,0.0395125106990337,0.0002426449209451,0.0001249574124813,-0.0024641335476189
1.951468017578125,-0.0068981437495909,-0.0100878431689925,0.0378653280138969,-0.0016692384378984,0.0029159495607018,-0.0033674777951091
1.961447998046875,-0.0071354596368037,-0.0015555314794648,0.0417553211897611,-0.001930484548211,-0.0009103016927838,0.0004763496690429
1.971427978515625,0.0043072870061732,0.0056742645104415,0.0393622885733842,-0.002754732966423,-0.0001001683995127,-0.0012136923614889
1.981408203125,-0.0014245894430205,0.0002901603193022,0.0437041171699762,-0.0019792695529758,-0.0014906050637364,0.0031253534834831
1.99138818359375,0.0009717128426767,-0.0029255046584177,0.0438543392956256,0.0005651146639138,0.0009685577824711,0.000160988929565
2.0013681640625,-0.0035067660119384,-0.0026403219083324,0.0395107571333646,0.000859968131408,0.0005182735621929,-5.38288222742e-05
2.011346923828125,0.0028874833361245,-0.004686870041443,0.045049102038145,0.000262088375166,-0.000796528533101,0.0004953150055371
2.0213271484375,-0.0100255550551228,-0.0022826036449987,0.0312830270141363,-0.0019305190071463,-0.000354022718966,0.0009664149256423
2.03130712890625,-0.0135816583678126,0.0001637574606575,0.0378705887109041,0.0006953577976673,0.0001091007143259,0.0003778563113883
2.041287109375,0.0017539857941679,-0.0055296136090531,0.0392155735790729,-0.0010913426522165,0.0006860857829451,0.0004794183187186
2.05126708984375,0.0012793722860515,-0.0029345647477079,0.0458002126663923,0.0020139031112194,0.000263974070549,-0.0001903667289298
2.061247314453125,-0.0023557328132912,-0.0036035317841451,0.0516343256473541,0.0005679421592503,-0.0003636619076132,-0.0003258520155213
2.07122705078125,-0.0028983700563199,-0.0027941424968652,0.0429524220198392,0.0014752810820937,0.0010787062346935,7.38884409656e-05
2.08120703125,-0.0013307919460348,-0.0019907810915727,0.0428039534598588,0.0010100567014887,-0.0028514610603451,-7.9142519098e-06
2.09118701171875,-0.0052277811182662,-0.0074456763634458,0.0457972900569438,-0.0022070419508963,-0.0020101685076951,-0.0005850212764926
2.1011669921875,-0.0082736516201868,0.0021999668628443,0.043404257440567,0.0009785697329789,-0.0004963185638189,-0.001135493046604
2.111147216796875,0.0071335599406622,0.0026611911664251,0.0492430465966463,0.0008874896448105,-0.0013639759272336,-0.00033414788777
2.121127197265625,-0.0050270709143951,-0.0024236195508856,0.0329319632649421,-0.0020510137546807,0.0028657345101237,-0.0029843566007912
2.13110595703125,0.0047632506127469,-0.0046257783708162,0.0384679700821638,-0.0025990922003984,-0.0003686742857098,0.0014841613592579
2.141086181640625,-0.0070216422650963,0.0015577051702421,0.0480465302884578,-0.0026185170281678,-0.0007914099842309,0.0014142710715532
2.151066162109375,-0.0083602704577147,-0.0041662711002863,0.0414613066792488,0.0019642505794763,-0.0005778241902589,-0.0015021566068753
2.1610458984375,-0.0015006320876069,0.0026312161532696,0.0435568176537752,0.0023204709868878,-7.29318708181e-05,0.0001215577649418
2.17102587890625,0.001024831269402,-0.0023920005699153,0.038318332478404,-0.0010665371082723,0.0029689306393265,-0.0012587585952132
2.181006103515625,0.0026287410683929,-0.0099313191667199,0.049392684200406,-0.0003856502007693,-0.0001226430758833,-4.86535718664e-05
2.190986328125,-0.000967292395886,-0.0020143902960233,0.0511883354455232,-0.000347300665453,9.68016684055e-05,0.0003265858103986
2.200966064453125,-0.0004968618725426,-0.0035923254035413,0.0408645098298788,-0.001556156668812,-0.002053196541965,0.001599034643732
2.210946044921875,-0.006307612244226,-0.004209470921196,0.0438549238175153,0.001780517748557,0.0022997399792075,4.00201170123e-05
2.220926025390625,-0.0031580073731951,0.003061981386505,0.0525350738793611,-0.0036331084556877,0.0001428108662366,0.0005568156484514
2.230906005859375,0.0031297859257087,-0.0016478950711898,0.0434077645719051,-0.0008991073700599,0.0010821083560585,-0.0002397358475718
2.240885009765625,-0.0060802332291379,-0.0075232625111471,0.0294914674222469,-0.0016070322599262,0.0010678274556994,0.0013888868270441
2.250864990234375,-0.0050823630318976,-0.0026893669481389,0.0454980148494243,-0.0014746731612831,0.0005359938368201,0.0025926358066499
2.26084521484375,-0.0013649134113453,0.005822751336731,0.0425046782523393,-0.0002629578812047,-0.0006764428690075,-0.0004952636081725
2.2708251953125,-0.0062320445236749,-0.0043730183192994,0.0446013582706451,-0.0004445855156518,-0.000460460782051,0.0009202064247801
2.28080517578125,-0.0014187807567417,-0.0063149370341561,0.0432522817492485,0.0011509683681651,0.0019519766792654,-0.0020291353575885
2.290784912109375,-0.0062554071329534,-0.0047210463056806,0.0345680400341749,-0.0010152467293664,0.0007040193304419,0.0003597202012315
2.300764892578125,-0.0088938293451443,-0.0007488456059247,0.0333726927697658,-0.001542184036225,-0.0020728651434183,0.0012898088898509
2.3107451171875,0.0004333499159663,-0.0002252875227015,0.0510316835790872,-0.0003706593997776,0.0009655356407165,0.000457304820884
2.32072509765625,0.0017750103158876,0.0031369554520118,0.0420493357002735,-0.0003260248340666,0.000931835733354,0.0001044202217599
2.330705078125,-0.002918499528896,-0.0003227017488796,0.0392050521850585,0.0010606831638142,-7.77682289481e-05,0.0013771448284387
2.34068505859375,-0.006026183220651,-0.0001171692394185,0.0402530999332666,0.0012028109049424,9.98685136437e-05,0.0024652637075632
2.350664306640625,0.0043034876138903,-0.0007078286089468,0.0365121598392724,8.16200627014e-05,0.0002492722123861,0.0006351394695229
2.36064404296875,0.0090671035528182,-0.001549896323122,0.049978375133872,-0.0009973229607567,-0.0007468620315194,0.0012741532409563
2.3706240234375,0.002104388400726,-0.0029871625846251,0.0369575655192136,0.0017212318489328,-0.0004714913666248,5.0963331887e-05
2.380604248046875,0.0005271839455701,-0.0009706442635972,0.0405541287064552,-0.0015828385949134,-0.0012743659317493,-0.0002276940795127
2.390583984375,-0.0029782851584255,-0.0042968478105496,0.0413046548128128,0.0005322439828887,-0.0011268267408013,0.0003390266210772
2.40056396484375,-0.0056665561280213,-0.0022414770501665,0.0353214887499809,-0.0022717267274856,0.0019517336040735,-0.0006858382839709
2.410544189453125,-0.0025731932225637,-0.0029856830135919,0.0392108974039554,0.0012742723338305,1.987721771e-05,0.0013528114650398
2.42052392578125,0.0040317397341132,-0.0021253033245913,0.0416091907173395,-0.0001312171807512,-0.0022576404735445,0.0001893094158731
2.430504150390625,0.0021031280254013,-0.00211809726567,0.0432552043586969,-0.0017735885921865,-0.0002978201955556,0.0014354025479406
2.440484130859375,-0.0002191226433962,-0.0010408690887503,0.0487900421321392,0.0012254324974492,0.0015699742361903,0.0004226837190799
2.450464111328125,-0.000243307236582,0.0018210596810095,0.0354699573099613,0.0010754965478554,-0.0005022315308451,0.00111324142199
2.46044384765625,-0.0004137319000437,-0.0026425229985732,0.0380114584863185,0.0005464485147967,-0.000947049818933,0.0010796966962516
2.470423095703125,-0.0039246260978281,0.0030460074992384,0.0401034623295068,-0.0005755412857979,-0.0009409245103597,0.0003036515263374
2.4804033203125,0.0027596374390646,-0.0037821762866806,0.0378618208825588,-0.0020967402961105,9.376835078e-05,0.0002979932760354
2.490383056640625,-0.0037791897451505,-0.0033220114290248,0.0416039300203323,-0.00046741834376,0.0003177402541041,-0.0015798015519976
2.500363037109375,-0.0106309188034385,-0.001311429658439,0.0405529596626758,0.0001688847551122,0.0017670625820755,0.002472948282957
2.51034326171875,0.0019596827004104,-0.0030430666234809,0.039804771643877,-0.0005903825513087,0.0007353536784648,-0.0002506663731765
2.520322998046875,-0.0047125798714347,-0.0015497867252677,0.0368149421781301,-0.000976181239821,-0.0012232437729835,-0.0003593339642975
2.530302978515625,0.0036458456890657,-0.0020365473289042,0.0335229148954153,-0.000967925414443,-0.000999005511403,-0.0010347116040065
2.540282958984375,0.0016442418093793,-0.0059816408260259,0.045047348472476,-0.0014463848201557,-0.0004054140299558,0.0011123673757538
2.55026318359375,-0.004785827770736,-0.003068557257764,0.0492383704215288,-0.0022171037271618,-0.0011646812781691,-0.0001979079388547
2.5602431640625,-0.0040977176424115,-0.0031924393657594,0.0353203197062015,0.0001100790686905,-0.0009941095486283,0.0014726311201229
2.570222900390625,-0.0023794424824416,-0.0046437889515422,0.0312830270141363,-0.0033749337308108,-0.0020718909800052,-0.0003955763531848
2.580201904296875,-0.0064267633781768,-0.0005203614791389,0.0401169063329696,-0.0027207571547478,0.0004689684137701,0.0007297162082977
2.590181884765625,0.0047119588169269,0.0021199604291934,0.0434124407470226,-0.0010376393329352,0.0004820171743631,0.000162729222211
2.600161865234375,-0.0047867776188068,0.0031237763100303,0.0526888031363487,-0.0017331687267869,-0.0019623637199401,-0.0014410830335691
2.6101416015625,-0.001799779430963,-0.0097626389357727,0.0419148956656455,0.0010809935629367,0.000759121030569,-0.0013761018635705
2.620121826171875,-0.0064234571762382,-0.0051249600646086,0.0423608858674764,0.0032902113161981,-0.0022664237767457,-0.0012147572124376
2.63010205078125,0.0009710187229327,0.0012523198823444,0.0441582906782627,-0.0026025651022791,-0.0013468340039253,-0.0011045023566111
2.64008203125,-0.0079835826324298,-0.0003572981382254,0.0404191041499376,-0.0022215289063751,7.5902789831e-06,0.0005196105339564
2.650061767578125,-0.0033326150214299,0.0023337401771917,0.0416179585456848,-0.0009498693980276,0.0015181358903646,-0.0001570987078594
2.660041748046875,4.57388378679e-05,-0.0030273667308501,0.0474526560485362,-0.0006806629244238,0.0018143346533179,-0.0013457597233355
2.67002197265625,-0.001604658717662,-0.0125740796273108,0.053587213280797,0.0001590317115187,0.0008971411734819,-0.0012253848835825
2.680001708984375,0.0042553010906092,-0.0059554104062262,0.0511930116206407,-0.002305187517777,-0.0001708548516035,-0.0007636656519025
2.689980712890625,0.0005380341331474,-0.0033851215268019,0.047602293652296,0.0010453354334458,-0.0002392977476119,-0.0014720665058121
2.6999609375,-0.0056801827945746,-0.0066833410882856,0.0386240374267101,-6.61446247249e-05,-0.000945976935327,0.0007639957475475
2.70994091796875,0.0010905899819917,-0.0002092771028168,0.0468541056334972,0.0003535696305334,-0.0005683405324816,-0.0002948770707007
2.7199208984375,0.0007210260172374,-0.0024388719189446,0.0462573087841272,-0.0017669205553829,-0.0017372965812683,0.0007080186042003
2.72990087890625,-0.0010575462289154,-0.0063816821274347,0.0473059410542249,-0.001581298187375,0.0010204073041677,-0.0003985248040407
2.739880615234375,-0.0048434031768701,-0.0087723218573257,0.0320417364269495,0.0009922836907207,2.50777229666e-05,-0.0011663947952911
2.74986083984375,-0.0063991812515072,-0.0008751297335606,0.0455114588528871,-0.0008889732416719,-0.0007301941514015,-6.06503235758e-05
2.7598408203125,0.0004289112028665,0.0015365619175136,0.0371299994766712,-0.0004557292559184,0.0002416893839836,0.0007819503080099
2.769821044921875,0.0005557707192376,0.0014420794339384,0.0365308645397424,-0.0005822294042445,0.0022811377421021,-0.0006915766862221
2.77980078125,0.003781820093654,-0.0053074861578177,0.0359305605590343,0.0002570482902228,0.0002270033583045,-0.0017540273256599
2.789781005859375,-0.0014842472083866,-0.0061944341933354,0.0393733944892883,-0.0015294002369046,0.0002754731103777,-8.20947316242e-05
2.799760986328125,0.0006268814603798,-0.0019944526196923,0.0493991139411926,0.0013925738167017,-0.0028066718950867,4.32940942118e-05
2.80973974609375,-0.0117798879091627,-0.0018578936932142,0.0480529600292444,0.0013694041408598,0.0041255364194512,-0.0010494008893147
2.8197197265625,-0.0034989662979729,0.0061217982153873,0.0419148956656455,-0.0007946937112137,0.0004585431888699,0.0002481313131283
2.829699951171875,0.0026816768320277,-0.0002253423216287,0.0514922868281602,-0.0005121323047205,-0.0007553249597549,0.0002635776472743
2.8396796875,0.0026402305767871,0.0073934803853277,0.0470019896715879,-0.0002217084402218,-0.0014593675732612,-0.0031085775699466
2.849659912109375,-0.0057933425791561,0.0040033173572272,0.0398176311254501,-0.0008744492661207,0.0018948838114738,0.0022017657756805
2.859639892578125,-0.0052761320383287,-0.0040085049889981,0.0499906500935554,0.0013403892517089,0.0003263503313064,-0.0004567544383462
2.869619873046875,0.0111252051264047,0.0023700170669704,0.0384662165164947,-0.0002354030730202,-0.0009160134941339,-0.0002040204417426
2.879599853515625,0.0053794097497127,-0.004532994653983,0.0381692793965339,-0.0010300920112058,-0.0013677822425961,0.0013372823596
2.889579833984375,0.0026668080564588,-0.0070011383331846,0.0420586880505085,0.0001560798846185,-0.0004665683954954,-0.0012049712240695
2.8995595703125,0.0077061356642283,-0.0032186697855591,0.0395166023522615,0.00094761303626,-0.0013016033917665,0.0007508777198381
2.909538818359375,0.0010930559337139,-0.0031320144154131,0.0435550640881061,0.0006301641697064,-0.0004027867689728,7.0568257797e-06
2.919518798828125,0.002007357767038,0.0041645266677718,0.0474450572639703,7.0986803621e-05,-0.0006947144865989,0.0004995591007173
2.929498779296875,0.0078407583619467,0.0078066003640182,0.0362234060257673,0.0020068385638296,0.0008118357509374,-0.0004900716012343
2.939478759765625,0.0052770818863995,0.001015287122922,0.0513350504398345,-0.0009070493397302,0.0003170361742377,0.0004535650659818
2.949458984375,0.000485902087111,-4.8725379398e-05,0.0480447767227888,-0.0001624295255169,0.0004251599311828,0.0010937890037894
2.95943896484375,0.0020878025921061,-0.0057690849207341,0.0393652111828327,-0.0009244590764865,-0.0008099842816591,-0.0008347561815753
2.969418701171875,-0.000807535256911,-0.0035563773073256,0.0478939700752496,0.0003866151673719,-0.0003628395497798,0.0008451658068224
2.979398681640625,-0.0005225625693798,-0.0028053397443145,0.0440045614212751,-0.0038866573013365,-0.00029425509274,-0.0004443222424015
2.98937890625,0.0014304346619173,-0.0078421283351257,0.0411626159936189,-0.0010053833248093,-0.0020969482138752,-0.0018605912337079
2.99935888671875,0.000631466303952,-0.0097892346817534,0.0405658191442489,-0.0004374730633571,-0.0008342722430825,-0.0004028022813145
3.0093388671875,-0.0030206447291187,-0.0002332972992211,0.0408645098298788,-0.0004214941291138,0.0013894671574234,0.0008901624241843
3.01931787109375,0.0038506292798556,-0.0069576371181756,0.0459516038358211,-0.0007789068622514,-0.0006939908489584,-0.0002143421588698
3.0292978515625,0.002934774810262,-0.0017595113526564,0.0441559525907039,0.0001460090279579,0.0006149522960186,-0.0006761342519894
3.03927783203125,0.0019148937106132,-0.0032625819925218,0.0329307942211627,1.5711528249e-05,0.0027686106041073,0.0014366644900292
3.0492578125,0.0016744725508615,-0.0054961862634867,0.0489361726045608,0.0010434254072606,0.0010697804391384,-0.0012917440617457
3.059237548828125,0.0060354990382678,-0.0053486127526499,0.0326250892728567,0.0013572231400758,-0.001882430166006,0.0004299133724998
3.069218017578125,-0.0029925694121047,0.0051201560253277,0.0459416669636964,-0.0017448267899453,0.0009074974805116,0.0014965094160288
3.079197998046875,-0.0054338798833079,-0.0001686802309472,0.0496820225358009,0.0013797357678413,0.0020651705563068,0.0002635135606396
3.089177734375,0.0001930931529961,-0.003762558270758,0.0420493357002735,0.0011448450386524,-0.0006888043135404,-0.0004467515100259
3.09915771484375,-0.0025844270026311,-0.0031291557380463,0.0439957935929298,0.0011071532499045,-0.0023044012486934,-0.0023488507140427
3.1091376953125,-0.0024295104355551,-0.0016423969121649,0.0386088398575782,-0.0018454933306202,0.0006266739219427,0.0003217672056052
3.119117919921875,-0.0070215874661691,-0.0021011461308691,0.0442927307128906,0.0015656889881938,0.0008495757356286,-0.0015631453134119
3.1290966796875,-0.003790460057836,-0.0031000940403435,0.0406985056132078,0.0032844932284206,0.0006378544494509,-0.0003210469731129
3.13907666015625,0.0030974545586854,0.0017681787163019,0.0365063146203756,0.0007321904413402,-0.0007982729002833,-0.002287323353812
3.14905712890625,-0.0002062996944412,0.0008187507706694,0.0366594593554735,-0.0025581452064216,-0.0009748404845595,-0.0007866320665925
3.159036865234375,0.0037099421675316,0.0020010102246422,0.0480342553287744,-0.0009475948172621,0.0004369746893644,-0.0004552693280857
3.169016845703125,0.0001245031625032,0.0004249748132657,0.0466881014168262,-0.0021500119473785,-0.0003177653998136,0.0013756538974121
3.178996826171875,-0.0067140193543396,-0.0035627613823395,0.0383107336938381,0.0012070456286892,-0.0001559741795063,-0.0004236457752995
3.188976806640625,-0.0003600106851197,-0.0017230700660962,0.047436289435625,-0.0007575682830065,0.0006445720791816,7.75611479184e-05
3.198956787109375,-0.0062380358730442,-0.0090329090222716,0.0399532402038574,-0.000684630125761,-0.0009014531970024,-0.0010058113839477
3.20893701171875,-0.0023389643415808,-0.0036173776464071,0.0359159475117921,-2.65630660578e-05,0.0007182816043496,0.0008157906704582
3.218916748046875,-0.0083806191259995,-0.010673196175741,0.0505810172021388,-0.0017514722421765,0.0028442647308111,0.0009169959230348
3.228896728515625,0.003042911359854,0.0007718794216401,0.0519265865921974,0.0017886677524074,0.0010298527777194,0.0011273856507614
3.2388759765625,-0.0002069755478762,0.0010131225652992,0.0399538247257471,-0.0020595074165612,0.0022497894242405,-0.0024398062378168
3.248855712890625,0.0058917614523321,0.0019460651670116,0.0483341150581836,-0.0001481567742303,-0.0004525193944573,0.0005730278789997
3.258835693359375,-0.0049492016389034,-0.0001134520455263,0.0484819990962743,0.0020653195679187,8.52020457386e-05,0.0014769621193408
3.26881591796875,0.0006181866972707,-0.0057197476199828,0.0430944608390331,-0.0013829412637278,0.0006953319534659,-0.001104972558096
3.278795654296875,-0.0038718729972839,-0.0006260229438543,0.0408498967826366,0.0005713653517886,0.0007423516362905,0.0011578286066651
3.28877587890625,-0.0033564890873618,-0.0024114998548291,0.0423445192545652,-0.0006925709312781,0.0004901504144072,-0.0009045232436619
3.298755859375,-0.0037146731415763,0.0047711416582576,0.0421937126070261,-0.0013015342410653,0.0010535959154367,0.0007743774913251
3.30873583984375,-0.00459658880895,0.0049720162589102,0.0507207179337739,-0.0008954021614044,-0.001043377444148,0.0004627876623999
3.3187158203125,0.0013995098006911,-0.0054030463536269,0.0351595761865377,-8.03015427663e-05,0.0005053980275988,-0.0009663584060035
3.32869580078125,-0.0016662344454787,-0.0088665486125741,0.0436906731665134,-0.0008986908942461,0.0009192526340484,0.0001122218527598
3.33867578125,-0.0022512860581278,0.0019767160336021,0.043836803638935,-0.0002120366552844,0.0020514735952019,-0.0012332613114267
3.34865478515625,0.0058833041512407,0.000145217156969,0.0386006565511226,0.0001693279482424,-0.000866818241775,0.0011294952128082
3.358634765625,-0.0008577493404969,0.0039976730677299,0.0474327823042869,0.0012841343414038,-0.0004246234893798,-0.000935448333621
3.368614990234375,-0.0057307622043415,-0.0033634120184928,0.037555531412363,0.000144035089761,0.0007413085550069,0.0011540679261088
3.3785947265625,0.0046118959759362,0.0002489606592338,0.0492290180712938,-0.0015921662561595,-8.52243974804e-05,0.000343887717463
3.388574951171875,0.0032485352008603,-0.0028457174204755,0.0407002591788768,-0.0016550167929381,0.0007701832801103,-0.0009229780407622
3.398554931640625,-0.0029661745955236,0.0037065720335114,0.0466875168949365,0.0021209109108895,-0.0013835933059453,0.0003176805039402
3.40853466796875,-0.0020377529053017,-0.0025963914350606,0.0384580332100391,-0.0037646749988198,-7.91773200035e-05,-0.0004932520678266
3.4185146484375,0.0055961395066231,-0.0012659922146704,0.0302267959594726,-0.00045209354721,0.0026598805561661,-0.002368185436353
3.428494873046875,0.0039041860979981,-0.0030692605106625,0.0402484237581491,0.001587887876667,-0.0001353733241558,0.0017687688814476
3.43847509765625,-0.0038163251514546,-0.0008944920211564,0.0450368270784616,0.0009613962611183,-0.0020820619538426,0.0003147140378132
3.448453857421875,-0.0023910963876172,-0.0008162939521018,0.0427934320658445,0.0005273009883239,-0.0006285086274147,-0.0010690644849091
3.458433837890625,-0.0068075793893076,-0.0074377305190078,0.0405494525313377,0.0012966184876859,-0.0007652472704648,0.0010926512768492
3.4684140625,-0.0009694112877361,-0.0030730873024091,0.0332166254252195,-0.0002789075952023,-0.0009234389290213,-0.0006762201664969
3.478393798828125,0.0007883738987147,-0.0114405546858906,0.0459399133980274,-0.0014144426677376,-0.0010575642809271,-0.0008094675140455
3.488373779296875,0.0042049408765509,-0.0052286031021736,0.0421978042602539,0.0001144780544564,8.20020213723e-05,0.0002781674265861
3.498353759765625,-0.0025871304163709,-0.0040783462216611,0.0366588748335838,0.0018833021167665,-0.0012806775048375,-0.000415935734054
3.508333740234375,-0.0079179883166216,-0.004660374760162,0.0501274282157421,-0.0014275396242737,-0.0008660228922963,0.0016687867464497
3.51831396484375,-0.0087748974069021,-0.0072625109494198,0.0411520945996046,-0.0018043296877294,0.0012800488620996,0.000817279680632
3.5282939453125,-0.0037645584315992,-0.0071913362761959,0.0414519543290138,-0.0016370831290259,0.0008142618462443,-0.0004498523776419
3.538273681640625,0.0009451718956232,-0.0088072287739254,0.0431008905798196,0.000250612385571,-0.0008650785312056,-0.0010381952160969
3.548253662109375,-0.0022252383014187,-0.0031961839591152,0.0404074137121438,-0.001417857944034,0.0016529401764273,-0.0001803909544833
3.55823291015625,-0.0031189174718223,-0.0003586041793227,0.0377139368444681,5.07407821714e-05,-0.00205007661134,-0.0006340429536066
3.568213134765625,0.0060699310308322,0.0023908863250631,0.0429489148885011,0.000620923587121,0.0012479815632104,0.0001196316006826
3.578193359375,-0.003909337197151,-0.0033449082474224,0.0439946245491504,-0.0014424140099436,0.0010117469355463,2.38421162066e-05
3.58817333984375,-0.0023543080411851,-0.0050300117901526,0.036664135530591,-0.0020530768670141,0.0005185296759009,0.0011727297678589
3.598153564453125,0.0003660385671071,0.0006777165984734,0.0454898315429687,-0.0017997936811298,0.0025022998452186,-0.000450438412372
3.60813330078125,0.0031865576142445,-0.0087662757090292,0.0555149664729833,-3.11884796246e-05,-0.0009315805509686,0.0001058959242072
3.61811328125,-0.0034298465845175,-0.0062800301175564,0.0451882182478904,0.0021724121179431,9.84715297818e-05,-0.0011150416685268
3.62809326171875,-0.0010388232621364,-0.0039331473310012,0.042643209940195,-0.000145869445987,0.0012055467814207,0.0012317359214648
3.6380732421875,-0.0048720082168467,-0.0046937107741832,0.038152328261733,0.0005821633385494,-0.0006490591913461,-9.24481500987e-05
3.648053466796875,-0.0012506576482206,-0.003131457292987,0.043836803638935,-0.0007566077401861,0.0014484468847513,-0.0003286705468781
3.658032470703125,-0.0069293243391439,0.0016251078506466,0.0424906497269868,-0.0003128590760752,0.00094251986593,-0.0010954844765365
3.66801220703125,-0.0008325783666223,-0.007288229912566,0.0390478157967329,-0.0015845184680074,-0.0013395426794886,0.0008225241908803
3.677992431640625,-0.0009952763813547,-0.0015876071181613,0.0405436073124408,-4.5278808102e-05,-0.0010046912357211,0.0002500554837752
3.687972412109375,0.0010916676942259,0.0022983583365567,0.0400946945011615,0.0004849566612392,-9.94829460978e-05,0.0024977633729577
3.6979521484375,-0.0057803552334196,0.0004582012294325,0.050420273682475,0.0016839987365528,0.0008849995210766,-5.78649851377e-05
3.70793212890625,-0.0039650859723798,-0.0027542397447396,0.0405436073124408,0.00209705485031,-0.0034684701822698,-0.0009297839133068
3.71791259765625,-0.0044854748509824,0.0024838618381414,0.0529635284245014,0.0015712496824562,-0.0005445033311843,-0.0009083259501494
3.727892578125,0.0069859681635163,-0.0038131468136794,0.0480266565442085,-0.0007632772321812,-0.0018076412379741,0.0015465759206563
3.737872314453125,-0.0002677292917855,-0.0045962782816961,0.0300718976587057,-0.0009525928180664,0.0010432507842779,-0.001152315409854
3.747852294921875,0.0006598338819108,-0.0082642079384066,0.0369569809973239,-0.0012487362837418,-0.0013051247224211,0.0001627535821171
3.757832275390625,-0.0022105521889403,-0.0117665809030178,0.0514700749963521,-0.0022667746525257,0.0007174769416451,-0.000522346002981
3.767811279296875,-0.0057501792908646,-0.0043712921530939,0.0393529362231492,-0.0017754214350134,-0.0011163754388689,-0.0005042364355176
3.777791259765625,-0.0044306576575152,0.0002409965484868,0.0447428125679492,-0.000970252265688,-0.0016284482553601,0.0010710698552429
3.787771240234375,-0.0028744411914609,-0.0044637105437461,0.0374129080712795,-1.17805320769e-05,-0.0010292371734976,2.65781236521e-05
3.79775146484375,-0.0051346594747155,-0.0020530052733607,0.0410047950834035,-0.0003804402658715,0.0002104062587022,-0.0009030366782099
3.8077314453125,0.0091353830160573,-0.0022451668445952,0.0460913045674562,0.0011229142546653,0.0020951256155967,0.0003531763795763
3.81771142578125,-0.0031665377395227,-0.0038361532299313,0.0445931749641895,0.0003497947473078,0.0008826367557048,-0.001266669598408
3.827691162109375,-0.0098680264058522,0.0006029799949843,0.0448889430403709,0.0011841630330309,0.0018251296132802,-0.0001036671746987
3.837671142578125,-0.0086863423406146,-0.0036560930884443,0.0372562562048435,-0.0015730315353721,0.0004466939717531,0.000732374493964
3.8476513671875,0.0002490063250064,-0.0014017017577774,0.0469815314054489,0.0017689693486317,0.0020158290863037,-0.0013914965093135
3.85763134765625,0.0018602043813094,-0.0027737390296533,0.0427916785001754,0.0022129390854388,0.0002153236418962,-5.81160275032e-05
3.867610107421875,-0.004551544090826,-0.0068472629457246,0.0347100788533687,-0.0006747265579178,0.0020920531824231,0.0004484172095544
3.877590576171875,-0.000590933364164,0.0003324559579137,0.0380021061360836,-0.00275644287467,0.0008965544402599,-0.0001609652535989
3.8875703125,0.0037364283156581,0.0018293617184739,0.0414437710225582,0.0002145796315744,-2.17035412788e-05,-0.0001852000277722
3.89755029296875,-0.0103964159278199,-0.0026214345447719,0.0441349098026752,-0.0014808771666139,-0.000273834913969,-0.003111261408776
3.9075302734375,-0.0075087133959867,-0.0001981894532218,0.0403963077962398,-0.0014044444542378,-0.0014767851680517,-0.0010265388991683
3.917510498046875,0.0015456220068037,-0.0014854619179386,0.038005028745532,-0.0031014429405331,0.0004867212846875,-0.0001719401188893
3.927490234375,-0.003838993640989,-0.0053640934495721,0.0377069225817918,-0.0006971412221901,0.0008033709600567,-0.001114965416491
3.937470458984375,-0.0059782706920057,-0.0006440609240438,0.0309732304126024,0.0008679262828081,0.0004873219877481,0.0001049593411153
3.947450439453125,0.0026739684496074,-0.0018954766240902,0.0353109673559665,0.0009669959545135,0.0018175709992647,-0.0001911841682158
3.95743017578125,-0.0092030779574066,0.0051163018341176,0.0378524685323238,0.0014326880918815,-0.0009987913072109,0.0008348955307155
3.967410400390625,-0.0037317156079225,-0.0004541552419774,0.0345610257714986,0.002015121281147,-0.0008531156927347,0.0015366384759545
3.977389404296875,-0.0044161724744364,-0.0041408352649305,0.0415945776700973,0.0001597376540303,-0.0004564942792057,-0.0014373749727383
3.987369140625,-0.0072750325042754,-0.0005474686817731,0.0492260954618453,0.0013067610561847,0.0017632506787776,-0.0014104770962148
3.997349365234375,0.0069690352950245,-0.0075677592399995,0.0442886390596628,0.0008519239490851,-0.001453642733395,-0.001464772853069
4.007328369140625,-0.0050417570268735,-0.0060210229883436,0.0466845942854881,0.001838092575781,-0.0002919724211096,-0.000706038204953
4.01730810546875,0.0055860017050988,-0.0014300236699637,0.0411468339025974,-0.0020503986161202,0.0005450639873743,0.0010718213161453
4.027287353515625,-0.0017694208253175,0.003456214001635,0.03950082026124,-0.0016083138762041,0.001216446980834,0.0011866035638377
4.03726708984375,-0.0111788532760925,0.0025371537948027,0.0436947648197412,0.001242012833245,-0.0030298056080937,0.0006718015065416
4.047247314453125,0.0034857780228368,0.0014762008992489,0.0487859504789114,-0.0007545590051449,0.0010160682722926,0.0005796561017632
4.057227294921875,0.0042599407331086,-0.0022914902043528,0.0381622651338577,-0.0036884979344904,-0.0011818008497357,-0.0010779877193272
4.06720751953125,-0.0034986375044099,0.005223872128129,0.0480401005476713,-0.0024967333301901,-0.0012758104130625,-0.0022718829568475
4.077187255859375,-0.0009186674811877,0.0013984503547661,0.0453448701143264,2.16462649405e-05,2.9336661100387573e-07,0.0031924110371619
4.087167236328125,-0.0049117374390363,-0.0022695888997986,0.0469914682775735,9.54157439991e-05,0.0004005664959549,-0.0013719806447625
4.097147216796875,-0.003294164440874,0.0002782872184179,0.0405558822721242,-0.0022968566045165,0.0009078402072191,-0.0014203505124896
4.10712744140625,0.001032813646458,-0.0014041037774179,0.0428010308504104,-0.000431046122685,-0.0012298794463276,-0.0006008959026075
4.117107421875,0.0018632731212303,0.0007968768655788,0.0450461794286966,0.0031281020492315,-0.0008203526958823,0.0012680268846452
4.12708740234375,0.0034479484967887,0.0026744433736428,0.0489379261702299,0.002226089593023,0.0005421200767159,-0.0005455857608467
4.13706640625,-0.0003648695233277,-0.005786556645343,0.0456435607999563,0.0010815839050337,0.0009380476549267,-0.0006468201172538
4.14704638671875,-0.0036037418466992,-0.0075063113763462,0.0420522583097219,0.0023029097355902,-0.0013954136520624,0.001565201440826
4.1570263671875,-0.0060798313703387,-0.0006879731310065,0.0472919125288724,0.0004239419940859,-0.001635237596929,-0.0013150571612641
4.167006103515625,0.000785707017593,-0.0154467763862572,0.044150107371807,-0.0014402708038687,0.0009389733895659,-0.0010189136955887
4.176986083984375,-0.0035725795234553,0.0025999168327078,0.0462450338244438,-0.0017516150837764,-0.000903770327568,0.0003201908257324
4.186966552734375,-0.0101241200587712,-0.0016831307813525,0.0387649072021245,0.0012066243216395,-0.0005314610898494,-0.0010875561274588
4.196946533203125,-0.0037767055271193,-0.0022649218578357,0.0435544795662164,0.0002866797149181,0.0019063455983996,0.0013251065975055
4.20692626953125,-0.0013053652438335,-0.0020534253984689,0.0474433036983013,-9.17555298656e-05,0.0012261746451258,0.0010915474267676
4.21690625,-0.0031944669260643,-0.0045488954760134,0.0487888730883598,0.0002288925461471,-0.0005037672817707,0.0034243969712406
4.226886474609375,0.0035682869408279,-0.0041745183388236,0.0434030883967876,-0.0011801859363913,0.0001814644783735,-0.001007635728456
4.236865234375,0.0034071415623649,-0.008510264254501,0.0384650474727153,-0.0014684438938274,3.5110861063e-05,9.27470682654e-05
4.24684521484375,-0.0004634345269761,-0.0053577002414036,0.0502817419946193,0.0011851298622786,0.0012385938316583,0.0023921204265207
4.256825439453125,-0.0010297631728462,0.0025519038393627,0.0426496396809816,0.0013496477622538,0.0004366291686892,0.0008279973408207
4.266805419921875,0.0064532860589213,-0.0009731467479374,0.045791444838047,1.32735585793e-05,0.0015948377549648,0.0006322549888864
4.276785400390625,0.0011511427965015,-0.0030195122179575,0.042798108240962,-0.0003444022731855,-0.0002023018896579,-2.50686462095e-05
4.286765380859375,-0.0048834246600046,-0.0060112596461549,0.0428004463285207,-0.0005404109251685,-0.0007423907518386,0.0021099874284118
4.2967451171875,0.0050350532914511,-0.0005188727749511,0.0405570513159036,0.0023048056755214,-0.0023629544302821,-0.0012126142391934
4.306725341796875,-0.0009975048710592,0.0010668803128413,0.0419049587935209,0.000430206535384,-0.0008137933909893,0.0003565202641766
4.316705322265625,-0.0036176059752702,-0.0020933555500581,0.0423527025610208,0.0013865244109183,-8.2834623754e-05,0.0010795448906719
4.326685546875,-0.0041763906355015,-0.0073589935938362,0.0332259777754545,-0.0003882061573676,0.0003472659736871,0.0010947248665615
4.33666455078125,-0.000932641207613,-0.0135193702539429,0.0396627328246831,-0.0018974556587636,0.001444349065423,0.0005003458354622
4.34664453125,-0.0129020786058157,-0.0041333369450643,0.0508861376285552,-0.0006377805257216,-0.0002661999315023,0.0002300350315636
4.356624267578125,-0.0012708601860329,-0.0049347073226701,0.0338268662780523,-0.0015457281842827,0.0019446415826678,0.0004584631242323
4.366604248046875,-0.0068981072169728,-0.0091512747049331,0.0351718511462211,-0.0001859181793406,0.0002516694366931,6.48479326628e-05
4.376584228515625,-0.00047203795854,0.0035156708376016,0.047143443968892,-0.0007199959363788,-0.0004184301942586,0.0006129626999609
4.386564453125,0.0031244886960834,0.0010647614209912,0.0450526091694831,-3.50308837369e-05,-0.0009396104142069,0.0005421225796453
4.396544189453125,-0.0063146995721384,0.0003504208728671,0.0444534742325544,-0.0014902387047186,0.0002338886260986,-0.0023780346382409
4.4065244140625,-0.0060690725143067,-0.0054858201330993,0.0398135394722223,-0.0001978066866286,-0.0003067329525947,-0.0017737634479999
4.41650439453125,-0.0032597872472368,-0.0104567769460845,0.0396662399560213,-0.0008617945713922,-0.0009578596800565,-0.0006584805669263
4.426484375,-0.0077882975223474,0.0002438643590081,0.030239070919156,-0.0011203875765204,-0.0001653023064136,-0.0011200064327567
4.43646337890625,0.0018636567137204,-0.0015047146076802,0.0428068760693073,0.0025015571154654,-0.0001116748899221,-0.0020090043544769
4.446443359375,0.0016276194681413,0.0068633829634636,0.0336801512837409,0.0003688978031277,-0.0004749307408928,-0.0003213592281099
4.456423095703125,-0.0007400595112703,0.0018456004672218,0.0389209745466709,0.0013547497801482,-0.0009882459416985,0.002424186328426
4.4664033203125,-0.0142830663691274,-0.0049179205846507,0.0405669881880283,0.0009044092148542,-0.0014492394402623,-0.0011926528532058
4.47638330078125,0.0010534545756876,-0.0043676114918198,0.0408668479174375,0.0011742983479052,-0.0019804155454039,0.0011770392302423
4.48636328125,-0.002277680874709,-0.006966094419267,0.0413175142943859,-0.0004049561102874,-0.0010038344189524,-0.0008999601704999
4.49634326171875,-0.0079353595765307,0.0019290135675109,0.0449117393940687,0.0013144207186996,-0.0023797759786248,-0.0024735969491302
4.506323486328125,-0.0007989135590381,-0.0041282406448386,0.0354828167915344,0.0013269374612718,0.0006777988746762,-0.0005153744132257
4.516303466796875,0.0010365947724319,-0.0039789409677963,0.049245384684205,-0.0009395206579938,0.0014504939317703,-0.0017349662957713
4.526283203125,-0.0013167816869914,0.0012868614727631,0.0601712678462266,-0.002032215707004,-8.08238983154e-05,0.0016485798405483
4.536262451171875,-0.0011057692848145,0.0053140894285403,0.0428144748538732,0.0012251723092049,0.0007817223668098,-0.0001537534699309
4.5462421875,0.0034934316063299,-0.0071962225138675,0.0431125810176134,-0.0010342535097151,0.0017854673787951,0.0020377617329359
4.556222412109375,-0.0010460201879031,0.0012076861561741,0.0405669881880283,0.0004100364167243,-8.25673341751e-05,-0.001800215919502
4.566202392578125,-0.0042029863814823,0.0016881996821146,0.0446066189676523,5.18412562087e-05,-0.0008040172979235,-0.001022306503728
4.57618212890625,-0.0044578196590766,-0.0074870769529137,0.0440098221182823,0.0013820978347212,0.0017257370054721,0.0002420624514343
4.586161865234375,-0.0072254394751973,0.0013066438854672,0.0375707289814949,-0.001346044242382,0.0018924502655863,-0.0002319802297279
4.59614208984375,-0.0015920914970338,-0.0041124494206625,0.0447509958744049,0.0029776967130601,-0.0018829256296157,2.34409963013e-05
4.6061220703125,0.0001310607674531,-0.0030332302160561,0.0511865818798542,-0.0001989219454117,-0.0001731757074594,0.0007496849866583
4.616101806640625,0.0002943433040753,0.0006867492883,0.0493915151566267,-0.0024373512715101,-0.0004807105287909,0.000916949706152
4.62608203125,-0.0048489561348222,0.0020050014131702,0.0492412930309772,-0.000440513016656,-0.0010863132774829,0.0008860570378601
4.63606201171875,-0.0092376926130615,-0.0032982012951746,0.0493938532441854,-0.0011671484680846,-0.0012659588828682,-0.0008204081677831
4.646041748046875,-0.0021276596784591,0.000156843662681,0.0363765507608652,0.0004187639569863,0.0018821638077497,-5.87441027164e-05
4.656021728515625,-0.0003550057164393,-0.0044471978003624,0.0478980617284774,0.0002719024196267,0.001376555301249,0.000666768872179
4.666002197265625,-0.0056476870307698,-0.002797887090221,0.047298342269659,0.0007051987340673,0.0013387380167841,0.000376484269509
4.675982177734375,-0.0052659394378773,-0.0067071968879085,0.0475976174771785,0.0014208637876436,-0.001127341762185,-0.0011558505939319
4.6859609375,-0.0007213913434185,0.0001277819649782,0.0393693028360605,-0.0011424288386479,0.0007174294441938,0.0016362074529752
4.69594091796875,-0.0035410336077213,-0.0006511756514199,0.0449035560876131,0.0007691228529438,0.0006903074681758,0.0014734165742993
4.705921142578125,0.0018625242025591,-0.0033551830462645,0.0528349336087703,0.0004447498358786,0.0005899062380194,0.0009493065299466
4.71590087890625,0.0031819545043632,-0.003696361166751,0.0423585477799177,0.0010999018559232,0.0002615116536617,-8.62343149492e-05
4.725880859375,-0.0058380950363352,-0.0055620180413126,0.0317325243473052,0.0011265334906056,0.0007123844698071,-0.0010564238764345
4.735861083984375,-0.0030128998140804,-0.0006794884304516,0.035470541831851,-0.0003823334118351,-0.0001913104206323,0.0006836166139692
4.745841064453125,-0.0008836144341155,-0.0011488321084063,0.0561246228039264,-9.31140966713e-05,-0.0014049122110009,-1.99905298359e-05
4.755821044921875,0.0040309177502058,0.0038808417550288,0.051936523464322,0.0005029801977798,-0.0017497697845101,0.0002757243346422
4.765801025390625,6.87361209653e-05,-0.0064321062735747,0.0450514401257038,-0.0021332828328013,0.0035496549680829,0.00157801003661
4.77578076171875,0.0031523265510797,0.0011143453169148,0.0420586880505085,-0.003307026810944,0.0009699277579784,-0.000327897752868
4.785760009765625,-0.0044508053964003,-0.0058412459746468,0.041311669075489,-0.0025333785451948,-0.0006127888336777,0.0003472135867923
4.795739990234375,-0.0034090229921974,-0.0053511791690718,0.0338321269750595,0.0021689929999411,-0.0026487661525607,-0.0014430815353989
4.8057197265625,-0.0033110607767477,0.0027123002991545,0.0362286667227745,-0.0036212517879903,-0.0011004041880369,0.0014919883105903
4.815699951171875,-0.0027209859291091,-0.0064149542093742,0.0440115756839513,-0.000603838765528,-0.0010783765465021,0.0016134707257151
4.82568017578125,0.0004309935620985,-0.0028348580997437,0.0371282459110021,-0.0014920029789209,-0.0005558645352721,0.0015295811463147
4.835659912109375,-0.0018528430587612,-0.0030752883926499,0.0381757091373205,-0.0010509293060749,-0.0018411977216601,-0.0002769057173281
4.845639892578125,-0.0111945988344959,-0.0021995741371996,0.0486544330537319,-0.0005979256238788,-0.0031916871666908,0.0002128495980286
4.855619873046875,0.0049166328098624,-0.0041616223246324,0.0431201798021793,0.0011475885985419,-0.0008020438253879,0.0002679341705515
4.86560009765625,-0.002614548146259,-0.0029262535770889,0.0390782109349966,0.0020352201536297,-0.0004236083477735,-0.001645014504902
4.875579833984375,-0.0031116657471284,0.0079288567705079,0.0363864876329898,0.0009014286333695,-0.0008734297007322,0.0020602496806532
4.885558837890625,0.0021047171942889,0.0002181636621709,0.0482096118956804,0.0022167637944221,-0.0007930025458335,0.0012948573566973
4.8955390625,0.0018642960345372,-0.0052953938612248,0.0465630137324333,0.0024105252232402,-7.14054331183e-05,0.0002321940846741
4.90551904296875,-0.0096450495712459,-0.001578994553443,0.030552374652028,0.0004776028217747,-0.0016991291195154,-0.0017204355681315
4.9154990234375,-0.0053835014029406,-0.0007162037116475,0.0479109212100505,6.3355546444e-06,-0.0001197308301925,0.0002941554703284
4.92547900390625,-0.00359119289238,-0.003006698402157,0.0342909766584634,0.0001248461194336,0.0010216999799013,0.0021447860635817
4.935458740234375,-0.0010058708406053,-0.0032931141281034,0.0395259547024965,0.0008527868194505,-0.0004366347566246,-0.0024566098581999
4.94543896484375,-0.0023600436622276,0.0052856487853452,0.0435685080915689,0.0008093772921711,-0.0007255878299474,-3.92586298403e-05
4.955419189453125,-0.0026959610857069,0.0022127258797176,0.0407253936201333,0.000414217938669,-0.0029275184497237,0.0027163638733327
4.96539892578125,0.002468636869546,-0.0072178041580133,0.0426712669909,0.0008824015967547,0.000656297430396,-0.0020909081213176
4.97537890625,0.001085128355585,-0.0028334333276376,0.0419213254064321,-0.0007058159681037,9.39331948757e-05,0.0016708385664969
4.985358154296875,-0.002583349290397,0.0005577343474607,0.0468617044180631,-0.0014134178636595,-0.0013439077883958,-0.0002916447701863
4.995337890625,-0.0043330607682466,-0.0028105730418581,0.0429728802859783,0.0024594953283667,-0.000386738218367,-0.0013058756012469
5.00531787109375,0.0095471786873415,-0.0079178878519218,0.0516495232164859,0.0005161865847185,0.0014194175601005,0.0022385255433619
5.0152978515625,0.0033983554677106,0.0036335707293823,0.0501543162226676,-0.0002438082592561,-0.0008463561534881,0.0003723745758179
5.02527783203125,0.0062995933345519,0.0040905115834902,0.0383341145694255,0.0020805986132472,0.0009201178327202,-0.0001213754730997
5.035258056640625,0.0014746391298249,0.0023949505788274,0.0396790994375944,-0.0006670319125987,0.0028004366904497,-6.051811215e-05
5.045238037109375,-0.0038097310138866,0.0043661501870956,0.0452145217329263,0.0011236774735152,-0.0010262597352266,-0.0010522793745622
5.055218017578125,0.0052421201708726,-0.0092432273047044,0.0407265626639127,-0.0003792578354477,-0.0006850296631455,-0.000180085437023
5.065197998046875,-0.0011352693739347,-0.0014614508546888,0.0482096118956804,-0.0015843382570892,-0.000966259278357,-0.0013811710523441
5.075177978515625,-3.63134223967e-05,0.007099721603142,0.043572015222907,0.0005642769392579,0.0010329643264412,-0.0007713999366387
5.085156982421875,-0.0005024696294218,-0.0006499609418679,0.0423725763052701,0.0001221921993419,-0.0001944862306118,-0.0020489182788878
5.09513671875,0.0020052206088788,0.0027511984042823,0.0381809698343276,-0.0002454800414852,7.21821561455e-05,0.0001485456596128
5.105116943359375,-0.0040776612350717,0.0006321056247688,0.0462596468716859,0.0002245678333565,0.0015310617163777,-0.0009252408635802
5.11509716796875,-0.0031040304299443,-0.0057044039203785,0.0443114354133605,0.0025482950732111,0.0006195586174726,-0.0029756878502666
5.125076904296875,-0.0082992792517878,0.0032290633154101,0.0420668713569641,0.0010143144754692,-0.0013125650584697,0.0016089437995105
5.135056884765625,0.0011028649416752,-0.0023694873440079,0.0393751480549573,0.0016733689699321,-0.00264098867774,0.0009054403053596
5.145037109375,-0.010886866325885,-0.0048807121131103,0.0401239205956459,0.0005865328712388,-0.0010867677628993,-0.0003190811548847
5.155016845703125,-0.0010673735031858,-0.000380194956623,0.0458136566698551,0.0012681898660957,-0.0019700461998581,0.0003090982791036
5.164996826171875,0.0054404557545669,0.0032161490349099,0.0429705421984195,0.002550235716626,-0.0003591002896428,0.0006811418570578
5.17497705078125,-0.0024793409266509,0.0011465579529292,0.0444686718016862,3.3492688089e-06,-0.001141051761806,0.000995120499283
5.184955810546875,-0.0018752558199688,0.0015450466180685,0.0404307945877313,0.0033847650047391,-0.0017522471025586,-0.0013388738734647
5.19493603515625,-0.0015576595044694,-0.0026558300047181,0.0429781409829855,-0.0024434430524706,-0.0020791441202163,-0.0014864976983517
5.204916015625,0.0034382856192998,-0.0090863836420234,0.0417822091966867,-0.0011009434238076,-0.0001704562455415,0.0003132665879093
5.214895751953125,-0.0017854038457386,0.0012750340376514,0.0387894571214914,-0.0013163369148969,-0.0019187601283192,0.0007304805330932
5.2248759765625,-0.0063366739419288,-0.0016267061526887,0.0510609096735715,0.0018656080355867,-0.0010271333158016,0.0022641951218247
5.23485595703125,0.0044404483991675,0.0026811562422197,0.037143443480134,0.0015366300940513,0.0004153009504079,0.0003341720439493
5.2448359375,-0.0037160613810643,0.0056997916773427,0.0524029719322919,0.0004942689556628,-0.0005892431363463,0.0014503028942272
5.25481591796875,-0.000601326894015,-0.0043368418942205,0.0446229855805635,0.0012043617898598,0.0001882193610072,-0.0012355267535895
5.2647958984375,0.0032229989008046,-0.0073441065519582,0.0381903221845626,0.0018512435490265,0.0017743986099958,0.000479549053125
5.274776123046875,0.0084993136022239,-0.004092694407422,0.0416302335053682,-0.0016194136114791,0.0015955623239278,-0.0005547847831621
5.2847548828125,-0.0025894867702387,0.0013328743052668,0.0441746572911739,0.0024520270526409,5.27929514646e-05,-0.0007731640944257
5.29473486328125,0.0005550035342574,-0.0061726516197901,0.0411854123473167,4.3160514906e-05,-0.0013081049546599,0.0046218368224799
5.304715087890625,-0.0112411048573441,-0.005511703493027,0.0386433266490697,-0.0013462105998769,0.0009936653077602,0.0005234982236288
5.31469482421875,0.0024165778887458,0.0027604685561265,0.0401414562523365,-0.0005136579275131,-0.0007961355149745,0.0007284762104973
5.3246748046875,-0.005257500403095,-0.0042248237539548,0.0387982249498367,-0.0030156977009028,8.43061134219e-05,-0.0012965914793312
5.334655029296875,-0.0129707416615448,-0.0081317497983109,0.0393950217992067,-0.0011418312788009,0.0031200284138321,8.16407991806e-05
5.34463525390625,-0.0081693327291868,-0.0023307445025071,0.0479220271259546,-0.000947686843574,0.0003479439765214,-0.0002059806138277
5.354614990234375,-0.0052059163463301,-0.0006165883952286,0.0402905093342065,0.0002226798096671,0.0020500533282756,-0.0023348114918917
5.364594970703125,0.0013959478704258,-0.0002965169948525,0.0305640650898218,-0.0020157070830464,-0.001057056710124,-3.9699334593e-05
5.374573974609375,-0.0080749324440024,0.0003674542060587,0.0389437709003686,-0.0013618989614769,0.0017624562606215,0.0009483693866059
5.384553955078125,-0.0012122436002828,-0.0018974767849314,0.0332592955231666,-0.00084018567577,-0.0008698124438524,-0.0005943997530266
5.394533935546875,0.0045577181032858,-0.003548404063424,0.0384983652204275,-0.0026491391472518,0.0006560022011399,0.0003894031397067
5.404513671875,-0.0050514929695986,0.0004921948305796,0.0447825600564479,-0.0024816263467073,-0.0007229819893836,0.0005105769960209
5.414493896484375,-0.0021475882216356,-0.0036823143750894,0.0444856229364871,-0.0024493685923516,0.0007814010605216,0.0013830217067152
5.42447412109375,0.0020798750139772,-0.0006777622642461,0.0374549936473369,-6.31761504337e-05,8.49841162562e-05,-0.0006985050276853
5.4344541015625,-0.0019577282053418,-0.001092918936396,0.053020227047801,0.0014140404528006,-0.0010212389752268,-0.0013024206273257
5.444433837890625,-0.0063844038074836,-0.0016677414159756,0.0468862543374299,0.0001748716458678,0.0010935775935649,-0.0005306365201249
5.454413818359375,0.0040214923347346,-0.0002858768698293,0.0446399367153644,0.0014051797334104,-0.0003475118428468,0.000199302798137
5.46439404296875,0.0111840226415544,0.001254256111104,0.0459855061054229,0.0025540674105286,0.0004019010812044,-0.0004145558341406
5.474372802734375,0.002671739959903,-0.0009161101979203,0.0392518139362335,-0.0002390289446339,-0.00012525357306,0.0006382030551321
5.48435302734375,-0.0033505160043016,-0.0093526150964666,0.0362619844704866,0.0010661862324923,0.0017088651657104,-0.0023999311961233
5.4943330078125,0.0017207228453829,-0.0004730243392288,0.0443365698546171,0.0012388387694954,0.0027937600389122,0.0016252403147518
5.50431298828125,0.0012537629207596,-0.0082675780724268,0.0527162756651639,-0.0008852984174154,-0.0010039079934358,0.0020044746343046
5.51429296875,-0.0034896139477379,-0.0013734346445184,0.051220484149456,-0.0002607196220196,-0.0021109450608491,0.0016584793338552
5.52427294921875,0.0042015798756852,-0.0026309878244064,0.046134559187293,-4.8465677537e-05,-0.0010536704212427,0.0006203791126608
5.534252685546875,0.0081558521931059,-0.0002471614277921,0.0406014749795198,-0.0013203328708186,-0.0008938200771808,0.0004445833619683
5.54423291015625,0.0041776510108262,-0.0001981529206037,0.0516734886139631,0.0014818451600149,0.0018162121996283,0.0018070566002279
5.554213134765625,-0.0012144538236781,8.28285783994e-05,0.0385053794831037,-0.002061681356281,-0.0006298460066318,-0.0010016956366598
5.56419189453125,0.0015893698169849,2.67327432986e-05,0.032518121767044,0.003555457573384,2.60910019278e-05,0.0005546556785702
5.574172119140625,-0.0012215228852815,0.0045465208558365,0.0395516736656427,0.000190352788195,0.0002312175929546,-2.4770211894e-05
5.584152099609375,-0.0013897007927298,-0.0008625990455504,0.0386532635211944,-0.0008077999809756,0.0019566798582673,0.0012551449472084
5.59413232421875,-0.0041912776773795,-0.0013933905871585,0.048531098935008,-0.0015346611617133,-0.0006187558174133,0.0023408853448927
5.604112060546875,-0.0064397872565314,-0.0090180128472391,0.0400017555207014,0.0030558295547962,-0.0004059690982103,0.0007491137948818
5.614092041015625,0.0030894356490112,0.003050701940665,0.0483797077655792,0.0007462399080395,0.0025126077234745,-0.0014610728248953
5.624072265625,0.0002890826070681,-0.0026668628553859,0.054362873828411,-0.0011347507825121,-0.0008512306958436,-0.0003606546670198
5.634052001953125,-0.0053404842451214,-0.0045309214279055,0.0417956532001495,0.0002593324752524,-0.0018142517656087,0.0001899058115668
5.644031982421875,-0.0018768084562383,-0.0071671334167011,0.035960955697298,-0.0006882202578708,0.0004811258986592,-0.0017709796084091
5.654011962890625,0.0024064583535306,0.0008835596351884,0.0422451505333185,0.0008599532302469,-0.0018956316635012,-0.0006025589536875
5.663990966796875,0.0044217436986975,0.0037006537493783,0.0434469275385141,0.0010106882546097,-0.0012245150282979,0.0001391313562635
5.67397119140625,0.0041596038974821,-0.0024095453597605,0.0446446128904819,2.76232603937e-05,0.0021517882123589,4.46391240984e-05
5.683951171875,-0.003333327407483,-0.001959691833565,0.0389583839476108,0.0001679718261584,-0.0004186956211924,-0.0005295383743941
5.693930908203125,0.0026215258763171,0.0019845248807221,0.0368634574949741,-0.0028948541730642,0.0028532519936561,-0.0018027377082034
5.7039111328125,0.0033663163616321,-0.0016996891905087,0.0325251360297203,0.0005667227087542,-0.0015265820547938,-0.0003601033531595
5.71389111328125,0.0062728331917896,0.0008768832992296,0.0501829577952623,0.00021423981525,-0.0004078671336174,0.0001044231030391
5.72387109375,0.0001051774075254,-0.0027929734530858,0.0440466469973325,0.0027839238755404,0.000984433107078,0.0009305356652475
5.733850830078125,0.0054218423856422,0.0001991027686744,0.0395557653188705,-0.0013662900310009,-0.0004137242212891,-0.0017934310017153
5.743831298828125,-0.0062969264534302,0.003534192874981,0.0422509957522153,0.0015296314377337,-0.0004944186657667,-0.0003603840305004
5.753811279296875,0.0128742772834375,-0.0016567633642349,0.0506277789533138,0.0007876405725255,0.0018225573003292,-0.0017971650231629
5.7637900390625,0.0067746817667037,-0.0032443704823963,0.04030278429389,0.0016851258696988,-0.0019048023968935,-0.0011367010883986
5.77377001953125,-0.0006009250352159,-0.0075458853349089,0.0422469040989875,-0.0004554118495434,-0.0005166977643966,-1.97892950382e-05
5.783750244140625,0.0041452648448757,-0.0045436256458517,0.0388058237344026,-0.0004130675806663,0.0009728074073791,0.0015301704406738
5.79372998046875,-0.006226875158213,-0.0030596067663282,0.0401513931244611,0.0006551189580932,-0.0007958114147186,0.0003736556100193
5.8037099609375,-0.0040485812710598,-0.0037303182352799,0.0495762240737676,-0.0026173733640462,-0.0011928882449865,0.0002471554325893
5.813690185546875,0.0025264680040068,-0.0011813918042927,0.0432914447158575,0.0013360470766201,-0.0006113918498158,0.0019206013530492
5.823670166015625,0.0015510288342833,-0.0054141614026855,0.0525660535395145,0.0011118088150396,3.12281772494e-05,-0.0010709275957196
5.833650146484375,0.0008602700911462,-0.0038760651152115,0.0468792400747537,-0.0016418881714344,0.001931607723236,0.0035675934050232
5.843630126953125,-0.0075054985255934,0.0023459238053299,0.0393950217992067,-0.0022165984846651,-0.0002383356913924,-0.001360852504149
5.853609130859375,-0.0112514983871951,-0.0049966666429769,0.0498696540623903,0.0005405739648267,-0.0016215285286307,-6.21451472397e-05
5.863589111328125,-0.0036468320697546,0.0019521021821536,0.044931613138318,-0.0012163133360445,0.001078650355339,0.0005381313385441
5.873569091796875,0.0038613150706514,-0.005367025192175,0.041488779208064,-0.0006286514108069,0.0020967731252312,0.0001512355811428
5.883548828125,-0.0015077742144465,-0.0062697827181778,0.0371498732209205,-0.0004337080172263,0.0007108636200428,-0.0008080350235104
5.893529052734375,0.0020197971235029,0.0026385866089724,0.0371475351333618,-0.0014200740261003,0.0006388621404767,0.0006054767291061
5.90350927734375,-0.0052424124318175,0.0006839180103968,0.0459761537551879,-0.0005103382281959,-0.0016035195440053,0.0006651315488852
5.9134892578125,-0.0029765681253746,-0.0020325744066853,0.0378963076740503,-0.0006776967784389,0.0007682032883167,-0.0003662513918243
5.923468994140625,-0.0025190153499133,0.0005124613004736,0.041936522975564,0.0015431132633239,2.65128910541e-05,-0.0009060740703716
5.933448974609375,0.0018023915131576,0.0056237398996017,0.0416413394212722,0.0004988423315808,-0.0034583774395287,0.0010803835466504
5.94342919921875,-0.0003173771197907,0.0010679397587664,0.0365559989809989,0.0013350750086829,0.0006383629515767,-7.35642242943e-05
5.953407958984375,-0.0023243512943387,0.0021922219478059,0.0374532400816679,-0.0011238455772399,-0.0003281543031334,-0.0013150785816833
5.963387939453125,0.003330916254688,0.0036717473153024,0.0404483302444219,-0.0008623232133686,-0.0003643734380602,0.0001179684622911
5.9733681640625,0.0033417664422653,0.0012617544309701,0.0411971027851104,0.0003064278280362,-0.0020940508693456,-0.0002630945818964
5.98334814453125,-0.0051215077321976,0.0002886898814234,0.038055297628045,0.0008286737138405,0.0008274363353848,-0.0001376596919726
5.993328125,9.15324746631e-05,-0.0013239329469855,0.0411971027851104,-0.0008265817887149,0.0021357703953981,0.0033915978856384
6.00330810546875,0.0046846872175112,-0.0065423434487078,0.0551087237596511,0.0004131196765229,0.0031054271385073,0.0009558708406984
6.013287841796875,-0.00535246694386,0.0035862061900086,0.0522644402444362,0.0002821775851771,-0.0005746390670537,0.0001564828853588
6.02326806640625,-0.0078667330534197,-0.0006907861426007,0.0426876336038112,0.0025764908641576,-0.0005946122109889,-4.37868293374e-05
6.033248291015625,-0.0009618125031702,-0.0041538134775124,0.0395458284467458,-0.0011446274584159,-0.0011435719206929,0.0014411289012059
6.043226806640625,-0.0016481690658256,-0.0003934654301498,0.0455342552065849,-0.0015001595020294,-0.0016551651060581,0.000527930969838
6.053207275390625,0.0043338096869178,-0.0021787596780341,0.0398521179169416,0.003486658912152,-0.0028009302914142,0.000184257994988
6.063187255859375,0.0043425044500268,-0.0008959441927261,0.0447895743191242,0.0012978066224604,0.0004209615290164,0.0017126461025327
6.0731669921875,-0.0031012174183502,0.001810675284313,0.0392535675019025,-0.0014814829919487,-0.0006598681211471,0.0017101208213716
6.08314697265625,-0.0018429061866365,-0.0082891414502635,0.0355132119297981,0.0033944984897971,-0.0006023431196808,0.0005034425994381
6.093126953125,-0.0032088790439069,0.0051040268744342,0.042995676639676,-0.001273073721677,0.0001333430409431,0.001072333427146
6.103107177734375,-0.0093136621924117,-0.0041098921373952,0.0470376455068588,0.0004526545526459,0.0011773016303777,0.001971682999283
6.113087158203125,0.0034067762361839,0.0006173281807452,0.046585810086131,-0.0019144432153552,-0.001095050945878,-0.0007220488041639
6.123067138671875,0.0007323511288501,-0.0052624597060028,0.0398562095701694,0.0003716142382472,-0.0018577799201011,-0.0021098221186548
6.13304638671875,-0.006081986794807,0.0017061006649862,0.0403057069033384,0.0014594683889299,-0.0004900218918919,0.0015120725147426
6.143026123046875,-0.0051230969010852,0.0061882053819485,0.0477893406569957,-0.0001490808790549,-0.0026482474058866,0.0011197887361049
6.153006103515625,-0.0031910693925805,-0.0008057634249329,0.048393151769042,0.0002888233866542,-0.0009449934586882,-0.0007095519104041
6.162986083984375,0.0068491535087116,0.001888827687595,0.0457020129889249,-0.0012949585216119,0.0005205441266298,-0.001705041504465
6.172966064453125,0.0043272338156588,-0.0053667420643847,0.0451046316176652,0.0013939788332208,0.0002615442499518,-0.0007433329592458
6.182946044921875,-0.0001879968527704,-0.0006477050526998,0.045556467038393,0.0024808146990835,-0.0008721631020307,-0.0010019259061664
6.19292626953125,0.007516458311025,-0.0064166529761161,0.045108723270893,0.0013258673716336,-0.0002936348319053,-0.0002546681498643
6.202906005859375,0.009371639457345,-0.0002289316513575,0.0410673389256,-0.0001926671247929,0.0009974651038646,-1.66783866e-06
6.212885986328125,-0.0017951397884637,0.003649581149267,0.0419651645481586,-0.0016384525224566,-0.0010081129148602,-0.0006333498749881
6.222865234375,-0.0054042153974063,-0.0081414948741905,0.0472030652016401,0.0016564104007557,-0.0009639039635658,-0.0003720938402693
6.232844970703125,-0.0015120302644558,-0.0062755822713021,0.0469032054722309,0.0004060983192175,-0.0005467599257826,-0.0006974597345106
6.242824951171875,0.0046527942419052,-0.0100789109438657,0.0522913282513618,-0.0017436053603887,-0.0003808448091149,-0.0001126295828726
6.25280517578125,0.0070028644993901,-0.0080391852771863,0.0428635746926069,0.0008106535533443,0.0010905927047133,0.0008786929538473
6.262784912109375,-0.00134091148125,-0.0013244718031026,0.0350818347752094,-0.0024985903874039,-0.0003312695771455,-0.0001748535723891
6.27276513671875,-0.0010547514836303,-0.0006199311297852,0.0392722722023725,-0.0006349290488287,0.0005247592926025,0.0002416616189293
6.2827451171875,0.0004169102378189,-0.0058003385755233,0.0467541523903608,-0.00167888822034,-0.0005383752286434,0.0009468666976317
6.29272509765625,-0.0060498928898014,-0.0112989999238867,0.0416670583844184,0.0002237444277852,0.0010457364842295,-0.0011245072819292
6.302705078125,-0.0134435468050651,-0.0050042654275428,0.0430108742088079,0.0009819464758038,-0.001649915240705,-0.0006557909073308
6.31268505859375,-0.004966737295594,0.0014920925881247,0.0338841494232416,-0.0013770244549959,-0.0019443379715085,0.0006426944164559
6.322663818359375,-0.0011490239046514,-0.003767782435147,0.041369536742568,-0.0003844642778858,0.0016661090776324,0.0030738941859453
6.33264404296875,-0.0022841654144227,-0.0036256248849444,0.0485503881573677,0.0018510012887418,-0.0007798830047249,0.0003430307260714
6.342624267578125,-0.0039510939796455,-0.0008022106278222,0.0443634578615427,-0.0004957762430422,-0.0019279718399047,-0.0007701705908402
6.352604248046875,0.0001290332071483,-0.0003178977095987,0.0412234062701463,0.0021904059685766,0.0044722212478518,0.001732972683385
6.362583984375,0.004177230885718,-0.0048015550628304,0.0473567944586277,-0.001414981437847,0.0007983902469277,0.0003198993508704
6.37256396484375,-0.0037262905141338,0.0004551690221298,0.051397594282031,0.0003400811692699,-0.0004473840817809,0.0003962446062359
6.382544189453125,0.0011924429212696,0.0012296057270374,0.0385293448805809,0.0035095089115202,-0.000513163395226,0.0023094594944268
6.39252392578125,0.0023702545289881,-0.0061593902794178,0.0365828869879245,0.0006339498795568,0.0003884164616465,0.0002680181059986
6.4025029296875,-0.0024892412661574,-0.0047593690220732,0.0406213487237691,-0.0005077472305856,0.0016086772084236,-0.0005431807367131
6.412483154296875,-0.0002522577280178,0.0036852461176924,0.0478045382261276,-0.0019483335781842,-0.0007643308490514,-7.23198463674e-05
6.422463134765625,-0.0054202349504455,0.0017903448823373,0.0470569347292184,-0.0003866558545269,0.0004860237240791,0.0003487259091343
6.432443115234375,0.0061907261325977,-0.0006199402629397,0.0326940628558397,0.000951844616793,-0.0009666942059993,0.0015451667131856
6.442423095703125,0.0024318119904957,-0.0064746211078949,0.0461596936285495,0.0026410876307636,-0.0015073157846927,0.0002615230332594
6.4524033203125,0.0021016484543681,-0.0005962671264074,0.0470563502073288,-0.0008754880400374,0.0002261372283101,-0.0005165166221559
6.462383056640625,-0.0013008899981155,-0.0077957227769773,0.0361339741766452,-0.00068560463842,0.00050257332623,-0.0001612509076949
6.472363037109375,-0.0016601152319461,-0.0023467823218554,0.0389765041261911,-0.0006137496093288,0.0007950933650135,-0.00143917882815
6.482343017578125,0.0061660118164494,0.0040021300471387,0.0436141007989644,-0.000529593671672,-0.0003519309684634,-0.0011907059233635
6.492322998046875,0.0038509215408004,0.0016627364472951,0.0397258611887693,-0.0009158596512861,0.0003700042143464,-0.0001452575670555
6.50230224609375,-0.0010261464436538,-0.0057590841165278,0.05125029476583,0.0015281232772395,0.0009713461622595,-0.0010243670549243
6.5122822265625,0.0045615540281869,0.0016326609694398,0.0472077413767576,0.0011646065395325,0.0008010473102331,-0.0012470630463212
6.522261962890625,-0.0051766719855368,0.0056641358420718,0.0430161349058151,0.0010109420400112,0.0010063769295811,3.55153242708e-05
6.5322421875,-0.0042670280610211,0.0042979985880199,0.0349357043027877,0.0001848334795795,0.0017015561461448,0.0004442232893779
6.54222216796875,0.0028732538813725,-0.0060689537832979,0.0473556254148483,0.0005214571137912,0.000232289545238,-0.0004082545638084
6.552201904296875,0.0012384922863915,-0.0087492332426831,0.0385270067930221,0.0006711442256346,-0.0009336303919553,0.0009531672112643
6.56218212890625,-0.0118101551832631,-0.0045967258062679,0.0495966823399066,0.003183037508279,-0.0009789038449525,0.0004005612572655
6.57216162109375,0.0025755313101224,-0.0054261441014241,0.0494499673455953,0.0001250386121682,-4.08422201871e-05,0.0002688895910978
6.582141357421875,0.0026631365283392,-0.0085964994995389,0.0495972668617963,0.0010715259704738,0.0004270756617188,0.0015543974004685
6.592120361328125,-0.0109259562272578,-0.0073739080351777,0.0310422039955854,0.0001338660949841,-0.0005646804347634,0.0017169511411339
6.6021005859375,-0.0056226621873676,-0.0011342555937822,0.0377782342523336,0.0001474482705816,-0.000359883531928,0.0014799297787249
6.61208056640625,-0.005316756309662,0.000688311057724,0.0421188938051462,-0.0018828175961971,-0.0009447522461414,-0.0006181426579132
6.622060546875,0.009144991094619,-0.0062443742822855,0.0448117861509323,0.0010333439568057,0.00141107942909,5.93654622207e-05
6.63204052734375,0.0033462234216742,-0.0037965153392869,0.0464531236171722,0.0012349360622465,0.0023906202986836,-0.0002793591993395
6.642020263671875,-0.0061498826655559,-0.0061391146763693,0.0353746802419424,-0.0015491324011236,0.0010206904262304,0.0013765944167971
6.65200048828125,-0.0045797290056943,-0.0014456230978947,0.0425584542661905,0.0008508735336363,-0.0015879487618803,0.0021097166463732
6.66198046875,0.000480367395468,0.0055162883365992,0.040313890209794,0.0001776264980435,-0.0022388258948922,-0.0014197707641869
6.671960693359375,0.0017888927107676,-0.0008445153995882,0.0433083958506584,0.0017929195892065,0.0005011474713683,-0.0007223519496619
6.681939697265625,-0.0066368989975191,-0.0058984012556727,0.0434568644106388,0.0006589457043446,0.0009416341781616,-0.0009180943015962
6.691919677734375,-0.0037276604873128,-0.0027274156698957,0.0386661230027675,-0.0001982825924642,-0.0002794889733195,0.0001415603474015
6.7018994140625,-0.0008665354351513,0.002828044766467,0.046447862920165,-0.0013010975671932,-0.0009652534499764,-4.93882980663e-05
6.71187939453125,0.001748469368834,0.0009957239059265,0.0467488916933536,-0.000426756509114,-0.0014394419267773,0.0010363988112658
6.721859619140625,0.0037012108718045,-0.0039267997886054,0.0433101494163274,-0.0003178332117386,-0.0010530175641179,0.0011927264276891
6.731839599609375,-0.0019038060610182,-0.0073291921106167,0.0370253700584173,0.0007629073807038,0.0011402126401662,-0.0009265167755074
6.7418193359375,-0.0056035738944076,-0.0027059253572952,0.0370212784051895,0.0001059055211953,0.0002605700865387,-2.10420112125e-05
6.751799560546875,-0.0073810136293992,-0.003854766598856,0.0403133056879043,-0.0010450597619637,-0.0003323927521705,-0.0014060311950743
6.76177880859375,0.005716368352808,-0.006158595694974,0.0539314966738224,-4.23796009272e-05,-0.0019071195274591,-0.0001045444223564
6.771758544921875,0.0009189232095144,-0.003380646281084,0.0476455482721328,-0.0008937183883972,0.0012055924162268,0.0010772998211905
6.781738525390625,-0.0008001922006718,-0.0030212931830901,0.0439005165249109,-0.0002556249964982,0.0014061285182833,-0.0020244838669896
6.791718505859375,0.004556749988906,-0.0032889585427939,0.0509323148578405,0.0008248271187767,-0.0003289245069026,0.0008324374211952
6.801698486328125,0.0040781909580342,-0.004040361431986,0.0455482837319374,0.0010983337415382,0.0015209075063467,0.0001083239476429
6.811678466796875,-0.0022275033237412,-0.0049351000483147,0.0430021063804626,0.00167228479404,0.0012332368642091,-0.0006912096287123
6.821658447265625,-0.0012288476752117,-0.0015328538567759,0.0425514400035142,-4.4674379751086246e-07,2.17650085687e-05,0.001134387217462
6.831638427734375,0.0044807438769377,0.0030590039781294,0.057216509693861,0.0013851572293788,-0.0017039300873875,0.0020579160191118
6.841618408203125,0.0039455775543116,0.0008804086968768,0.0492868857383728,-0.0008918455569073,-0.002589963376522,0.0005886501166969
6.85159765625,-0.0079994377886876,0.0097802202582359,0.0431511594623327,0.0006015567923896,0.0006617028266191,0.0014354187296703
6.861577392578125,-0.0033400859418325,0.0006910510040819,0.0452460859149694,-0.0027971693780273,-0.0007218094542622,-5.7283003116e-05
6.871557373046875,0.0006961838369257,-0.0043900881851091,0.0395645331472158,-0.0005039872485212,-0.0001357104629278,0.0026565499138087
6.88153759765625,0.0114049536495469,0.0003611523294355,0.0457002594232559,0.0006619446212425,2.38129869103e-05,0.002836579689756
6.891517333984375,-0.0055646666561253,0.0006057930065784,0.0401630835622549,-0.0021876888349652,0.0007294015958905,0.000865924404934
6.90149755859375,-7.95680422335e-05,0.0026077896119095,0.0367196651101112,-0.0003549013636074,-0.0006549097597599,-0.0014291878324002
6.9114775390625,0.0027225385653786,-0.0047072187097277,0.0416582905560731,-0.0012847727630287,-0.0007873103022575,0.0004149557789787
6.921457763671875,0.0057715143398381,-0.0034588900159113,0.0400111078709363,-0.0010861010523512,0.0006638467311859,0.0004043031367473
6.9314375,-0.0015023125880397,-0.0056326355921104,0.0455465301662683,0.0011177345877513,8.16257670521e-05,0.0008494656067341
6.94141650390625,0.0006274294496513,-0.0033086130913347,0.03806464997828,8.57596751302e-05,-0.0008912263438105,0.0004132398462388
6.951396240234375,0.0024966208550147,-0.0010800685879774,0.0403097985565662,0.0012457475531846,-0.0016866084188222,0.0009605580708011
6.96137646484375,-0.0056674694434739,-0.0016686729977373,0.0453986461281776,0.0003748938906937,0.0006223525851964,0.0023366133682429
6.9713564453125,0.002184814959485,0.0020902594106737,0.0436041639268398,-0.0023473475594073,-0.0003065709024667,-0.0001915151369757
6.981336669921875,0.0016966661163605,-0.0093744707352481,0.0361257908701896,-0.0002591629163362,-0.000306038185954,-0.0011638351716101
6.99131640625,0.0002297353689558,-0.0056247445465996,0.0341810865432024,-0.0012392045464366,0.0017185295000672,-0.0013291587820276
7.001296630859375,-0.0051395000466145,0.0001998973531182,0.0283422973871231,-0.0003675519255921,-0.0004836386069655,0.0006216066540218
7.011276611328125,0.0045579738316126,-0.0011697561654262,0.0488408955365419,8.26393370516e-05,0.0013611409813165,-0.0014036921784281
7.02125634765625,0.0047111916319467,-0.0039810963922645,0.0503366870522499,0.0006629421259276,-0.0010096048936247,0.0016312461812049
7.031235595703125,-0.0003109839116223,-0.0029674349708482,0.0442021298199892,0.0025293338112533,-0.0020126504823565,-0.0012747810687869
7.041215576171875,0.0057672034909017,0.0043103557460941,0.0422562564492225,-5.49977412447e-05,0.0020979382097721,0.000347616703948
7.0511953125,-0.0049874147574417,-0.0036912100675981,0.0374643459975719,0.0012999193277209,0.0005942853167653,-0.0001377053267788
7.061175537109375,-0.005170863299258,0.0035047658510971,0.0507809236884117,0.0010328042553737,0.0006669899448752,0.0016721789725124
7.071155517578125,-0.0025370076643303,0.0006198397982399,0.0462929646193981,-0.0014406855916604,-0.0011504814028739,-0.0005698673194274
7.081135498046875,0.0050169331128709,-0.0059887098876293,0.0403092140346765,8.6066429503e-06,-0.0019845832139253,0.0005404044641181
7.091115478515625,0.0053021615287289,0.0043809641637373,0.0406073201984167,0.0006371003692038,0.0005314219743013,-0.0010981091763824
7.101095458984375,-0.0069046282893046,0.0015255747326184,0.0491349100470542,-4.41361917182e-05,0.000710385851562,-2.59205262409e-05
7.111075439453125,-0.0079688417210243,0.0097146990076638,0.0441939465135335,0.0010138561483472,0.0032782750204205,-0.0023131782654672
7.121054443359375,0.0018630539255216,-0.0012618457625154,0.0450911876142025,-0.0007291826768778,-0.0004195244982838,-0.0001264566380996
7.131034423828125,0.0046030002834275,-0.0123261418813839,0.0474894809275865,0.0006798098911531,-0.0003827856853604,-0.002067576162517
7.1410146484375,0.000122000678163,-0.0054160154330544,0.0468944376438856,0.0001338618458248,-0.0013657584786415,-0.0006252081366255
7.150994384765625,-0.0030598624946549,-0.0033522604368161,0.048687750801444,-0.0005808360874652,0.0011590542271733,0.0001023044169414
7.160974609375,-0.0027956038015894,-0.0076106576668098,0.0449438880980014,-0.0001541977399028,0.0001097694039344,0.0010341444285586
7.17095458984375,0.0053104726993478,0.0049036363309714,0.0522755461603403,0.0022161223459988,-0.0019484898075461,0.0002038227976299
7.180934326171875,0.0103212865986861,0.0067069685590453,0.0509253005951642,0.0009417997789569,-6.61676749587e-05,-0.0015970066888257
7.190914306640625,-0.0010090126457624,0.0018644969639368,0.0441886858165264,0.0011868653818964,0.0016493126749992,-0.0014264887431636
7.2008935546875,-0.0001628441452048,-0.0001108673627953,0.0488216063141822,0.0006110899266786,0.000844239257276,-6.10861170571e-05
7.21087353515625,-0.0003735642864368,0.0008903821016196,0.0455272409439086,-0.0003493726835586,0.000850330106914,0.0004142370016779
7.220853515625,0.0057213367888703,-0.0052470886069349,0.0453735116869211,-0.0008335353340953,0.0032383864745497,-6.77951466059e-05
7.230833740234375,-0.0054932819203473,-0.001850724166911,0.0369914677888155,0.000899362959899,-0.0001407116651535,0.0004198907117825
7.2408134765625,0.0023475495068356,0.00023688662895,0.0494090508133173,0.0015076289419084,0.0006105657666921,-0.0002022237167693
7.25079345703125,0.0003088832860812,-0.0066404791940934,0.0458159947574138,0.0013662973651662,0.0020994041115045,0.0023912037722766
7.2607734375,-0.0034143019555136,0.0004489493438974,0.0359364057779312,0.0013820099411532,0.0004370585083961,0.0014926531584933
7.270753173828125,-0.0071443370630033,-0.0036154962165746,0.0351852951496839,0.0021151327528059,0.0001169461756944,-0.0006471552187576
7.280733642578125,-8.69658973999e-05,-0.003734501220053,0.0345873292565345,0.0003545170184224,0.0008589029312133,-0.0002655242278706
7.290712646484375,0.0054857379347085,-0.0007134454989805,0.0413180988162755,-0.0004588154261,0.0030980641022324,0.0005212550750002
7.3006923828125,-0.0036395803450606,-0.0051089770441874,0.0447568410933017,-0.0023683020845055,-0.0011542048305273,0.0016267332248389
7.310672607421875,-0.0023237119735218,-0.0037984059022739,0.0398188001692295,0.0007080732029862,0.0015233661979436,0.0015022442676126
7.320652587890625,-0.004793116028048,0.0024669289696495,0.0336824893712997,0.0001671851496212,-0.0006673503667116,0.0034410255029797
7.330632568359375,-0.0024307708108797,-0.0032725371309556,0.0411637850373983,0.0001525414991192,0.0007644752040505,-0.0006622882792726
7.3406123046875,-0.0032735235116444,-0.0047028895944822,0.0431079048424959,-0.0023463026154786,-0.0008994676172733,-0.0003704058181028
7.350592529296875,-0.0043967553879134,-0.0037718558220658,0.0377209511071443,0.0002347611589357,0.000390681438148,-0.000268134928774
7.36057275390625,-0.005628690069355,-0.0020539368551224,0.0366781640559434,-0.0038521257229149,-0.0006378311663866,0.0018557360162958
7.370552490234375,0.0072494779379107,-0.0004595712026115,0.0423649775207042,0.0024186074733734,0.0015605390071868,0.0013009300455451
7.380531494140625,0.0048736704509705,0.0003164364048745,0.0426613301187753,0.0002321522915735,0.0009054010733962,0.0016932135913521
7.39051171875,0.0022396321529522,0.0035745340185239,0.0413145916849374,0.001622240175493,-0.0010973745957016,0.002759288996458
7.400491455078125,-0.0010252513945102,-0.0061754920308478,0.0481985059797763,0.0013647124869748,0.0007761595770716,-0.002392862457782
7.410471435546875,0.0016009689232334,-0.0027679760091472,0.0469990670621395,0.0016365724150091,0.0019757635891437,0.0005569403292611
7.420451416015625,0.0034438568435609,-0.0045847248412203,0.0377180284976959,-0.0004441553610377,-0.0006810063496232,0.0005622665630653
7.430431640625,-0.0016120565728284,-0.0006499883413314,0.0425099389493465,-0.0003895430127158,-0.0017359917983412,9.91420456557e-05
7.44041162109375,-0.0051101643542759,-0.0009613558454439,0.0422112482637166,0.0029785567894577,0.0009945472702383,-0.0010747793130576
7.4503916015625,0.007409381207358,0.0007772223170381,0.0380173037052154,0.0003104743664152,0.0021708337590098,-0.0006449253414757
7.460370361328125,-0.0051361207794398,-0.0048290275916457,0.04265256229043,0.0006700010853819,-0.0004470534622669,0.0022834865376353
7.4703505859375,-0.0048905302542261,-0.0008812946128658,0.0341214653104543,-4.04740567319e-05,0.00091955345124,0.0022226066794246
7.48033056640625,-0.0008479220662266,-0.0008394738982897,0.0410030415177345,0.0019837946165353,-0.0013007242232561,-0.0006296386709436
7.490310302734375,0.0023758988184854,-0.000249380784342,0.0499818822652101,0.0012879651039838,0.0009606545791029,0.0010077800834551
7.500290283203125,-0.0106444358721375,0.0036515904432628,0.0561152704536914,0.0003289609448984,6.58323988318e-05,-0.0014737533638253
7.510270751953125,-0.003263330911193,-0.0056216666735243,0.0534223781079053,0.0007078702328726,0.0010509714484214,-0.0005113298539072
7.520250732421875,0.0023616328311152,-0.003207545603346,0.0460872129142284,0.0001134526683017,-0.0010550562292337,0.0031971218995749
7.53023046875,0.0046823491299524,0.0027404030156321,0.0436935957759618,0.0016131144948303,-0.0013906266540288,0.0005136573454365
7.54021044921875,-0.0014171002563089,0.002266264431551,0.0481821393668651,0.0011707635130733,0.0016475077718496,-0.0017463010735809
7.550189453125,-0.0041178471149876,-0.0019836663641966,0.0483306079268455,-0.0005353182787075,-0.0001663379371166,-0.0023681195452809
7.56016943359375,0.0032508915547281,0.0015021481912583,0.0421972197383642,-0.0014136286918073,0.0020627276971936,-0.0002051003102678
7.5701494140625,-0.0031665194732137,-0.0009597301439382,0.0396516269087791,7.70327169448e-05,0.0002957498654723,-0.0003263087128289
7.580130126953125,0.0012146547530777,-0.0017099000572692,0.0498293220520019,-0.0008872979087755,-0.001330642029643,-0.0013710667844861
7.59010986328125,-0.0032791860674507,-0.0040482798769604,0.0586573561519384,0.0001912277657538,0.0018831137567758,0.0012907128548249
7.600090087890625,-0.0024753040723502,-0.0003362096844241,0.0351624987959861,-0.0003432686789892,0.0020058853551745,-0.0004765608173329
7.610070068359375,-0.0008994513240642,0.0034327143950387,0.0447375518709421,-0.0005592919769696,-0.0005159080028533,-0.0002794018364511
7.62005029296875,-0.0060328138908371,-0.0036371143933385,0.0414431865006685,-0.0014221561141312,8.99611040949e-05,0.0008087657624855
7.630029052734375,0.002456526306644,-0.0021867968540173,0.0424918187707662,0.000122154247947,-0.0028091147541999,0.0002749499981291
7.64000927734375,-0.0015896255453117,-0.0023853698997292,0.0463847345560789,-0.0009779975516721,-0.0018791388720273,0.0013287628535181
7.649989013671875,-0.0013646576830185,0.0019137337999884,0.0401017087638378,-0.0011808158596977,-0.0008762460201978,0.0011427146382629
7.659968994140625,0.0042779513138346,-0.0035567974324338,0.0411491719901561,-0.0013099792413413,0.0022420492023229,0.0015216824831441
7.66994921875,-0.0101505331416614,-0.0017537300658412,0.048031332719326,0.0002808307763189,0.0009758956730365,0.0002403632679488
7.67992919921875,-0.0050621239614672,-0.0048665739899035,0.0396510423868894,0.0012864402960985,-0.0008182758465409,0.0015346595318987
7.689908935546875,-0.0015095643127337,0.006306762860855,0.0368079279154539,0.0013765995390713,0.0023938529193401,0.0032793681602925
7.69988916015625,0.0013071370758116,0.0087961959232576,0.0459358217447996,-0.0020269202068448,0.0006974190473556,0.000238304506638
7.709869140625,-0.0129050194815732,-0.0010768811170477,0.0375561159342527,5.84966037422e-05,-0.0001824824139475,0.0023645097389817
7.71984814453125,-0.0058779338563792,0.001658863989776,0.0354606049597263,0.0003344001015648,-0.0016405628994107,0.0021093790419399
7.729828125,-0.0020373145138844,-0.0050486799580045,0.04009761711061,-0.0012862151488661,0.0005117701366543,0.0022826716303825
7.73980810546875,-0.0009511267123743,0.0030525285715702,0.036057986330986,-0.001243338221684,-0.001500247977674,0.0006930308882147
7.7497880859375,-0.0100593111942522,-0.0013170830810908,0.0409971962988376,0.0014965556329116,-0.0019651493057608,0.0018888592021539
7.75976806640625,0.0018874759807251,-0.0057878078875131,0.0347130014628171,-0.0002717834431678,0.0010146619752049,-0.0002326148969586
7.769748046875,-0.0019715740676037,-0.0028942053378559,0.051173722398281,-0.0003393125953152,0.0010682763531804,-0.0010672739008441
7.77972802734375,-0.0048047516669146,-0.0022940748870838,0.0519201568514108,-0.0021944707259535,0.0003841100260615,-0.0009940369054675
7.7897080078125,-0.0081188446509651,0.0002450151364784,0.0412953024625778,-0.0010427471715956,-0.0005330285057425,0.0013734783278778
7.799687255859375,-0.0050002377063967,0.0059029495666269,0.0396492888212203,-0.0011868241708725,0.0015658093616366,-0.0008779580239206
7.8096669921875,0.0006793788325972,0.0044904250207357,0.0501262591719627,-0.0017837907653301,0.000528747215867,0.0007154145278036
7.81964697265625,0.0006194288062863,-0.0084136902785394,0.0513221909582614,0.0007834965363144,-0.0008819289505481,-0.0007186976727098
7.829627197265625,-0.0021354045934975,-0.005738543651998,0.0459340681791305,0.000751647632569,0.0001403475180268,-0.0003709176089614
7.83960693359375,0.0013873809714801,0.002558744572103,0.0297726224511861,-0.0016941993962973,-0.0018309243023395,-0.0009205940878018
7.8495869140625,-0.0022699907585978,-0.0048387178685981,0.0404009839713573,0.0001446835231035,-0.0005244240164756,-0.0001974167244043
7.859567138671875,-0.0049906844267621,-0.0029112660705111,0.041447862675786,0.0025559095665812,0.0022242246195673,-0.0009409712511114
7.86954736328125,-0.0012521006866358,-0.0038643564111087,0.0371072031229734,0.0014587502228096,-0.0018531009554862,9.82925048447e-05
7.879527099609375,-0.0038370756785385,-0.0037559458668809,0.0511731378763914,-0.0002712392597459,0.0001005940139293,0.000985125079751
7.889506103515625,-0.0049307526667602,0.0082263510128948,0.0392038831412792,0.0002772471634671,-0.0019747819751501,-0.0005332035943865
7.89948583984375,-0.0035457280491478,-0.0029231026387773,0.0417477224051952,0.0003661967348307,0.0009123515337705,8.25192400952e-05
7.909466064453125,0.004649287110567,-0.0037511326944455,0.0466845942854881,0.0009090130915865,0.0013813218101859,-0.0004279725253582
7.919446044921875,0.0016075082618743,-0.0050578496451489,0.0439893638521432,0.0005910316249355,0.0010015554726123,5.43259702681e-05
7.929426025390625,0.0011185374348424,0.0040935803234111,0.0504226117700338,-0.0006322979461401,0.0018021808937191,-0.0006180064519867
7.939406005859375,0.0010769633154384,0.0034876046537421,0.0448836823433637,-7.72952334955e-05,0.0013853963464498,-0.0012363924179226
7.94938623046875,-0.0039761005567386,0.0019291048990562,0.0433873063057661,-3.16413352265e-05,0.0003681629896163,0.0005818824283778
7.9593662109375,-0.0048500338470563,0.0015788758224342,0.035306291180849,0.0001270830398425,-2.35885381698e-05,-0.0003377071116119
7.969344970703125,0.0068266676822677,0.0001316909551154,0.0412882881999015,-0.0001613199710845,0.0007870448753237,-0.000930538168177
7.9793251953125,0.0045953101673163,0.0016048231144435,0.045927638438344,0.0007819717284291,0.0007252590730786,-0.0009142928756773
7.98930517578125,-0.0005874992980621,0.0015849859028123,0.0459270539164543,0.0012233275920152,-0.0020503476262092,0.0011740310583263
7.999284912109375,0.0064930518137291,0.0016474840792361,0.0468254640609025,0.0019626209978014,0.0016495818272233,0.0005010502063669
8.00926416015625,0.0066215004989877,0.0096683665147516,0.039491467911005,0.0005491382908076,0.0011873301118612,-0.000140535616083
8.019244140625,-0.0063910162113606,0.0033999994355253,0.0364957932263612,0.0020466335117816,0.0005284640938043,-0.0018076744163408
8.02922412109375,-0.0033493652268312,-0.0033251897668,0.0288654444783926,-0.0014718570746481,-0.0006110379472374,-0.0003472491516731
8.0392041015625,-0.002904288340453,0.0039318138904403,0.0391939462691545,-0.001454013865441,-0.0028824480250477,-0.0026937602087855
8.04918408203125,0.0015339863679371,0.0012757829563226,0.0475771592110395,-0.0022766645997762,-0.0009141992777585,0.0001089712677639
8.0591640625,-0.0032940913756377,0.0010116703937295,0.0302197816967964,-9.36713768169e-05,-0.0007107332348823,-0.0004156714712735
8.06914404296875,-0.0090028061449527,-0.0050383686265442,0.0365063146203756,-0.0003192871226929,-0.0017847893759608,-3.89974302379e-05
8.0791240234375,-0.0067640325085259,-0.0051836131829768,0.0519219104170799,-0.0008133034571073,-0.0037928130477666,0.0012188134714961
8.089104248046874,0.0038399800216779,-0.0007545720938127,0.0510258383601903,-0.0002007114817388,0.0020675715059041,0.0032002576626837
8.099083251953125,-0.0050885735769756,0.00242064214251,0.0338151758402585,-0.0002118967240676,0.0003234669566154,0.0009173960424959
8.109063232421875,0.0013872165746986,0.0033272264602594,0.0433925670027732,3.770343028e-06,3.85306775569e-05,0.000492489663884
8.11904296875,-0.0069313153668306,0.0003760576376225,0.0478840332031249,-0.0005919787799939,-0.0018658963963389,0.0003801042912527
8.12902294921875,-0.0032545265502296,-0.0044168574610259,0.0422001423478126,-0.001552851870656,6.73355534672e-05,0.0004247434262651
8.139003173828126,-0.0037370128375478,-0.0023155012676026,0.044892450171709,0.0020972767379134,0.0006580250337719,-0.0007193505298346
8.148983154296875,-0.0047752881104126,-6.01235562469e-05,0.0474368739575147,0.0009006741456687,0.0021095797419548,-0.000662793056108
8.158962890625,-0.0045761670754291,0.0003887344561051,0.0541711506485939,0.0002085185842588,-0.0011796904727816,0.0008309739641845
8.168943115234375,0.0016024850268848,0.0010282562023494,0.0357680634737014,-0.0016252810601145,0.0008370904251933,0.0001996321370825
8.178922119140625,-0.0033936975589022,0.0049160208885092,0.0439969626367092,0.0011891475878655,-0.0015685427933931,0.0020478658843785
8.188902099609376,-0.0027054595664143,-0.0060154152314644,0.0356160877823829,0.0006582348141819,0.0005311910063028,-0.0008253692649304
8.198882080078125,-0.0008176913247443,0.0072067530410364,0.0448918656498193,-0.0012139674508944,0.0005977703258395,-0.0009705115808174
8.208862060546876,-0.0031817901075817,0.0020655085619073,0.0445920059204101,0.0006196227623149,0.0006201630458235,0.0003781868726946
8.218842041015625,-0.0013943952341563,0.0011560564336366,0.0507253941088914,-0.0009295380441471,-0.0005878470838069,0.0015856641111895
8.228822021484374,-0.0076888740021735,-0.0017164667953737,0.0525245524853467,-0.0010305852629244,-0.0018826248124241,-0.0002405010454822
8.238802001953125,-0.0037059966447763,-0.0062569689023774,0.0369645797818899,-0.0016423133201897,-0.0009843409061431,-0.0002231904945801
8.248781982421875,-0.0042904637355357,0.0051063649619929,0.0399579163789749,0.0005744744557887,-0.0008892966434359,0.0008217746508307
8.25876123046875,0.0008429536301642,0.0024729020527098,0.0398088632971048,0.0016155041521415,0.0001589236781001,0.0012936869170516
8.2687412109375,-0.0073621993310749,-0.0043105475423391,0.0401075539827346,0.0004360654857009,0.0005570165812969,0.0002261836634716
8.278720947265626,-0.004803856617771,-0.0007546542922034,0.0350169528454542,-0.0023762327618896,0.0030982056632637,0.0011825247202068
8.288701171875,-0.0054632886408828,-0.002612639316963,0.0415992538452148,0.0029636393301188,0.0001289490610361,0.0017647831700742
8.29868115234375,-0.000189604287967,0.0062625766592565,0.0374076473742723,0.0019569648429751,-0.000659879297018,0.0005850027664564
8.308660888671875,-0.0014647753229364,0.0065193826982285,0.0493792401969432,0.0017008243594318,0.0001184474676847,0.0009475496481172
8.31864111328125,-0.0057139572000131,0.0010719948793761,0.0481798012793064,0.0021042933221906,-0.0001438735052943,0.0016104103997349
8.32862109375,0.0026317002104595,-0.0013234397566411,0.0484767383992671,0.0033913748338818,0.0020244605839252,0.0003914729459211
8.338601318359375,0.003413753966242,0.0036378085130825,0.0374041402429342,-0.0015975248534232,-0.0027681635692715,0.0007962734089232
8.348580078125,0.0016040741957724,-0.0082761175719089,0.0459340681791305,0.0006910401862114,0.0001732492819428,-0.0015742641407996
8.35856005859375,-0.0067310252880677,-0.0056979376469738,0.0402484237581491,-0.0003680989611893,4.14224341511e-05,0.0019919748883694
8.3685400390625,0.0002937770484946,-0.0044932836981024,0.0383048884749412,-0.0022334526292979,0.0010096812620759,-0.0009990283288061
8.37852001953125,0.00729152698135,0.0007779255699366,0.0585077185481786,-0.0009351616026833,-0.0006521306931972,0.0004252301587257
8.3885,0.0009763890177942,0.0081942936405073,0.0538689528316259,-0.0031868587248027,-0.0002335710451006,-6.79842778481e-05
8.398480224609376,-0.0033718510532751,0.0064350928151048,0.0466857633292675,0.0003615370951592,-0.0006343768909573,-0.0005135311512276
8.4084599609375,0.0025169695232994,0.0020238339778035,0.0407008437007665,0.0015342363622039,-0.0004758117720484,0.0012372483033686
8.418440185546874,-0.005696257146541,-0.0032599881766363,0.0438408952921628,-0.0002519458066672,0.0012517804279923,-0.0011332312133163
8.428419189453125,0.0002851188180036,0.0028752540422137,0.0457826770097017,3.73292714357e-05,0.0017508836463093,-0.0020820503123104
8.43839892578125,-0.0043558205893263,-0.0030329196888022,0.0397977573812007,-0.0008740043849684,0.0003111781552433,-0.0018476922996342
8.448379150390625,-0.0124929863482713,0.0088714531165547,0.0426437944620847,0.0002540510613471,0.000281885266304,0.0014444995904341
8.458359130859375,-0.0026654746158979,0.0043311702052596,0.0360626625061035,0.0002814816543832,-0.0016233408823609,-0.000145940168295
8.4683388671875,-0.005177804496698,0.0076687079969793,0.0441430931091308,0.0007614457281306,0.0010574599727988,-0.0009452858939766
8.478319091796875,0.0097101689630188,-0.000155281893257,0.0498281530082225,-0.0014894579071551,-0.0005372408777475,0.0013559516519308
8.48829931640625,0.0078948631693609,3.51169791538e-05,0.047436289435625,0.0026603571604937,-0.0049383831210434,-0.0022524795494973
8.498279052734375,0.0010439926275983,0.0053457084095105,0.0396568876057863,0.0012550072278827,0.0004518553614616,0.0003033560351468
8.508258056640624,-0.0014890695139765,-0.005033610253036,0.0486339747875928,-0.0014946622541174,0.0008789906278252,0.0018455794779583
8.51823828125,0.0047013278250582,-0.0006181501646526,0.0415998383671045,-0.000847247778438,0.0012369193136692,-0.003273282200098
8.528218017578125,-0.0058795230252668,0.0027173144009895,0.046240942171216,-0.0027915486134588,0.0004991898313164,-0.0020761080086231
8.538197998046876,-0.0045866702031344,0.0009976875341497,0.0496790999263525,-0.001969963312149,0.0019570039585232,-0.0010420025791972
8.548177978515625,0.0050115810843184,-0.0042713571762666,0.0403986458837985,-0.000672009657137,0.0022032838314771,9.56107978709e-05
8.558157958984374,-0.0003761033033952,0.0080692242224235,0.0432429293990135,-0.0013401967007666,0.0001209583133459,-0.0022048277314752
8.56813818359375,0.0033224041546694,0.0002142364057246,0.0499777906119823,-0.0005113928928039,-0.0011589508503675,0.0008737290627323
8.57812158203125,0.005521923492942,0.0072475143096875,0.0442909771472215,-0.0011284473584964,0.0019590780138969,0.0007301847217604
8.588101318359374,0.0069109301659278,-8.40889537241e-05,0.0326169059664011,0.0012723597465083,-0.0003083134070038,0.0001505269901826
8.59808056640625,-0.0087440821435302,-0.0013937102475669,0.0414443555444479,-0.0005796024925075,-0.0006332183256745,-0.0007871720008552
8.608060302734375,-0.0050921172409318,0.0041464064891915,0.0415957467138767,-0.0005053209606558,0.0011356733739376,0.0002690820256248
8.61804052734375,0.0048062312379479,0.0043075518676545,0.0381511592179536,-3.713730257e-05,0.0023175850510597,0.0025117299519479
8.6280205078125,-0.0102090583958663,-0.0024758885942399,0.0350046778857707,-0.0002759759663604,0.0013409415259957,-0.001141260843724
8.63800048828125,-0.0016606632212176,0.0019643680086825,0.0402414094954729,0.002072399482131,-0.0007906528189778,0.0017735689179971
8.64798046875,-0.0061344841670244,0.004421926361788,0.0490694435954093,-0.001646660733968,-0.0028295461088418,0.0005196681595407
8.65796044921875,-0.0058432826681062,0.0089571677717845,0.0423334133386611,0.0022498103789985,0.0007830318063497,-0.0004944636020809
8.6679404296875,-0.0067221478618681,-0.0022669859507586,0.0376952321439981,-0.0035890787839889,-0.0007665520533919,0.0014590695500373
8.67791943359375,-0.0027129304868169,-4.6122430358e-06,0.0448819287776947,-0.0006569381803274,-0.001235800795257,0.0017134014051407
8.6878994140625,0.0142168692651204,-0.0023070439665112,0.044881344255805,-9.77329909801e-05,0.0013617919757962,0.0008657199796289
8.697879638671875,0.0031556875519454,0.0055684203826356,0.0504155975073575,-0.0010175887728109,-2.5453045964e-06,0.0014516154769808
8.707859375,-0.0073456865876913,0.0015461151971481,0.0427834951937198,0.001171353040263,0.0009434716776013,0.0023394210729748
8.717839599609375,0.0001239734395407,0.0037311219528783,0.0382931980371475,0.0001550907036289,0.0008816868066787,0.000571614713408
8.727819580078124,-0.006341587579064,6.41786768566e-05,0.0363461556226015,-0.0002736474853008,0.0009828265756368,-0.0012398570543155
8.73779931640625,-0.0036723683698102,0.0002275160124059,0.0472726233065128,0.0004177091177552,-0.0007908390834927,-0.0005319888005033
8.747779296875,0.0050244040332734,-0.0038476427383255,0.0508627567529678,-0.0010144972475245,-0.0004496220499277,0.0012693477328866
8.757758544921876,-0.0095006361318752,-0.0001779686491005,0.0546077885001897,-0.0005130240460857,-0.0023055793717503,0.0013071645516902
8.76773828125,0.0019457820392213,-0.0033208971841726,0.0456277787089347,0.0007359323790296,0.0006131194531917,0.0009386072633787
8.777718505859376,0.0021607947630807,0.0012740385238081,0.0496662404447793,0.0011010518064722,0.001117255538702,-0.0009762055124156
8.787698486328125,0.0017213986988179,0.0029585758109577,0.0442763640999794,-0.0015492546372115,-0.0005884934216737,0.0002805075782816
8.7976787109375,0.0012899119463749,0.0009338741834741,0.0468213724076747,0.0012918057618662,0.0015622749924659,0.0011526928283274
8.807658447265625,-0.0036555085665546,0.0018714381613768,0.0450251366406679,-0.0007768794894218,-0.0001746090129017,-0.000718904309906
8.817638427734375,-0.0125912590909749,0.002995939546125,0.0388899948865175,1.35467853397e-05,-0.0021264404058456,0.0014563656877726
8.827618408203126,-0.002662040549796,0.0026000538300257,0.0403869554460048,-0.0005089598707854,0.0005921116098761,0.0009630332933738
8.837597412109375,-0.0067902811946347,0.0038885410042945,0.0424836354643106,-0.0002732701250351,0.0001838486641645,-0.000287054455839
8.847577392578126,0.0022985957985743,0.0091309260366484,0.0508627567529678,-0.0026261457242071,0.0010261172428727,0.0016843758057802
8.8575576171875,-0.001760251138173,0.002763217635639,0.0507119501054286,0.0006396885728463,-0.0001912135630846,0.0017379054334014
8.867537353515624,-0.0038253121755085,-0.0008588635853491,0.0460737689107656,0.0021903715096414,-0.0002515278756618,5.63124085601e-05
8.877517578125,-0.0089411025529727,-0.0040065778933931,0.0402390714079141,0.0033933212980628,0.0002976153045892,0.0014009424485266
8.88749755859375,-0.0023304705078713,0.0082636416828259,0.0433773694336414,0.0002349361311644,0.0005654459819197,0.0017846453702077
8.897477294921876,-0.0013084887826815,0.0107831045573111,0.0400847576290369,-0.0009309957968071,-0.0011400422081351,0.000246936106123
8.907457275390625,-0.0071863678401336,0.0003330313466489,0.0406821390002965,0.0022939667105674,0.0015539517626166,0.0016582496464252
8.9174365234375,-0.0040226065795868,0.0005024604962673,0.0495113421440124,0.0001679653069004,-0.0017105508595705,3.42540588462e-05
8.92741650390625,0.0003046089697629,-0.000878572932817,0.0400859266728162,0.0002292735734954,0.0017410404980182,0.0005674035055562
8.937396484375,-0.0065350277919322,-0.0016493198432959,0.0409814142078161,-0.0006663475069217,-0.000139151699841,-0.0015468799974769
8.94737646484375,-0.0019093407526612,0.0042591918144375,0.0394856226921081,-0.0016877891030162,0.0004858681932091,-0.0029548190068453
8.9573564453125,0.0024068784786388,-0.0028161351329647,0.0399345355033874,9.75939910858e-05,0.0018856264650821,0.0004713377275038
8.96733642578125,-0.0032261224396526,0.0009503777937032,0.0376876333594322,0.000746089965105,0.0004432881250977,-0.0009099241578951
8.97731640625,-0.0031130174539983,-0.0056776711770799,0.0544452914148569,0.0002558019477874,-0.0004510013386607,-0.0009152505081146
8.987296142578124,-0.002387552723661,-0.0080222524086944,0.0297509951412677,-0.0014574849046766,0.001935607753694,-0.0013322008308023
8.997275390625,-0.0083236830406822,-0.0006672956691589,0.0545879147559404,0.0007785051129758,0.000218934379518,-0.0011340617202222
9.007255615234374,0.0018390519954264,0.0031709764526225,0.0465045615434646,0.001388038508594,0.0021151565015316,-0.0027028450276702
9.0172353515625,-0.0013915639562532,0.0047199503271374,0.0354325479090213,0.000128629617393,-0.0017293831333518,0.0011408952996134
9.027215576171876,-0.0041073987862095,0.0022650040562264,0.0378249960035085,0.0007540623191744,0.0028501013293862,0.0005453276680782
9.037195556640626,-0.0016731208439916,0.0017206771796103,0.0438093311101198,0.0003508597146719,4.84557822346e-05,0.0015677151968702
9.047175537109377,-0.0080631689409725,0.0001687350298743,0.0451525624126195,0.0034431118983775,0.0008143503218889,0.0007799667073413
9.0571552734375,-0.0096977478728629,0.0002978687017224,0.0497872364759445,0.0020068692974746,0.0008319271728396,-0.0008429636945948
9.06713525390625,0.0019674824143759,-0.001776873479411,0.0479927542746067,-0.0011702962219715,0.0001519108191132,0.0017082660924643
9.0771142578125,-0.0013574790235608,-0.0042121286691632,0.051134559431672,-0.000219547713641,-0.0005567567422986,-0.0007487662951461
